validity,detectorcomp,contrastCW,contrastCCW,precueCWorCCW,block_80trials.thisRepN,block_80trials.thisTrialN,block_80trials.thisN,block_80trials.thisIndex,etRecord.started,etRecord.stopped,text.started,text.stopped,text_4.started,text_4.stopped,text_6.started,text_6.stopped,oriCW,oriCCW,roi_2.started,grating_UR.started,grating_UL.started,grating_LR.started,grating_LL.started,noise_UR.started,noise_UL.started,noise_LR.started,noise_LL.started,roi_2.stopped,grating_UR.stopped,grating_UL.stopped,grating_LR.stopped,grating_LL.stopped,noise_UR.stopped,noise_UL.stopped,noise_LR.stopped,noise_LL.stopped,outframe,roi_2.numLooks,roi_2.timesOn,roi_2.timesOff,text_2.started,text_2.stopped,probedcontrast,key_resp.started,respdetect,relevantContrast,correctDetect,TorFdetect,respCWorCCW,key_resp.keys,key_resp.rt,feedback_display_.started,participantNo,blockNo,date,expName,psychopyVersion,frameRate,
1000,1,0.0,4.9,0,0,0,0,9,5.720002809539437e-05,5.720002809539437e-05,51.34707720001461,53.35166480002226,53.35166480002226,53.98397960001603,53.98397960001603,54.506154600006994,45,315,54.506154600006994,54.506154600006994,54.506154600006994,54.506154600006994,54.506154600006994,54.506154600006994,54.506154600006994,54.506154600006994,54.506154600006994,54.851361500041094,54.851361500041094,54.851361500041094,54.851361500041094,54.851361500041094,54.851361500041094,54.851361500041094,54.851361500041094,54.851361500041094,0,1,[0.0011996999965049326],[0.3667210999992676],54.851361500041094,55.05117849999806,1000,55.05117849999806,1000,1000,1000,1000,0,num_3,1.335281399951782,,24,8,2026-03-04_15h51.44.014,2026A_exp2,2022.2.4,59.83190823868518,
1,0,6.1,0.0,1,0,1,1,54,,,,,56.402242900046986,57.052880500035826,57.052880500035826,57.53747929999372,315,45,57.53747929999372,57.53747929999372,57.53747929999372,57.53747929999372,57.53747929999372,57.53747929999372,57.53747929999372,57.53747929999372,57.53747929999372,57.9039445000235,57.9039445000235,57.9039445000235,57.9039445000235,57.9039445000235,57.9039445000235,57.9039445000235,57.9039445000235,57.9039445000235,0,1,[0.000894600001629442],[0.36692040000343695],57.9039445000235,58.10407420003321,0.0,58.10407420003321,1,0.0,0,0,1000,num_4,2.0499093999969773,,24,8,2026-03-04_15h51.44.014,2026A_exp2,2022.2.4,59.83190823868518,
1,0,0.0,0.0,1,0,2,2,82,,,,,60.17279420001432,60.823527900036424,60.823527900036424,61.307962400023825,315,45,61.307962400023825,61.307962400023825,61.307962400023825,61.307962400023825,61.307962400023825,61.307962400023825,61.307962400023825,61.307962400023825,61.307962400023825,61.674071400018875,61.674071400018875,61.674071400018875,61.674071400018875,61.674071400018875,61.674071400018875,61.674071400018875,61.674071400018875,61.674071400018875,0,1,[0.0009118000161834061],[0.3673094999976456],61.674071400018875,61.87437040003715,0.0,61.87437040003715,0,0.0,0,1,1000,num_1,1.2876052999636158,,24,8,2026-03-04_15h51.44.014,2026A_exp2,2022.2.4,59.83190823868518,
1000,1,4.9,4.9,1,0,3,3,26,,,,,63.192456000018865,63.8264130000025,63.8264130000025,64.32751630002167,315,315,64.32751630002167,64.32751630002167,64.32751630002167,64.32751630002167,64.32751630002167,64.32751630002167,64.32751630002167,64.32751630002167,64.32751630002167,64.69395390001591,64.69395390001591,64.69395390001591,64.69395390001591,64.69395390001591,64.69395390001591,64.69395390001591,64.69395390001591,64.69395390001591,0,1,[0.000705599959474057],[0.36707119998754933],64.69395390001591,64.89445020002313,1000,64.89445020002313,1000,1000,1000,1000,1,num_2,1.2914493000134826,,24,8,2026-03-04_15h51.44.014,2026A_exp2,2022.2.4,59.83190823868518,
0,0,0.0,0.0,0,0,4,4,69,,,,,66.21210639999481,66.84635470004287,66.84635470004287,67.34728080005152,45,45,67.34728080005152,67.34728080005152,67.34728080005152,67.34728080005152,67.34728080005152,67.34728080005152,67.34728080005152,67.34728080005152,67.34728080005152,67.71377880004002,67.71377880004002,67.71377880004002,67.71377880004002,67.71377880004002,67.71377880004002,67.71377880004002,67.71377880004002,67.71377880004002,13,1,[0.21650800004135817],[0.36684020003303885],67.71377880004002,67.91440569999395,0.0,67.91440569999395,1,0.0,0,0,1000,num_4,0.6711367000243627,,24,8,2026-03-04_15h51.44.014,2026A_exp2,2022.2.4,59.83190823868518,
1,0,3.7,4.9,0,0,5,5,31,,,,,68.61450550000882,69.26510900002904,69.26510900002904,69.74953490000917,45,315,69.74953490000917,69.74953490000917,69.74953490000917,69.74953490000917,69.74953490000917,69.74953490000917,69.74953490000917,69.74953490000917,69.74953490000917,70.1160059000249,70.1160059000249,70.1160059000249,70.1160059000249,70.1160059000249,70.1160059000249,70.1160059000249,70.1160059000249,70.1160059000249,2,1,[0.0007583000115118921],[0.3510496999952011],70.1160059000249,70.31626540003344,3.7,70.31626540003344,1,3.7,1,1,1000,num_4,0.8293253999436274,,24,8,2026-03-04_15h51.44.014,2026A_exp2,2022.2.4,59.83190823868518,
1000,1,6.1,4.9,0,0,6,6,77,,,,,71.16704339999706,71.80112340004416,71.80112340004416,72.30225060001248,45,315,72.30225060001248,72.30225060001248,72.30225060001248,72.30225060001248,72.30225060001248,72.30225060001248,72.30225060001248,72.30225060001248,72.30225060001248,72.66836190002505,72.66836190002505,72.66836190002505,72.66836190002505,72.66836190002505,72.66836190002505,72.66836190002505,72.66836190002505,72.66836190002505,8,6,"[0.03354809997836128, 0.06696269998792559, 0.1176891999784857, 0.21648429997731, 0.28317180002341047, 0.3503892999724485]","[0.05074889998650178, 0.10094650002429262, 0.19973950000712648, 0.24976719997357577, 0.3335573999793269, 0.36762789997737855]",72.66836190002505,72.86849740002071,1000,72.86849740002071,1000,1000,1000,1000,1,num_2,0.8370851000072435,,24,8,2026-03-04_15h51.44.014,2026A_exp2,2022.2.4,59.83190823868518,
1000,1,0.0,4.9,1,0,7,7,73,,,,,73.73646510002436,74.38681620004354,74.38681620004354,74.87129780004034,315,315,74.87129780004034,74.87129780004034,74.87129780004034,74.87129780004034,74.87129780004034,74.87129780004034,74.87129780004034,74.87129780004034,74.87129780004034,75.23775230004685,75.23775230004685,75.23775230004685,75.23775230004685,75.23775230004685,75.23775230004685,75.23775230004685,75.23775230004685,75.23775230004685,1,2,"[0.0009071999811567366, 0.051272899960167706]","[0.0337199000059627, 0.3679294000030495]",75.23775230004685,75.43837899999926,1000,75.43837899999926,1000,1000,1000,1000,1,num_2,0.6112931999959983,,24,8,2026-03-04_15h51.44.014,2026A_exp2,2022.2.4,59.83190823868518,
1,0,6.1,4.9,0,0,8,8,30,,,,,76.07208539999556,76.72291440004483,76.72291440004483,77.20719250000548,315,45,77.20719250000548,77.20719250000548,77.20719250000548,77.20719250000548,77.20719250000548,77.20719250000548,77.20719250000548,77.20719250000548,77.20719250000548,77.57338420004817,77.57338420004817,77.57338420004817,77.57338420004817,77.57338420004817,77.57338420004817,77.57338420004817,77.57338420004817,77.57338420004817,1,2,"[0.0008379000355489552, 0.23392510000849143]","[0.21709059999557212, 0.3671739000128582]",77.57338420004817,77.77370860002702,6.1,77.77370860002702,1,6.1,1,1,1000,num_4,0.748158699949272,,24,8,2026-03-04_15h51.44.014,2026A_exp2,2022.2.4,59.83190823868518,
1000,1,4.9,4.9,1,0,9,9,85,,,,,78.54117280000355,79.17497750004986,79.17497750004986,79.67616420000559,45,45,79.67616420000559,79.67616420000559,79.67616420000559,79.67616420000559,79.67616420000559,79.67616420000559,79.67616420000559,79.67616420000559,79.67616420000559,80.04265870002564,80.04265870002564,80.04265870002564,80.04265870002564,80.04265870002564,80.04265870002564,80.04265870002564,80.04265870002564,80.04265870002564,0,1,[0.0008545000455342233],[0.3680110000423156],80.04265870002564,80.24303350003902,1000,80.24303350003902,1000,1000,1000,1000,1,num_2,0.8472621000255458,,24,8,2026-03-04_15h51.44.014,2026A_exp2,2022.2.4,59.83190823868518,
1,0,0.0,4.9,1,0,10,10,36,,,,,81.11048800003482,81.76119310001377,81.76119310001377,82.26230120001128,45,45,82.26230120001128,82.26230120001128,82.26230120001128,82.26230120001128,82.26230120001128,82.26230120001128,82.26230120001128,82.26230120001128,82.26230120001128,82.61171710002236,82.61171710002236,82.61171710002236,82.61171710002236,82.61171710002236,82.61171710002236,82.61171710002236,82.61171710002236,82.61171710002236,0,1,[0.0009399999980814755],[0.3501966999610886],82.61171710002236,82.8121207000222,4.9,82.8121207000222,1,4.9,1,1,1000,num_4,0.5980769000016153,,24,8,2026-03-04_15h51.44.014,2026A_exp2,2022.2.4,59.83190823868518,
1,0,0.0,4.9,0,0,11,11,35,,,,,83.42956930003129,84.06372320000082,84.06372320000082,84.5645266000065,45,315,84.5645266000065,84.5645266000065,84.5645266000065,84.5645266000065,84.5645266000065,84.5645266000065,84.5645266000065,84.5645266000065,84.5645266000065,84.93095330003416,84.93095330003416,84.93095330003416,84.93095330003416,84.93095330003416,84.93095330003416,84.93095330003416,84.93095330003416,84.93095330003416,0,1,[0.0008242000476457179],[0.3672423000098206],84.93095330003416,85.13098360004369,0.0,85.13098360004369,1,0.0,0,0,1000,num_4,0.8465921999886632,,24,8,2026-03-04_15h51.44.014,2026A_exp2,2022.2.4,59.83190823868518,
1,0,0.0,4.9,1,0,12,12,65,,,,,85.99858860002132,86.64907080004923,86.64907080004923,87.13356680003926,45,315,87.13356680003926,87.13356680003926,87.13356680003926,87.13356680003926,87.13356680003926,87.13356680003926,87.13356680003926,87.13356680003926,87.13356680003926,87.4999850000022,87.4999850000022,87.4999850000022,87.4999850000022,87.4999850000022,87.4999850000022,87.4999850000022,87.4999850000022,87.4999850000022,0,1,[0.0008616999839432538],[0.3669808999984525],87.4999850000022,87.70026270003291,4.9,87.70026270003291,1,4.9,1,1,1000,num_4,0.42922679998446256,,24,8,2026-03-04_15h51.44.014,2026A_exp2,2022.2.4,59.83190823868518,
1,0,0.0,3.7,0,0,13,13,22,,,,,88.1511994000175,88.80121940001845,88.80121940001845,89.28582490002736,45,315,89.28582490002736,89.28582490002736,89.28582490002736,89.28582490002736,89.28582490002736,89.28582490002736,89.28582490002736,89.28582490002736,89.28582490002736,89.65213110001059,89.65213110001059,89.65213110001059,89.65213110001059,89.65213110001059,89.65213110001059,89.65213110001059,89.65213110001059,89.65213110001059,0,1,[0.0007449000258930027],[0.3676313000032678],89.65213110001059,89.85228910000296,0.0,89.85228910000296,0,0.0,0,1,1000,num_1,0.7736675000051036,,24,8,2026-03-04_15h51.44.014,2026A_exp2,2022.2.4,59.83190823868518,
1000,1,0.0,0.0,0,0,14,14,5,,,,,90.65312430000631,91.28723380004521,91.28723380004521,91.78831580001861,45,315,91.78831580001861,91.78831580001861,91.78831580001861,91.78831580001861,91.78831580001861,91.78831580001861,91.78831580001861,91.78831580001861,91.78831580001861,92.15463780000573,92.15463780000573,92.15463780000573,92.15463780000573,92.15463780000573,92.15463780000573,92.15463780000573,92.15463780000573,92.15463780000573,0,1,[0.0007312999805435538],[0.36714390001725405],92.15463780000573,92.35496730002342,1000,92.35496730002342,1000,1000,1000,1000,1,num_2,1.311119299964048,,24,8,2026-03-04_15h51.44.014,2026A_exp2,2022.2.4,59.83190823868518,
1,0,0.0,3.7,0,0,15,15,2,,,,,93.68987960001687,94.34026210004231,94.34026210004231,94.84130950004328,45,315,94.84130950004328,94.84130950004328,94.84130950004328,94.84130950004328,94.84130950004328,94.84130950004328,94.84130950004328,94.84130950004328,94.84130950004328,95.20778759999666,95.20778759999666,95.20778759999666,95.20778759999666,95.20778759999666,95.20778759999666,95.20778759999666,95.20778759999666,95.20778759999666,23,0,,,95.20778759999666,95.40789400000358,0.0,95.40789400000358,1,0.0,0,0,1000,num_4,0.7300441000261344,,24,8,2026-03-04_15h51.44.014,2026A_exp2,2022.2.4,59.83190823868518,
1000,1,6.1,3.7,1,0,16,16,45,,,,,96.15900600003079,96.80962900002487,96.80962900002487,97.29396530002123,315,315,97.29396530002123,97.29396530002123,97.29396530002123,97.29396530002123,97.29396530002123,97.29396530002123,97.29396530002123,97.29396530002123,97.29396530002123,97.66029580001486,97.66029580001486,97.66029580001486,97.66029580001486,97.66029580001486,97.66029580001486,97.66029580001486,97.66029580001486,97.66029580001486,9,6,"[0.0008721000049263239, 0.08336519997101277, 0.1670297000091523, 0.23388319998048246, 0.3173996999976225, 0.35033929999917746]","[0.06665930000599474, 0.13352109998231754, 0.21681660000467673, 0.2506312999757938, 0.33386989997234195, 0.36741569999139756]",97.66029580001486,97.86063120001927,1000,97.86063120001927,1000,1000,1000,1000,0,num_3,0.9258304999675602,,24,8,2026-03-04_15h51.44.014,2026A_exp2,2022.2.4,59.83190823868518,
1,0,0.0,3.7,0,0,17,17,1,,,,,98.81146789999912,99.46215600002324,99.46215600002324,99.96324360003928,315,315,99.96324360003928,99.96324360003928,99.96324360003928,99.96324360003928,99.96324360003928,99.96324360003928,99.96324360003928,99.96324360003928,99.96324360003928,100.32957770000212,100.32957770000212,100.32957770000212,100.32957770000212,100.32957770000212,100.32957770000212,100.32957770000212,100.32957770000212,100.32957770000212,12,3,"[0.0007231999770738184, 0.06624590000137687, 0.13369190000230446]","[0.033154500008095056, 0.1166339999763295, 0.2336984999710694]",100.32957770000212,100.52983030001633,0.0,100.52983030001633,1,0.0,0,0,1000,num_4,1.239843400020618,,24,8,2026-03-04_15h51.44.014,2026A_exp2,2022.2.4,59.83190823868518,
1000,1,6.1,6.1,0,0,18,18,74,,,,,101.7980918000103,102.43187480000779,102.43187480000779,102.9328551000217,45,45,102.9328551000217,102.9328551000217,102.9328551000217,102.9328551000217,102.9328551000217,102.9328551000217,102.9328551000217,102.9328551000217,102.9328551000217,103.29905410000356,103.29905410000356,103.29905410000356,103.29905410000356,103.29905410000356,103.29905410000356,103.29905410000356,103.29905410000356,103.29905410000356,23,0,,,103.29905410000356,103.49936190003064,1000,103.49936190003064,1000,1000,1000,1000,1,num_2,1.1748531999764964,,24,8,2026-03-04_15h51.44.014,2026A_exp2,2022.2.4,59.83190823868518,
1,0,3.7,6.1,0,0,19,19,55,,,,,104.70061739999801,105.35127800004557,105.35127800004557,105.83606340002734,315,315,105.83606340002734,105.83606340002734,105.83606340002734,105.83606340002734,105.83606340002734,105.83606340002734,105.83606340002734,105.83606340002734,105.83606340002734,106.20206850004615,106.20206850004615,106.20206850004615,106.20206850004615,106.20206850004615,106.20206850004615,106.20206850004615,106.20206850004615,106.20206850004615,23,0,,,106.20206850004615,106.40280720003648,3.7,106.40280720003648,1,3.7,1,1,1000,num_4,0.7673807999817654,,24,8,2026-03-04_15h51.44.014,2026A_exp2,2022.2.4,59.83190823868518,
1,0,0.0,6.1,0,0,20,20,57,,,,,107.18642159999581,107.83709620003356,107.83709620003356,108.33805190003477,45,315,108.33805190003477,108.33805190003477,108.33805190003477,108.33805190003477,108.33805190003477,108.33805190003477,108.33805190003477,108.33805190003477,108.33805190003477,108.68792450003093,108.68792450003093,108.68792450003093,108.68792450003093,108.68792450003093,108.68792450003093,108.68792450003093,108.68792450003093,108.68792450003093,4,3,"[0.0009224999812431633, 0.2675742999999784, 0.3177902000024915]","[0.2508370000286959, 0.3008198000025004, 0.3342938999994658]",108.68792450003093,108.88821800000733,0.0,108.90507790003903,0,0.0,0,1,1000,num_1,0.7365744999842718,,24,8,2026-03-04_15h51.44.014,2026A_exp2,2022.2.4,59.83190823868518,
1,0,6.1,6.1,0,0,21,21,51,,,,,109.67223160003778,110.32269380002981,110.32269380002981,110.80727180000395,315,45,110.80727180000395,110.80727180000395,110.80727180000395,110.80727180000395,110.80727180000395,110.80727180000395,110.80727180000395,110.80727180000395,110.80727180000395,111.17366359999869,111.17366359999869,111.17366359999869,111.17366359999869,111.17366359999869,111.17366359999869,111.17366359999869,111.17366359999869,111.17366359999869,0,1,[0.0007343000033870339],[0.3675690999953076],111.17366359999869,111.37387910002144,6.1,111.37387910002144,1,6.1,1,1,1000,num_4,0.8125375999952666,,24,8,2026-03-04_15h51.44.014,2026A_exp2,2022.2.4,59.83190823868518,
1000,1,0.0,0.0,1,0,22,22,42,,,,,112.20811780000804,112.85860950005008,112.85860950005008,113.34308530000271,45,45,113.34308530000271,113.34308530000271,113.34308530000271,113.34308530000271,113.34308530000271,113.34308530000271,113.34308530000271,113.34308530000271,113.34308530000271,113.70959360001143,113.70959360001143,113.70959360001143,113.70959360001143,113.70959360001143,113.70959360001143,113.70959360001143,113.70959360001143,113.70959360001143,0,1,[0.0007599000236950815],[0.36754110001493245],113.70959360001143,113.90989290003199,1000,113.90989290003199,1000,1000,1000,1000,1,num_2,1.5481345999869518,,24,8,2026-03-04_15h51.44.014,2026A_exp2,2022.2.4,59.83190823868518,
1,0,0.0,3.7,1,0,23,23,12,,,,,115.47790980001446,116.12885150004877,116.12885150004877,116.61333030002424,45,45,116.61333030002424,116.61333030002424,116.61333030002424,116.61333030002424,116.61333030002424,116.61333030002424,116.61333030002424,116.61333030002424,116.61333030002424,116.97958850004943,116.97958850004943,116.97958850004943,116.97958850004943,116.97958850004943,116.97958850004943,116.97958850004943,116.97958850004943,116.97958850004943,19,2,"[0.1335618000011891, 0.33359210001071915]","[0.16662329999962822, 0.366919299995061]",116.97958850004943,117.1799245000002,3.7,117.1799245000002,1,3.7,1,1,1000,num_4,0.6863399000139907,,24,8,2026-03-04_15h51.44.014,2026A_exp2,2022.2.4,59.83190823868518,
1000,1,6.1,0.0,0,0,24,24,68,,,,,117.89716460002819,118.54769390000729,118.54769390000729,119.03209520003293,45,45,119.03209520003293,119.03209520003293,119.03209520003293,119.03209520003293,119.03209520003293,119.03209520003293,119.03209520003293,119.03209520003293,119.03209520003293,119.39854389999527,119.39854389999527,119.39854389999527,119.39854389999527,119.39854389999527,119.39854389999527,119.39854389999527,119.39854389999527,119.39854389999527,1,2,"[0.0009180000051856041, 0.08381019998341799]","[0.0675257999682799, 0.3672413000022061]",119.39854389999527,119.5988601000281,1000,119.5988601000281,1000,1000,1000,1000,0,num_3,0.6666805999702774,,24,8,2026-03-04_15h51.44.014,2026A_exp2,2022.2.4,59.83190823868518,
1,0,3.7,4.9,0,0,25,25,84,,,,,120.28247850004118,120.91699030000018,120.91699030000018,121.41865160001907,45,315,121.41865160001907,121.41865160001907,121.41865160001907,121.41865160001907,121.41865160001907,121.41865160001907,121.41865160001907,121.41865160001907,121.41865160001907,121.78426149999723,121.78426149999723,121.78426149999723,121.78426149999723,121.78426149999723,121.78426149999723,121.78426149999723,121.78426149999723,121.78426149999723,19,3,"[0.0328324000001885, 0.1829651999869384, 0.2667687999783084]","[0.06651569996029139, 0.19978929997887462, 0.28332309995312244]",121.78426149999723,121.98446580005111,3.7,121.98446580005111,1,3.7,1,1,1000,num_4,0.9456034999457188,,24,8,2026-03-04_15h51.44.014,2026A_exp2,2022.2.4,59.83190823868518,
1,0,6.1,0.0,0,0,26,26,24,,,,,122.95210980001139,123.58608790003927,123.58608790003927,124.0875010000309,45,45,124.0875010000309,124.0875010000309,124.0875010000309,124.0875010000309,124.0875010000309,124.0875010000309,124.0875010000309,124.0875010000309,124.0875010000309,124.45360220002476,124.45360220002476,124.45360220002476,124.45360220002476,124.45360220002476,124.45360220002476,124.45360220002476,124.45360220002476,124.45360220002476,13,3,"[0.033446499961428344, 0.21693579998100176, 0.3001731999684125]","[0.050029999983962625, 0.2834201999939978, 0.366995099990163]",124.45360220002476,124.65375710005173,6.1,124.65375710005173,1,6.1,1,1,1000,num_4,0.6208859999896958,,24,8,2026-03-04_15h51.44.014,2026A_exp2,2022.2.4,59.83190823868518,
0,0,3.7,6.1,1,0,27,27,17,,,,,125.30453600001056,125.9384401999996,125.9384401999996,126.4395943999989,315,315,126.4395943999989,126.4395943999989,126.4395943999989,126.4395943999989,126.4395943999989,126.4395943999989,126.4395943999989,126.4395943999989,126.4395943999989,126.80595950002316,126.80595950002316,126.80595950002316,126.80595950002316,126.80595950002316,126.80595950002316,126.80595950002316,126.80595950002316,126.80595950002316,0,1,[0.0007652000058442354],[0.3670863999868743],126.80595950002316,127.00630300003104,3.7,127.00630300003104,1,3.7,1,1,1000,num_4,1.155286299996078,,24,8,2026-03-04_15h51.44.014,2026A_exp2,2022.2.4,59.83190823868518,
1000,1,0.0,3.7,1,0,28,28,43,,,,,128.19135850004386,128.82485130004352,128.82485130004352,129.3258878000197,45,45,129.3258878000197,129.3258878000197,129.3258878000197,129.3258878000197,129.3258878000197,129.3258878000197,129.3258878000197,129.3258878000197,129.3258878000197,129.69215100002475,129.69215100002475,129.69215100002475,129.69215100002475,129.69215100002475,129.69215100002475,129.69215100002475,129.69215100002475,129.69215100002475,11,4,"[0.0008768999832682312, 0.15037619997747242, 0.2003147999639623, 0.3006507999962196]","[0.11685639998177066, 0.18359929998405278, 0.21708339999895543, 0.31728819996351376]",129.69215100002475,129.89251299999887,1000,129.89251299999887,1000,1000,1000,1000,1,num_2,1.5337132000131533,,24,8,2026-03-04_15h51.44.014,2026A_exp2,2022.2.4,59.83190823868518,
1000,1,3.7,0.0,1,0,29,29,21,,,,,131.44399010000052,132.09471239999402,132.09471239999402,132.57949740003096,45,315,132.57949740003096,132.57949740003096,132.57949740003096,132.57949740003096,132.57949740003096,132.57949740003096,132.57949740003096,132.57949740003096,132.57949740003096,132.94647640001494,132.94647640001494,132.94647640001494,132.94647640001494,132.94647640001494,132.94647640001494,132.94647640001494,132.94647640001494,132.94647640001494,0,1,[0.0008915000362321734],[0.3683276000083424],132.94647640001494,133.1459628000157,1000,133.1459628000157,1000,1000,1000,1000,0,num_3,0.7284935999778099,,24,8,2026-03-04_15h51.44.014,2026A_exp2,2022.2.4,59.83190823868518,
1000,1,4.9,0.0,0,0,30,30,78,,,,,133.89659300004132,134.54714239999885,134.54714239999885,135.0317734000273,45,315,135.0317734000273,135.0317734000273,135.0317734000273,135.0317734000273,135.0317734000273,135.0317734000273,135.0317734000273,135.0317734000273,135.0317734000273,135.39785810001194,135.39785810001194,135.39785810001194,135.39785810001194,135.39785810001194,135.39785810001194,135.39785810001194,135.39785810001194,135.39785810001194,23,0,,,135.39785810001194,135.59823990002042,1000,135.59823990002042,1000,1000,1000,1000,0,num_3,0.7635007000062615,,24,8,2026-03-04_15h51.44.014,2026A_exp2,2022.2.4,59.83190823868518,
1000,1,3.7,6.1,0,0,31,31,81,,,,,136.3823217000463,137.03297010000097,137.03297010000097,137.53420759999426,315,315,137.53420759999426,137.53420759999426,137.53420759999426,137.53420759999426,137.53420759999426,137.53420759999426,137.53420759999426,137.53420759999426,137.53420759999426,137.88368550001178,137.88368550001178,137.88368550001178,137.88368550001178,137.88368550001178,137.88368550001178,137.88368550001178,137.88368550001178,137.88368550001178,1,2,"[0.0007455000304616988, 0.2670664000324905]","[0.250105099985376, 0.35104610002599657]",137.88368550001178,138.08436320000328,1000,138.08436320000328,1000,1000,1000,1000,1,num_2,0.757907300023362,,24,8,2026-03-04_15h51.44.014,2026A_exp2,2022.2.4,59.83190823868518,
1,0,3.7,3.7,1,0,32,32,64,,,,,138.8681070000166,139.51865480002016,139.51865480002016,140.00301000004401,45,45,140.00301000004401,140.00301000004401,140.00301000004401,140.00301000004401,140.00301000004401,140.00301000004401,140.00301000004401,140.00301000004401,140.00301000004401,140.36945330002345,140.36945330002345,140.36945330002345,140.36945330002345,140.36945330002345,140.36945330002345,140.36945330002345,140.36945330002345,140.36945330002345,20,3,"[0.01730359997600317, 0.05021749995648861, 0.10025279998080805]","[0.03362229996128008, 0.06820559996413067, 0.11694129998795688]",140.36945330002345,140.56964830000652,3.7,140.56964830000652,1,3.7,1,1,1000,num_4,0.6479985999758355,,24,8,2026-03-04_15h51.44.014,2026A_exp2,2022.2.4,59.83190823868518,
1,0,0.0,0.0,0,0,33,33,66,,,,,141.23703560000286,141.88761920004617,141.88761920004617,142.37218550004764,315,45,142.37218550004764,142.37218550004764,142.37218550004764,142.37218550004764,142.37218550004764,142.37218550004764,142.37218550004764,142.37218550004764,142.37218550004764,142.73851530003594,142.73851530003594,142.73851530003594,142.73851530003594,142.73851530003594,142.73851530003594,142.73851530003594,142.73851530003594,142.73851530003594,0,1,[0.0009025999461300671],[0.367252699972596],142.73851530003594,142.93895370000973,0.0,142.93895370000973,0,0.0,0,1,1000,num_1,1.6231413999921642,,24,8,2026-03-04_15h51.44.014,2026A_exp2,2022.2.4,59.83190823868518,
1000,1,4.9,3.7,1,0,34,34,14,,,,,144.59043760003988,145.22438270004932,145.22438270004932,145.72557460004464,315,315,145.72557460004464,145.72557460004464,145.72557460004464,145.72557460004464,145.72557460004464,145.72557460004464,145.72557460004464,145.72557460004464,145.72557460004464,146.09188750002068,146.09188750002068,146.09188750002068,146.09188750002068,146.09188750002068,146.09188750002068,146.09188750002068,146.09188750002068,146.09188750002068,3,4,"[0.0007263000006787479, 0.13345379999373108, 0.2333863999811001, 0.3343098000041209]","[0.11647660000016913, 0.21658969996497035, 0.3169558999943547, 0.36739879997912794]",146.09188750002068,146.29244180000387,1000,146.29244180000387,1000,1000,1000,1000,0,num_3,0.9092839000513777,,24,8,2026-03-04_15h51.44.014,2026A_exp2,2022.2.4,59.83190823868518,
1000,1,6.1,0.0,0,0,35,35,8,,,,,147.22670200001448,147.87718440004392,147.87718440004392,148.36160140001448,45,315,148.36160140001448,148.36160140001448,148.36160140001448,148.36160140001448,148.36160140001448,148.36160140001448,148.36160140001448,148.36160140001448,148.36160140001448,148.72800510004163,148.72800510004163,148.72800510004163,148.72800510004163,148.72800510004163,148.72800510004163,148.72800510004163,148.72800510004163,148.72800510004163,17,2,"[0.2674165000207722, 0.3506004000082612]","[0.3344288000371307, 0.36735590000171214]",148.72800510004163,148.92814040003577,1000,148.92814040003577,1000,1000,1000,1000,0,num_3,0.6016765999956988,,24,8,2026-03-04_15h51.44.014,2026A_exp2,2022.2.4,59.83190823868518,
1000,1,6.1,0.0,0,0,36,36,80,,,,,149.54548000002978,150.17965320002986,150.17965320002986,150.68085130001418,45,315,150.68085130001418,150.68085130001418,150.68085130001418,150.68085130001418,150.68085130001418,150.68085130001418,150.68085130001418,150.68085130001418,150.68085130001418,151.0469656000496,151.0469656000496,151.0469656000496,151.0469656000496,151.0469656000496,151.0469656000496,151.0469656000496,151.0469656000496,151.0469656000496,5,2,"[0.03395869996165857, 0.11633759998949245]","[0.06677959999069571, 0.36681499995756894]",151.0469656000496,151.24733700003708,1000,151.24733700003708,1000,1000,1000,1000,0,num_3,0.5542715999763459,,24,8,2026-03-04_15h51.44.014,2026A_exp2,2022.2.4,59.83190823868518,
1,0,4.9,0.0,1,0,37,37,15,,,,,151.83075720001943,152.46522140002344,152.46522140002344,152.96630560001358,315,315,152.96630560001358,152.96630560001358,152.96630560001358,152.96630560001358,152.96630560001358,152.96630560001358,152.96630560001358,152.96630560001358,152.96630560001358,153.3324791000341,153.3324791000341,153.3324791000341,153.3324791000341,153.3324791000341,153.3324791000341,153.3324791000341,153.3324791000341,153.3324791000341,23,0,,,153.3324791000341,153.53290630003903,0.0,153.53290630003903,1,0.0,0,0,1000,num_4,1.0132495999569073,,24,8,2026-03-04_15h51.44.014,2026A_exp2,2022.2.4,59.83190823868518,
1000,1,0.0,3.7,0,0,38,38,32,,,,,154.5671139000333,155.2177561999997,155.2177561999997,155.7026121999952,315,315,155.7026121999952,155.7026121999952,155.7026121999952,155.7026121999952,155.7026121999952,155.7026121999952,155.7026121999952,155.7026121999952,155.7026121999952,156.06874730001437,156.06874730001437,156.06874730001437,156.06874730001437,156.06874730001437,156.06874730001437,156.06874730001437,156.06874730001437,156.06874730001437,23,0,,,156.06874730001437,156.2689251000411,1000,156.2689251000411,1000,1000,1000,1000,1,num_2,0.7170576999778859,,24,8,2026-03-04_15h51.44.014,2026A_exp2,2022.2.4,59.83190823868518,
1,0,0.0,0.0,0,0,39,39,29,,,,,157.00295370002277,157.65375130000757,157.65375130000757,158.1378750000149,45,45,158.1378750000149,158.1378750000149,158.1378750000149,158.1378750000149,158.1378750000149,158.1378750000149,158.1378750000149,158.1378750000149,158.1378750000149,158.50441460002912,158.50441460002912,158.50441460002912,158.50441460002912,158.50441460002912,158.50441460002912,158.50441460002912,158.50441460002912,158.50441460002912,15,5,"[0.03352299996186048, 0.10021359997335821, 0.18351719999918714, 0.2512984999921173, 0.366985599976033]","[0.06708809995325282, 0.15017909999005497, 0.2003005999722518, 0.26810419996036217, 0.3669891999452375]",158.50441460002912,158.7046906000469,0.0,158.7046906000469,0,0.0,0,1,1000,num_1,1.0173247999628074,,24,8,2026-03-04_15h51.44.014,2026A_exp2,2022.2.4,59.83190823868518,
1000,1,4.9,4.9,1,0,40,40,60,,,,,159.7389565000194,160.3891663000104,160.3891663000104,160.87403300002916,315,45,160.87403300002916,160.87403300002916,160.87403300002916,160.87403300002916,160.87403300002916,160.87403300002916,160.87403300002916,160.87403300002916,160.87403300002916,161.24052760004997,161.24052760004997,161.24052760004997,161.24052760004997,161.24052760004997,161.24052760004997,161.24052760004997,161.24052760004997,161.24052760004997,23,0,,,161.24052760004997,161.44080969999777,1000,161.44080969999777,1000,1000,1000,1000,0,num_3,0.6488945999881253,,24,8,2026-03-04_15h51.44.014,2026A_exp2,2022.2.4,59.83190823868518,
1,0,3.7,0.0,1,0,41,41,59,,,,,162.10798990004696,162.75855880003655,162.75855880003655,163.25975880003534,315,315,163.25975880003534,163.25975880003534,163.25975880003534,163.25975880003534,163.25975880003534,163.25975880003534,163.25975880003534,163.25975880003534,163.25975880003534,163.61019950004993,163.61019950004993,163.61019950004993,163.61019950004993,163.61019950004993,163.61019950004993,163.61019950004993,163.61019950004993,163.61019950004993,22,0,,,163.61019950004993,163.80971570004476,0.0,163.82646900002146,1,0.0,0,0,1000,num_4,0.8312941000331193,,24,8,2026-03-04_15h51.44.014,2026A_exp2,2022.2.4,59.83190823868518,
1000,1,3.7,4.9,0,0,42,42,13,,,,,164.6772136000218,165.31119979999494,165.31119979999494,165.81258660001913,45,315,165.81258660001913,165.81258660001913,165.81258660001913,165.81258660001913,165.81258660001913,165.81258660001913,165.81258660001913,165.81258660001913,165.81258660001913,166.1788945000153,166.1788945000153,166.1788945000153,166.1788945000153,166.1788945000153,166.1788945000153,166.1788945000153,166.1788945000153,166.1788945000153,23,0,,,166.1788945000153,166.37905740004499,1000,166.37905740004499,1000,1000,1000,1000,1,num_2,0.7114027999923564,,24,8,2026-03-04_15h51.44.014,2026A_exp2,2022.2.4,59.83190823868518,
1,0,6.1,6.1,1,0,43,43,89,,,,,167.11330389999785,167.76374800002668,167.76374800002668,168.26473769999575,45,315,168.26473769999575,168.26473769999575,168.26473769999575,168.26473769999575,168.26473769999575,168.26473769999575,168.26473769999575,168.26473769999575,168.26473769999575,168.61453830002574,168.61453830002574,168.61453830002574,168.61453830002574,168.61453830002574,168.61453830002574,168.61453830002574,168.61453830002574,168.61453830002574,0,1,[0.0008870000019669533],[0.35046230000443757],168.61453830002574,168.81461010000203,6.1,168.81461010000203,1,6.1,1,1,1000,num_4,0.5717579000047408,,24,8,2026-03-04_15h51.44.014,2026A_exp2,2022.2.4,59.83190823868518,
1,0,0.0,0.0,0,0,44,44,19,,,,,169.41531050001504,170.06604440003866,170.06604440003866,170.55035680002766,45,45,170.55035680002766,170.55035680002766,170.55035680002766,170.55035680002766,170.55035680002766,170.55035680002766,170.55035680002766,170.55035680002766,170.55035680002766,170.91679920000024,170.91679920000024,170.91679920000024,170.91679920000024,170.91679920000024,170.91679920000024,170.91679920000024,170.91679920000024,170.91679920000024,7,5,"[0.0008902000263333321, 0.13447240000823513, 0.18447580002248287, 0.28373350005131215, 0.35054300003685057]","[0.05017190001672134, 0.16896760003874078, 0.2671970000374131, 0.33383870002580807, 0.3675539000541903]",170.91679920000024,171.1169327000389,0.0,171.1169327000389,0,0.0,0,1,1000,num_1,0.7411448999773711,,24,8,2026-03-04_15h51.44.014,2026A_exp2,2022.2.4,59.83190823868518,
1,0,0.0,0.0,0,0,45,45,0,,,,,171.88449250004487,172.51841170003172,172.51841170003172,173.0194309000508,315,315,173.0194309000508,173.0194309000508,173.0194309000508,173.0194309000508,173.0194309000508,173.0194309000508,173.0194309000508,173.0194309000508,173.0194309000508,173.38583620003192,173.38583620003192,173.38583620003192,173.38583620003192,173.38583620003192,173.38583620003192,173.38583620003192,173.38583620003192,173.38583620003192,22,1,[0.20101030002115294],[0.21777899999869987],173.38583620003192,173.5861300000106,0.0,173.5861300000106,0,0.0,0,1,1000,num_1,0.7843438999843784,,24,8,2026-03-04_15h51.44.014,2026A_exp2,2022.2.4,59.83190823868518,
1,0,0.0,3.7,1,0,46,46,10,,,,,174.3869878000114,175.03754420002224,175.03754420002224,175.52210590004688,315,45,175.52210590004688,175.52210590004688,175.52210590004688,175.52210590004688,175.52210590004688,175.52210590004688,175.52210590004688,175.52210590004688,175.52210590004688,175.88835150003433,175.88835150003433,175.88835150003433,175.88835150003433,175.88835150003433,175.88835150003433,175.88835150003433,175.88835150003433,175.88835150003433,0,1,[0.0007800000021234155],[0.36784419999457896],175.88835150003433,176.08860670001013,3.7,176.08860670001013,1,3.7,1,1,1000,num_4,0.7532282000174746,,24,8,2026-03-04_15h51.44.014,2026A_exp2,2022.2.4,59.83190823868518,
1,0,4.9,0.0,0,0,47,47,87,,,,,176.8726985999965,177.52332900004694,177.52332900004694,178.0077998000197,45,315,178.0077998000197,178.0077998000197,178.0077998000197,178.0077998000197,178.0077998000197,178.0077998000197,178.0077998000197,178.0077998000197,178.0077998000197,178.3742784000351,178.3742784000351,178.3742784000351,178.3742784000351,178.3742784000351,178.3742784000351,178.3742784000351,178.3742784000351,178.3742784000351,11,5,"[0.01773920003324747, 0.06691560003673658, 0.217361000017263, 0.25079320004442707, 0.28409430000465363]","[0.05069480004021898, 0.18384750001132488, 0.23398120002821088, 0.26730300002964213, 0.3007408000412397]",178.3742784000351,178.57448950002436,4.9,178.57448950002436,1,4.9,1,1,1000,num_4,0.8594946000375785,,24,8,2026-03-04_15h51.44.014,2026A_exp2,2022.2.4,59.83190823868518,
1000,1,3.7,0.0,1,0,48,48,44,,,,,179.45871880004415,180.0927190000075,180.0927190000075,180.59385699999984,45,315,180.59385699999984,180.59385699999984,180.59385699999984,180.59385699999984,180.59385699999984,180.59385699999984,180.59385699999984,180.59385699999984,180.59385699999984,180.9601349000004,180.9601349000004,180.9601349000004,180.9601349000004,180.9601349000004,180.9601349000004,180.9601349000004,180.9601349000004,180.9601349000004,2,2,"[0.0007454000297002494, 0.35040430002845824]","[0.3338268000516109, 0.36704970005666837]",180.9601349000004,181.16036410001107,1000,181.16036410001107,1000,1000,1000,1000,0,num_3,0.7534386999905109,,24,8,2026-03-04_15h51.44.014,2026A_exp2,2022.2.4,59.83190823868518,
1000,1,4.9,0.0,1,0,49,49,7,,,,,181.94445100001758,182.59524110000348,182.59524110000348,183.080262100033,45,315,183.080262100033,183.080262100033,183.080262100033,183.080262100033,183.080262100033,183.080262100033,183.080262100033,183.080262100033,183.080262100033,183.44597360002808,183.44597360002808,183.44597360002808,183.44597360002808,183.44597360002808,183.44597360002808,183.44597360002808,183.44597360002808,183.44597360002808,0,1,[0.0008907000301405787],[0.36618740000994876],183.44597360002808,183.64626770000905,1000,183.64626770000905,1000,1000,1000,1000,0,num_3,0.7401782000088133,,24,8,2026-03-04_15h51.44.014,2026A_exp2,2022.2.4,59.83190823868518,
1000,1,4.9,4.9,0,0,50,50,34,,,,,184.41371500003152,185.06437000003643,185.06437000003643,185.54869760002475,315,45,185.54869760002475,185.54869760002475,185.54869760002475,185.54869760002475,185.54869760002475,185.54869760002475,185.54869760002475,185.54869760002475,185.54869760002475,185.915604000038,185.915604000038,185.915604000038,185.915604000038,185.915604000038,185.915604000038,185.915604000038,185.915604000038,185.915604000038,0,1,[0.000721299962606281],[0.36739279999164864],185.915604000038,186.11535690003075,1000,186.11535690003075,1000,1000,1000,1000,0,num_3,0.6227584999869578,,24,8,2026-03-04_15h51.44.014,2026A_exp2,2022.2.4,59.83190823868518,
1000,1,6.1,6.1,0,0,51,51,56,,,,,186.7662210999988,187.41668310004752,187.41668310004752,187.90101870003855,45,45,187.90101870003855,187.90101870003855,187.90101870003855,187.90101870003855,187.90101870003855,187.90101870003855,187.90101870003855,187.90101870003855,187.90101870003855,188.2675031000399,188.2675031000399,188.2675031000399,188.2675031000399,188.2675031000399,188.2675031000399,188.2675031000399,188.2675031000399,188.2675031000399,3,4,"[0.0007410999969579279, 0.18347069999435917, 0.3004405000247061, 0.35057880001841113]","[0.15024930000072345, 0.28395750001072884, 0.3341194000095129, 0.36764340003719553]",188.2675031000399,188.4676370000234,1000,188.4676370000234,1000,1000,1000,1000,0,num_3,0.4060433999984525,,24,8,2026-03-04_15h51.44.014,2026A_exp2,2022.2.4,59.83190823868518,
1,0,0.0,6.1,0,0,52,52,72,,,,,188.9014708000468,189.5520727999974,189.5520727999974,190.03651850001188,315,45,190.03651850001188,190.03651850001188,190.03651850001188,190.03651850001188,190.03651850001188,190.03651850001188,190.03651850001188,190.03651850001188,190.03651850001188,190.40289500000654,190.40289500000654,190.40289500000654,190.40289500000654,190.40289500000654,190.40289500000654,190.40289500000654,190.40289500000654,190.40289500000654,0,1,[0.0007624000427313149],[0.3672620000434108],190.40289500000654,190.60308780003106,0.0,190.60308780003106,1,0.0,0,0,1000,num_4,1.6944259000010788,,24,8,2026-03-04_15h51.44.014,2026A_exp2,2022.2.4,59.83190823868518,
0,0,0.0,0.0,0,0,53,53,4,,,,,192.32157130003907,192.95547570002964,192.95547570002964,193.45648140000412,45,45,193.45648140000412,193.45648140000412,193.45648140000412,193.45648140000412,193.45648140000412,193.45648140000412,193.45648140000412,193.45648140000412,193.45648140000412,193.8232369000325,193.8232369000325,193.8232369000325,193.8232369000325,193.8232369000325,193.8232369000325,193.8232369000325,193.8232369000325,193.8232369000325,0,1,[0.0007446000236086547],[0.36819730000570416],193.8232369000325,194.02318740001647,0.0,194.02318740001647,1,0.0,0,0,1000,num_4,0.7951839999877848,,24,8,2026-03-04_15h51.44.014,2026A_exp2,2022.2.4,59.83190823868518,
1,0,4.9,0.0,0,0,54,54,23,,,,,194.84067900001537,195.47457530000247,195.47457530000247,195.97580380004365,45,315,195.97580380004365,195.97580380004365,195.97580380004365,195.97580380004365,195.97580380004365,195.97580380004365,195.97580380004365,195.97580380004365,195.97580380004365,196.34230430005118,196.34230430005118,196.34230430005118,196.34230430005118,196.34230430005118,196.34230430005118,196.34230430005118,196.34230430005118,196.34230430005118,23,0,,,196.34230430005118,196.54245550004998,4.9,196.54245550004998,1,4.9,1,1,1000,num_4,0.683664099953603,,24,8,2026-03-04_15h51.44.014,2026A_exp2,2022.2.4,59.83190823868518,
1000,1,3.7,3.7,1,0,55,55,46,,,,,197.24325360002695,197.87696800002595,197.87696800002595,198.37824590003584,315,45,198.37824590003584,198.37824590003584,198.37824590003584,198.37824590003584,198.37824590003584,198.37824590003584,198.37824590003584,198.37824590003584,198.37824590003584,198.7446462000371,198.7446462000371,198.7446462000371,198.7446462000371,198.7446462000371,198.7446462000371,198.7446462000371,198.7446462000371,198.7446462000371,0,1,[0.0009045000188052654],[0.367471800011117],198.7446462000371,198.94521050003823,1000,198.94521050003823,1000,1000,1000,1000,0,num_3,0.7444486999884248,,24,8,2026-03-04_15h51.44.014,2026A_exp2,2022.2.4,59.83190823868518,
1000,1,6.1,0.0,1,0,56,56,52,,,,,199.7124940000358,200.36302420002175,200.36302420002175,200.86406980000902,315,45,200.86406980000902,200.86406980000902,200.86406980000902,200.86406980000902,200.86406980000902,200.86406980000902,200.86406980000902,200.86406980000902,200.86406980000902,201.21369740000227,201.21369740000227,201.21369740000227,201.21369740000227,201.21369740000227,201.21369740000227,201.21369740000227,201.21369740000227,201.21369740000227,0,1,[0.000728100014384836],[0.35043960000621155],201.21369740000227,201.4140734000248,1000,201.4140734000248,1000,1000,1000,1000,0,num_3,1.0523497000103816,,24,8,2026-03-04_15h51.44.014,2026A_exp2,2022.2.4,59.83190823868518,
1000,1,0.0,0.0,0,0,57,57,41,,,,,202.49833960004617,203.14895350002917,203.14895350002917,203.63348110002698,315,315,203.63348110002698,203.63348110002698,203.63348110002698,203.63348110002698,203.63348110002698,203.63348110002698,203.63348110002698,203.63348110002698,203.63348110002698,203.99977640004363,203.99977640004363,203.99977640004363,203.99977640004363,203.99977640004363,203.99977640004363,203.99977640004363,203.99977640004363,203.99977640004363,0,1,[0.000775099964812398],[0.3671537999762222],203.99977640004363,204.2002044999972,1000,204.2002044999972,1000,1000,1000,1000,0,num_3,0.746043799968902,,24,8,2026-03-04_15h51.44.014,2026A_exp2,2022.2.4,59.83190823868518,
1000,1,3.7,0.0,0,0,58,58,37,,,,,204.96782210003585,205.6181399000343,205.6181399000343,206.1025862999959,315,45,206.1025862999959,206.1025862999959,206.1025862999959,206.1025862999959,206.1025862999959,206.1025862999959,206.1025862999959,206.1025862999959,206.1025862999959,206.46855839999625,206.46855839999625,206.46855839999625,206.46855839999625,206.46855839999625,206.46855839999625,206.46855839999625,206.46855839999625,206.46855839999625,22,1,[0.000768599973525852],[0.01759859995217994],206.46855839999625,206.66943530004937,1000,206.66943530004937,1000,1000,1000,1000,0,num_3,0.6121398999821395,,24,8,2026-03-04_15h51.44.014,2026A_exp2,2022.2.4,59.83190823868518,
1000,1,6.1,4.9,1,0,59,59,76,,,,,207.30316710000625,207.95380410004873,207.95380410004873,208.43824119999772,45,45,208.43824119999772,208.43824119999772,208.43824119999772,208.43824119999772,208.43824119999772,208.43824119999772,208.43824119999772,208.43824119999772,208.43824119999772,208.80460319999838,208.80460319999838,208.80460319999838,208.80460319999838,208.80460319999838,208.80460319999838,208.80460319999838,208.80460319999838,208.80460319999838,4,2,"[0.0007386000361293554, 0.317181000020355]","[0.25046850001672283, 0.36714930000016466]",208.80460319999838,209.00493980001193,1000,209.00493980001193,1000,1000,1000,1000,1,num_2,1.10154419997707,,24,8,2026-03-04_15h51.44.014,2026A_exp2,2022.2.4,59.83190823868518,
1,0,6.1,3.7,0,0,60,60,86,,,,,210.1232440000167,210.77327360003255,210.77327360003255,211.27464830002282,45,45,211.27464830002282,211.27464830002282,211.27464830002282,211.27464830002282,211.27464830002282,211.27464830002282,211.27464830002282,211.27464830002282,211.27464830002282,211.62406610004837,211.62406610004837,211.62406610004837,211.62406610004837,211.62406610004837,211.62406610004837,211.62406610004837,211.62406610004837,211.62406610004837,0,1,[0.0010777999996207654],[0.3506352999829687],211.62406610004837,211.82435880001867,6.1,211.82435880001867,1,6.1,1,1,1000,num_4,0.7460940000019036,,24,8,2026-03-04_15h51.44.014,2026A_exp2,2022.2.4,59.83190823868518,
1000,1,0.0,0.0,1,0,61,61,62,,,,,212.59188030002406,213.22578810004052,213.22578810004052,213.7270582000492,45,45,213.7270582000492,213.7270582000492,213.7270582000492,213.7270582000492,213.7270582000492,213.7270582000492,213.7270582000492,213.7270582000492,213.7270582000492,214.09318040002836,214.09318040002836,214.09318040002836,214.09318040002836,214.09318040002836,214.09318040002836,214.09318040002836,214.09318040002836,214.09318040002836,0,1,[0.0008563000010326505],[0.3664619000046514],214.09318040002836,214.29353570000967,1000,214.29353570000967,1000,1000,1000,1000,0,num_3,2.0442549000144936,,24,8,2026-03-04_15h51.44.014,2026A_exp2,2022.2.4,59.83190823868518,
1000,1,0.0,0.0,1,0,62,62,40,,,,,216.36247110000113,217.01287560001947,217.01287560001947,217.4973186000134,45,315,217.4973186000134,217.4973186000134,217.4973186000134,217.4973186000134,217.4973186000134,217.4973186000134,217.4973186000134,217.4973186000134,217.4973186000134,217.86407240002882,217.86407240002882,217.86407240002882,217.86407240002882,217.86407240002882,217.86407240002882,217.86407240002882,217.86407240002882,217.86407240002882,1,1,[0.000763299991376698],[0.3674186000134796],217.86407240002882,218.06491890002508,1000,218.06491890002508,1000,1000,1000,1000,1,num_2,1.0414173999452032,,24,8,2026-03-04_15h51.44.014,2026A_exp2,2022.2.4,59.83190823868518,
1,0,0.0,3.7,1,0,63,63,25,,,,,219.13196660001995,219.76560909999534,219.76560909999534,220.2668157000444,45,315,220.2668157000444,220.2668157000444,220.2668157000444,220.2668157000444,220.2668157000444,220.2668157000444,220.2668157000444,220.2668157000444,220.2668157000444,220.63336030003848,220.63336030003848,220.63336030003848,220.63336030003848,220.63336030003848,220.63336030003848,220.63336030003848,220.63336030003848,220.63336030003848,7,4,"[0.0007559999939985573, 0.26739950000774115, 0.30059060000348836, 0.3342539999866858]","[0.20040770003106445, 0.2839218000299297, 0.3172315999981947, 0.36764579999726266]",220.63336030003848,220.83331060002092,3.7,220.83331060002092,1,3.7,1,1,1000,num_4,0.7287575000082143,,24,8,2026-03-04_15h51.44.014,2026A_exp2,2022.2.4,59.83190823868518,
1000,1,6.1,0.0,0,0,64,64,58,,,,,221.58408440003404,222.23476060002577,222.23476060002577,222.71921920002205,45,45,222.71921920002205,222.71921920002205,222.71921920002205,222.71921920002205,222.71921920002205,222.71921920002205,222.71921920002205,222.71921920002205,222.71921920002205,223.08568880002713,223.08568880002713,223.08568880002713,223.08568880002713,223.08568880002713,223.08568880002713,223.08568880002713,223.08568880002713,223.08568880002713,6,4,"[0.0008995999814942479, 0.05013859999598935, 0.11708679998992011, 0.26717399997869506]","[0.017446799960453063, 0.08355129999108613, 0.23376279999502003, 0.36742149997735396]",223.08568880002713,223.2858000000124,1000,223.2858000000124,1000,1000,1000,1000,0,num_3,0.7162697000312619,,24,8,2026-03-04_15h51.44.014,2026A_exp2,2022.2.4,59.83190823868518,
1000,1,4.9,6.1,1,0,65,65,18,,,,,224.0207734000287,224.67046410002513,224.67046410002513,225.15487040003063,315,45,225.15487040003063,225.15487040003063,225.15487040003063,225.15487040003063,225.15487040003063,225.15487040003063,225.15487040003063,225.15487040003063,225.15487040003063,225.52129510004306,225.52129510004306,225.52129510004306,225.52129510004306,225.52129510004306,225.52129510004306,225.52129510004306,225.52129510004306,225.52129510004306,0,1,[0.0007327999919652939],[0.36730360001092777],225.52129510004306,225.72156660002656,1000,225.72156660002656,1000,1000,1000,1000,0,num_3,0.5927894000196829,,24,8,2026-03-04_15h51.44.014,2026A_exp2,2022.2.4,59.83190823868518,
1000,1,3.7,3.7,0,0,66,66,16,,,,,226.33939160004957,226.98947820003377,226.98947820003377,227.47427990002325,315,45,227.47427990002325,227.47427990002325,227.47427990002325,227.47427990002325,227.47427990002325,227.47427990002325,227.47427990002325,227.47427990002325,227.47427990002325,227.84022300003562,227.84022300003562,227.84022300003562,227.84022300003562,227.84022300003562,227.84022300003562,227.84022300003562,227.84022300003562,227.84022300003562,1,2,"[0.0010498999617993832, 0.050040299945976585]","[0.0332912000012584, 0.3675727999652736]",227.84022300003562,228.04064910003217,1000,228.04064910003217,1000,1000,1000,1000,0,num_3,0.4974788000108674,,24,8,2026-03-04_15h51.44.014,2026A_exp2,2022.2.4,59.83190823868518,
1000,1,0.0,0.0,0,0,67,67,47,,,,,228.5577270000358,229.20859150000615,229.20859150000615,229.69288380001672,315,45,229.69288380001672,229.69288380001672,229.69288380001672,229.69288380001672,229.69288380001672,229.69288380001672,229.69288380001672,229.69288380001672,229.69288380001672,230.05928099999437,230.05928099999437,230.05928099999437,230.05928099999437,230.05928099999437,230.05928099999437,230.05928099999437,230.05928099999437,230.05928099999437,12,4,"[0.033619599998928607, 0.1670031999819912, 0.31717589998152107, 0.36731249996228144]","[0.10032399999909103, 0.2507395999855362, 0.3503890999709256, 0.3673154999851249]",230.05928099999437,230.2601268000435,1000,230.2601268000435,1000,1000,1000,1000,0,num_3,0.5984331999788992,,24,8,2026-03-04_15h51.44.014,2026A_exp2,2022.2.4,59.83190823868518,
1000,1,4.9,0.0,1,0,68,68,28,,,,,230.8769213000196,231.5277228000341,231.5277228000341,232.01195690000895,315,315,232.01195690000895,232.01195690000895,232.01195690000895,232.01195690000895,232.01195690000895,232.01195690000895,232.01195690000895,232.01195690000895,232.01195690000895,232.37832210003398,232.37832210003398,232.37832210003398,232.37832210003398,232.37832210003398,232.37832210003398,232.37832210003398,232.37832210003398,232.37832210003398,23,0,,,232.37832210003398,232.57867140002782,1000,232.57867140002782,1000,1000,1000,1000,0,num_3,0.7429961999878287,,24,8,2026-03-04_15h51.44.014,2026A_exp2,2022.2.4,59.83190823868518,
1000,1,6.1,6.1,0,0,69,69,50,,,,,233.3460369000095,233.99647010001354,233.99647010001354,234.4979460000177,45,45,234.4979460000177,234.4979460000177,234.4979460000177,234.4979460000177,234.4979460000177,234.4979460000177,234.4979460000177,234.4979460000177,234.4979460000177,234.84729060000973,234.84729060000973,234.84729060000973,234.84729060000973,234.84729060000973,234.84729060000973,234.84729060000973,234.84729060000973,234.84729060000973,1,2,"[0.0008994999807327986, 0.14991129998816177]","[0.13325409998651594, 0.35024820000398904]",234.84729060000973,235.04818070004694,1000,235.04818070004694,1000,1000,1000,1000,0,num_3,0.34552789997542277,,24,8,2026-03-04_15h51.44.014,2026A_exp2,2022.2.4,59.83190823868518,
1000,1,0.0,0.0,1,0,70,70,70,,,,,235.41465819999576,236.0651962000411,236.0651962000411,236.54990040004486,45,315,236.54990040004486,236.54990040004486,236.54990040004486,236.54990040004486,236.54990040004486,236.54990040004486,236.54990040004486,236.54990040004486,236.54990040004486,236.9160490000504,236.9160490000504,236.9160490000504,236.9160490000504,236.9160490000504,236.9160490000504,236.9160490000504,236.9160490000504,236.9160490000504,6,2,"[0.03454100003000349, 0.06676600000355393]","[0.05010039999615401, 0.33356380002805963]",236.9160490000504,237.1163604000467,1000,237.1163604000467,1000,1000,1000,1000,1,num_2,1.3500899000209756,,24,8,2026-03-04_15h51.44.014,2026A_exp2,2022.2.4,59.83190823868518,
1000,1,4.9,0.0,0,0,71,71,20,,,,,238.48444610001752,239.13495950005017,239.13495950005017,239.63626380002825,45,315,239.63626380002825,239.63626380002825,239.63626380002825,239.63626380002825,239.63626380002825,239.63626380002825,239.63626380002825,239.63626380002825,239.63626380002825,239.9859007000341,239.9859007000341,239.9859007000341,239.9859007000341,239.9859007000341,239.9859007000341,239.9859007000341,239.9859007000341,239.9859007000341,22,0,,,239.9859007000341,240.1860602000379,1000,240.1860602000379,1000,1000,1000,1000,0,num_3,0.5442215999937616,,24,8,2026-03-04_15h51.44.014,2026A_exp2,2022.2.4,59.83190823868518,
1,0,3.7,6.1,1,0,72,72,6,,,,,240.75328990002163,241.40389590000268,241.40389590000268,241.88829020003323,45,315,241.88829020003323,241.88829020003323,241.88829020003323,241.88829020003323,241.88829020003323,241.88829020003323,241.88829020003323,241.88829020003323,241.88829020003323,242.2546685000416,242.2546685000416,242.2546685000416,242.2546685000416,242.2546685000416,242.2546685000416,242.2546685000416,242.2546685000416,242.2546685000416,23,0,,,242.2546685000416,242.45474040001864,6.1,242.45474040001864,1,6.1,1,1,1000,num_4,0.7631851999904029,,24,8,2026-03-04_15h51.44.014,2026A_exp2,2022.2.4,59.83190823868518,
1000,1,3.7,0.0,1,0,73,73,33,,,,,243.23914900003,243.88971400004812,243.88971400004812,244.37416780000785,315,315,244.37416780000785,244.37416780000785,244.37416780000785,244.37416780000785,244.37416780000785,244.37416780000785,244.37416780000785,244.37416780000785,244.37416780000785,244.7405125000514,244.7405125000514,244.7405125000514,244.7405125000514,244.7405125000514,244.7405125000514,244.7405125000514,244.7405125000514,244.7405125000514,23,0,,,244.7405125000514,244.94091950001894,1000,244.94091950001894,1000,1000,1000,1000,1,num_2,0.8053392000147142,,24,8,2026-03-04_15h51.44.014,2026A_exp2,2022.2.4,59.83190823868518,
1000,1,6.1,0.0,1,0,74,74,79,,,,,245.7753071000334,246.42567770002643,246.42567770002643,246.91013329999987,315,315,246.91013329999987,246.91013329999987,246.91013329999987,246.91013329999987,246.91013329999987,246.91013329999987,246.91013329999987,246.91013329999987,246.91013329999987,247.2764307000325,247.2764307000325,247.2764307000325,247.2764307000325,247.2764307000325,247.2764307000325,247.2764307000325,247.2764307000325,247.2764307000325,0,1,[0.0007381999748758972],[0.3673763999831863],247.2764307000325,247.47683580004377,1000,247.47683580004377,1000,1000,1000,1000,0,num_3,0.5416503999731503,,24,8,2026-03-04_15h51.44.014,2026A_exp2,2022.2.4,59.83190823868518,
1000,1,0.0,3.7,1,0,75,75,75,,,,,248.0440567000187,248.69465010002023,248.69465010002023,249.17914399999427,315,315,249.17914399999427,249.17914399999427,249.17914399999427,249.17914399999427,249.17914399999427,249.17914399999427,249.17914399999427,249.17914399999427,249.17914399999427,249.54539420001674,249.54539420001674,249.54539420001674,249.54539420001674,249.54539420001674,249.54539420001674,249.54539420001674,249.54539420001674,249.54539420001674,4,3,"[0.0009817000245675445, 0.13332640001317486, 0.34996929997578263]","[0.08298850001301616, 0.33315660001244396, 0.3665883999783546]",249.54539420001674,249.74578880000627,1000,249.74578880000627,1000,1000,1000,1000,1,num_2,0.7047191999736242,,24,8,2026-03-04_15h51.44.014,2026A_exp2,2022.2.4,59.83190823868518,
1000,1,0.0,0.0,1,0,76,76,39,,,,,250.48007200000575,251.13023640000029,251.13023640000029,251.6315564000397,315,315,251.6315564000397,251.6315564000397,251.6315564000397,251.6315564000397,251.6315564000397,251.6315564000397,251.6315564000397,251.6315564000397,251.6315564000397,251.99785510002403,251.99785510002403,251.99785510002403,251.99785510002403,251.99785510002403,251.99785510002403,251.99785510002403,251.99785510002403,251.99785510002403,0,1,[0.0009131999686360359],[0.36703949997900054],251.99785510002403,252.1980881000054,1000,252.1980881000054,1000,1000,1000,1000,1,num_2,0.6275469999527559,,24,8,2026-03-04_15h51.44.014,2026A_exp2,2022.2.4,59.83190823868518,
1000,1,0.0,6.1,1,0,77,77,3,,,,,252.84889240004122,253.49937999999383,253.49937999999383,253.98362320003798,315,45,253.98362320003798,253.98362320003798,253.98362320003798,253.98362320003798,253.98362320003798,253.98362320003798,253.98362320003798,253.98362320003798,253.98362320003798,254.35012370004551,254.35012370004551,254.35012370004551,254.35012370004551,254.35012370004551,254.35012370004551,254.35012370004551,254.35012370004551,254.35012370004551,0,1,[0.0007940000505186617],[0.3671242000418715],254.35012370004551,254.55021320004016,1000,254.55021320004016,1000,1000,1000,1000,1,num_2,0.4916042000404559,,24,8,2026-03-04_15h51.44.014,2026A_exp2,2022.2.4,59.83190823868518,
1,0,6.1,6.1,0,0,78,78,11,,,,,255.06840730004478,255.7181725000264,255.7181725000264,256.2194318000111,45,315,256.2194318000111,256.2194318000111,256.2194318000111,256.2194318000111,256.2194318000111,256.2194318000111,256.2194318000111,256.2194318000111,256.2194318000111,256.56947000004584,256.56947000004584,256.56947000004584,256.56947000004584,256.56947000004584,256.56947000004584,256.56947000004584,256.56947000004584,256.56947000004584,0,1,[0.0007368000224232674],[0.3509055000031367],256.56947000004584,256.76932590000797,6.1,256.78575560002355,1,6.1,1,1,1000,num_4,0.7526211999938823,,24,8,2026-03-04_15h51.44.014,2026A_exp2,2022.2.4,59.83190823868518,
1000,1,0.0,6.1,0,0,79,79,83,,,,,257.5700251000235,258.2040857000393,258.2040857000393,258.7054703000467,45,315,258.7054703000467,258.7054703000467,258.7054703000467,258.7054703000467,258.7054703000467,258.7054703000467,258.7054703000467,258.7054703000467,258.7054703000467,259.0718372000265,259.0718372000265,259.0718372000265,259.0718372000265,259.0718372000265,259.0718372000265,259.0718372000265,259.0718372000265,259.0718372000265,5,3,"[0.0008251999970525503, 0.2502504999865778, 0.30024030001368374]","[0.23370679997606203, 0.2674756000051275, 0.35047150001628324]",259.0718372000265,259.2720746000414,1000,259.2720746000414,1000,1000,1000,1000,1,num_2,0.809930199990049,,24,8,2026-03-04_15h51.44.014,2026A_exp2,2022.2.4,59.83190823868518,
0,0,0.0,0.0,0,0,80,80,67,,,,,260.1062204000191,260.75661910005147,260.75661910005147,261.2580927000381,45,315,261.2580927000381,261.2580927000381,261.2580927000381,261.2580927000381,261.2580927000381,261.2580927000381,261.2580927000381,261.2580927000381,261.2580927000381,261.6239403000218,261.6239403000218,261.6239403000218,261.6239403000218,261.6239403000218,261.6239403000218,261.6239403000218,261.6239403000218,261.6239403000218,0,1,[0.0010097000049427152],[0.36683070001890883],261.6239403000218,261.8240842000232,0.0,261.8240842000232,1,0.0,0,0,1000,num_4,1.4982711999909952,,24,8,2026-03-04_15h51.44.014,2026A_exp2,2022.2.4,59.83190823868518,
1000,1,3.7,3.7,1,0,81,81,88,,,,,263.34329010004876,263.97752430004766,263.97752430004766,264.4941698000184,45,45,264.4941698000184,264.4941698000184,264.4941698000184,264.4941698000184,264.4941698000184,264.4941698000184,264.4941698000184,264.4941698000184,264.4941698000184,264.8444079000037,264.8444079000037,264.8444079000037,264.8444079000037,264.8444079000037,264.8444079000037,264.8444079000037,264.8444079000037,264.8444079000037,0,1,[0.0007176999934017658],[0.35134529997594655],264.8444079000037,265.0451935000019,1000,265.0451935000019,1000,1000,1000,1000,1,num_2,0.7490789000294171,,24,8,2026-03-04_15h51.44.014,2026A_exp2,2022.2.4,59.83190823868518,
1,0,6.1,0.0,1,0,82,82,38,,,,,265.8120615000371,266.4621910999995,266.4621910999995,266.9467341999989,45,315,266.9467341999989,266.9467341999989,266.9467341999989,266.9467341999989,266.9467341999989,266.9467341999989,266.9467341999989,266.9467341999989,266.9467341999989,267.31312780000735,267.31312780000735,267.31312780000735,267.31312780000735,267.31312780000735,267.31312780000735,267.31312780000735,267.31312780000735,267.31312780000735,0,1,[0.0007695999811403453],[0.3671654000063427],267.31312780000735,267.5135844000033,0.0,267.5135844000033,1,0.0,0,0,1000,num_4,1.120452800008934,,24,8,2026-03-04_15h51.44.014,2026A_exp2,2022.2.4,59.83190823868518,
1,0,4.9,0.0,1,0,83,83,48,,,,,268.6647212000098,269.2983598000137,269.2983598000137,269.7994838000159,45,45,269.7994838000159,269.7994838000159,269.7994838000159,269.7994838000159,269.7994838000159,269.7994838000159,269.7994838000159,269.7994838000159,269.7994838000159,270.16641830001026,270.16641830001026,270.16641830001026,270.16641830001026,270.16641830001026,270.16641830001026,270.16641830001026,270.16641830001026,270.16641830001026,0,1,[0.0007156999781727791],[0.36731100000906736],270.16641830001026,270.3662644000142,0.0,270.3662644000142,1,0.0,0,0,1000,num_4,1.548805500031449,,24,8,2026-03-04_15h51.44.014,2026A_exp2,2022.2.4,59.83190823868518,
0,0,3.7,3.7,0,0,84,84,63,,,,,271.934569700039,272.5852164000389,272.5852164000389,273.06980170001043,45,45,273.06980170001043,273.06980170001043,273.06980170001043,273.06980170001043,273.06980170001043,273.06980170001043,273.06980170001043,273.06980170001043,273.06980170001043,273.4359389000456,273.4359389000456,273.4359389000456,273.4359389000456,273.4359389000456,273.4359389000456,273.4359389000456,273.4359389000456,273.4359389000456,0,1,[0.0009227000409737229],[0.367140099988319],273.4359389000456,273.63613990001613,3.7,273.63613990001613,1,3.7,1,1,1000,num_4,0.6139999000006355,,24,8,2026-03-04_15h51.44.014,2026A_exp2,2022.2.4,59.83190823868518,
1,0,0.0,0.0,0,0,85,85,49,,,,,274.2701015000348,274.9044995000004,274.9044995000004,275.40513140003895,45,45,275.40513140003895,275.40513140003895,275.40513140003895,275.40513140003895,275.40513140003895,275.40513140003895,275.40513140003895,275.40513140003895,275.40513140003895,275.77175509999506,275.77175509999506,275.77175509999506,275.77175509999506,275.77175509999506,275.77175509999506,275.77175509999506,275.77175509999506,275.77175509999506,0,1,[0.0008004999835975468],[0.3673286000266671],275.77175509999506,275.97202300000936,0.0,275.97202300000936,1,0.0,0,0,1000,num_4,0.622044499963522,,24,8,2026-03-04_15h51.44.014,2026A_exp2,2022.2.4,59.83190823868518,
1000,1,6.1,3.7,0,0,86,86,61,,,,,276.6227392000146,277.2565072000143,277.2565072000143,277.7575210000505,315,45,277.7575210000505,277.7575210000505,277.7575210000505,277.7575210000505,277.7575210000505,277.7575210000505,277.7575210000505,277.7575210000505,277.7575210000505,278.123850700038,278.123850700038,278.123850700038,278.123850700038,278.123850700038,278.123850700038,278.123850700038,278.123850700038,278.123850700038,0,1,[0.0007454999722540379],[0.36712820001412183],278.123850700038,278.3243557999958,1000,278.3243557999958,1000,1000,1000,1000,0,num_3,0.6779215999995358,,24,8,2026-03-04_15h51.44.014,2026A_exp2,2022.2.4,59.83190823868518,
1000,1,0.0,4.9,0,0,87,87,27,,,,,279.02512760000536,279.675480600039,279.675480600039,280.16004460002296,45,45,280.16004460002296,280.16004460002296,280.16004460002296,280.16004460002296,280.16004460002296,280.16004460002296,280.16004460002296,280.16004460002296,280.16004460002296,280.526513800025,280.526513800025,280.526513800025,280.526513800025,280.526513800025,280.526513800025,280.526513800025,280.526513800025,280.526513800025,0,1,[0.0007474000449292362],[0.3675577000249177],280.526513800025,280.7269351000432,1000,280.7269351000432,1000,1000,1000,1000,1,num_2,0.6034925999701954,,24,8,2026-03-04_15h51.44.014,2026A_exp2,2022.2.4,59.83190823868518,
1,0,0.0,0.0,1,0,88,88,53,,,,,281.36109310004395,282.0112318000174,282.0112318000174,282.5120848000515,315,315,282.5120848000515,282.5120848000515,282.5120848000515,282.5120848000515,282.5120848000515,282.5120848000515,282.5120848000515,282.5120848000515,282.5120848000515,282.86174950003624,282.86174950003624,282.86174950003624,282.86174950003624,282.86174950003624,282.86174950003624,282.86174950003624,282.86174950003624,282.86174950003624,0,1,[0.0007949999999254942],[0.3507617999566719],282.86174950003624,283.0621189000085,0.0,283.0621189000085,0,0.0,0,1,1000,num_1,1.1321467999950983,,24,8,2026-03-04_15h51.44.014,2026A_exp2,2022.2.4,59.83190823868518,
1000,1,0.0,0.0,1,0,89,89,71,,,,,284.2134174000239,284.8473962999997,284.8473962999997,285.34868819999974,315,45,285.34868819999974,285.34868819999974,285.34868819999974,285.34868819999974,285.34868819999974,285.34868819999974,285.34868819999974,285.34868819999974,285.34868819999974,285.71505420003086,285.71505420003086,285.71505420003086,285.71505420003086,285.71505420003086,285.71505420003086,285.71505420003086,285.71505420003086,285.71505420003086,0,1,[0.0007191000040620565],[0.3673787000006996],285.71505420003086,285.9154901000438,1000,285.9154901000438,1000,1000,1000,1000,1,num_2,1.3747727000154555,,24,8,2026-03-04_15h51.44.014,2026A_exp2,2022.2.4,59.83190823868518,
,,,,,,,,,,,,,,,,,,,,,,,,,,,,,,,,,,,,,,,,,,,,,,,,,,,,287.3192202000064,,,,,,,
