validity,detectorcomp,contrastCW,contrastCCW,precueCWorCCW,block_80trials.thisRepN,block_80trials.thisTrialN,block_80trials.thisN,block_80trials.thisIndex,etRecord.started,etRecord.stopped,text.started,text.stopped,text_4.started,text_4.stopped,text_6.started,text_6.stopped,oriCW,oriCCW,roi_2.started,grating_UR.started,grating_UL.started,grating_LR.started,grating_LL.started,noise_UR.started,noise_UL.started,noise_LR.started,noise_LL.started,roi_2.stopped,grating_UR.stopped,grating_UL.stopped,grating_LR.stopped,grating_LL.stopped,noise_UR.stopped,noise_UL.stopped,noise_LR.stopped,noise_LL.stopped,outframe,roi_2.numLooks,roi_2.timesOn,roi_2.timesOff,text_2.started,text_2.stopped,probedcontrast,key_resp.started,respdetect,relevantContrast,correctDetect,TorFdetect,respCWorCCW,key_resp.keys,key_resp.rt,feedback_display_.started,participantNo,blockNo,date,expName,psychopyVersion,frameRate,
1,0,0.0,3.7,0,0,0,0,64,7.369997911155224e-05,7.369997911155224e-05,53.74715119996108,55.750887600006536,55.750887600006536,56.383688299916685,56.383688299916685,56.90323029994033,45,315,56.90323029994033,56.90323029994033,56.90323029994033,56.90323029994033,56.90323029994033,56.90323029994033,56.90323029994033,56.90323029994033,56.90323029994033,57.25136110000312,57.25136110000312,57.25136110000312,57.25136110000312,57.25136110000312,57.25136110000312,57.25136110000312,57.25136110000312,57.25136110000312,23,0,,,57.25136110000312,57.45141259999946,0.0,57.45141259999946,0,0.0,0,1,1000,num_1,0.5173142000567168,,30,15,2026-03-12_11h27.51.827,2026A_exp2,2022.2.4,59.960198438300935,
1,0,6.1,6.1,0,0,1,1,89,,,,,57.98552149999887,58.63017860008404,58.63017860008404,59.12500640004873,315,315,59.12500640004873,59.12500640004873,59.12500640004873,59.12500640004873,59.12500640004873,59.12500640004873,59.12500640004873,59.12500640004873,59.12500640004873,59.486754100071266,59.486754100071266,59.486754100071266,59.486754100071266,59.486754100071266,59.486754100071266,59.486754100071266,59.486754100071266,59.486754100071266,0,1,[0.00269329990260303],[0.3658188998233527],59.486754100071266,59.68691430008039,6.1,59.68691430008039,0,6.1,1,0,1000,num_1,0.4887755000963807,,30,15,2026-03-12_11h27.51.827,2026A_exp2,2022.2.4,59.960198438300935,
0,0,6.1,6.1,1,0,2,2,48,,,,,60.204256400000304,60.854942800011486,60.854942800011486,61.33927190001123,45,45,61.33927190001123,61.33927190001123,61.33927190001123,61.33927190001123,61.33927190001123,61.33927190001123,61.33927190001123,61.33927190001123,61.33927190001123,61.70573800010607,61.70573800010607,61.70573800010607,61.70573800010607,61.70573800010607,61.70573800010607,61.70573800010607,61.70573800010607,61.70573800010607,0,1,[0.0009981999173760414],[0.36719610006548464],61.70573800010607,61.90598249994218,6.1,61.90598249994218,1,6.1,1,1,1000,num_4,0.5903946000616997,,30,15,2026-03-12_11h27.51.827,2026A_exp2,2022.2.4,59.960198438300935,
1,0,6.1,0.0,0,0,3,3,77,,,,,62.52324489993043,63.17378879990429,63.17378879990429,63.658270499901846,315,45,63.658270499901846,63.658270499901846,63.658270499901846,63.658270499901846,63.658270499901846,63.658270499901846,63.658270499901846,63.658270499901846,63.658270499901846,64.02475410001352,64.02475410001352,64.02475410001352,64.02475410001352,64.02475410001352,64.02475410001352,64.02475410001352,64.02475410001352,64.02475410001352,0,1,[0.0012540998868644238],[0.36717909993603826],64.02475410001352,64.22511320002377,6.1,64.22511320002377,1,6.1,1,1,1000,num_4,0.3665587999857962,,30,15,2026-03-12_11h27.51.827,2026A_exp2,2022.2.4,59.960198438300935,
1,0,0.0,0.0,1,0,4,4,4,,,,,64.60881430003792,65.2592746000737,65.2592746000737,65.74360030004755,315,315,65.74360030004755,65.74360030004755,65.74360030004755,65.74360030004755,65.74360030004755,65.74360030004755,65.74360030004755,65.74360030004755,65.74360030004755,66.11017200001515,66.11017200001515,66.11017200001515,66.11017200001515,66.11017200001515,66.11017200001515,66.11017200001515,66.11017200001515,66.11017200001515,0,1,[0.0012290000449866056],[0.36692659999243915],66.11017200001515,66.31038490007631,0.0,66.31038490007631,1,0.0,0,0,1000,num_4,0.4182680998928845,,30,15,2026-03-12_11h27.51.827,2026A_exp2,2022.2.4,59.960198438300935,
1000,1,0.0,6.1,0,0,5,5,27,,,,,66.76074660010636,67.41132099996321,67.41132099996321,67.89589740009978,45,45,67.89589740009978,67.89589740009978,67.89589740009978,67.89589740009978,67.89589740009978,67.89589740009978,67.89589740009978,67.89589740009978,67.89589740009978,68.26244540000334,68.26244540000334,68.26244540000334,68.26244540000334,68.26244540000334,68.26244540000334,68.26244540000334,68.26244540000334,68.26244540000334,0,1,[0.0010861000046133995],[0.3674174000043422],68.26244540000334,68.46772540011443,1000,68.46772540011443,1000,1000,1000,1000,1,num_2,0.6199641998391598,,30,15,2026-03-12_11h27.51.827,2026A_exp2,2022.2.4,59.960198438300935,
1000,1,0.0,0.0,1,0,6,6,35,,,,,69.11319519998506,69.76372110005468,69.76372110005468,70.26494239992462,315,45,70.26494239992462,70.26494239992462,70.26494239992462,70.26494239992462,70.26494239992462,70.26494239992462,70.26494239992462,70.26494239992462,70.26494239992462,70.63129940000363,70.63129940000363,70.63129940000363,70.63129940000363,70.63129940000363,70.63129940000363,70.63129940000363,70.63129940000363,70.63129940000363,3,4,"[0.0012882000301033258, 0.21712009981274605, 0.2502798999194056, 0.2838257998228073]","[0.2001843999605626, 0.23340040002949536, 0.2672121999785304, 0.3671071999706328]",70.63129940000363,70.83373129996471,1000,70.83373129996471,1000,1000,1000,1000,1,num_2,0.6469169999472797,,30,15,2026-03-12_11h27.51.827,2026A_exp2,2022.2.4,59.960198438300935,
1,0,0.0,3.7,0,0,7,7,31,,,,,71.49867290002294,72.14961729990318,72.14961729990318,72.65066689997911,315,315,72.65066689997911,72.65066689997911,72.65066689997911,72.65066689997911,72.65066689997911,72.65066689997911,72.65066689997911,72.65066689997911,72.65066689997911,73.01708110002801,73.01708110002801,73.01708110002801,73.01708110002801,73.01708110002801,73.01708110002801,73.01708110002801,73.01708110002801,73.01708110002801,2,1,[0.0012319001834839582],[0.35061249998398125],73.01708110002801,73.21727470005862,0.0,73.21727470005862,0,0.0,0,1,1000,num_1,0.5428277999162674,,30,15,2026-03-12_11h27.51.827,2026A_exp2,2022.2.4,59.960198438300935,
1000,1,0.0,4.9,0,0,8,8,23,,,,,73.78441169997677,74.41840690001845,74.41840690001845,74.91945960000157,315,45,74.91945960000157,74.91945960000157,74.91945960000157,74.91945960000157,74.91945960000157,74.91945960000157,74.91945960000157,74.91945960000157,74.91945960000157,75.28591180010699,75.28591180010699,75.28591180010699,75.28591180010699,75.28591180010699,75.28591180010699,75.28591180010699,75.28591180010699,75.28591180010699,5,2,"[0.0012661998625844717, 0.18357979995198548]","[0.16700479993596673, 0.31705389986746013]",75.28591180010699,75.48860160005279,1000,75.48860160005279,1000,1000,1000,1000,1,num_2,0.6399488998576999,,30,15,2026-03-12_11h27.51.827,2026A_exp2,2022.2.4,59.960198438300935,
0,0,6.1,4.9,1,0,9,9,42,,,,,76.15353160002269,76.78738879994489,76.78738879994489,77.28861719998531,315,45,77.28861719998531,77.28861719998531,77.28861719998531,77.28861719998531,77.28861719998531,77.28861719998531,77.28861719998531,77.28861719998531,77.28861719998531,77.65497480006889,77.65497480006889,77.65497480006889,77.65497480006889,77.65497480006889,77.65497480006889,77.65497480006889,77.65497480006889,77.65497480006889,23,0,,,77.65497480006889,77.85507409996353,6.1,77.85507409996353,1,6.1,1,1,1000,num_4,0.40119129978120327,,30,15,2026-03-12_11h27.51.827,2026A_exp2,2022.2.4,59.960198438300935,
1000,1,4.9,0.0,1,0,10,10,84,,,,,78.27217680006288,78.92303270008415,78.92303270008415,79.40743919997476,45,45,79.40743919997476,79.40743919997476,79.40743919997476,79.40743919997476,79.40743919997476,79.40743919997476,79.40743919997476,79.40743919997476,79.40743919997476,79.77386209997348,79.77386209997348,79.77386209997348,79.77386209997348,79.77386209997348,79.77386209997348,79.77386209997348,79.77386209997348,79.77386209997348,20,1,[0.0012626999523490667],[0.0500318999402225],79.77386209997348,79.97412419994362,1000,79.97412419994362,1000,1000,1000,1000,0,num_3,0.6337935000192374,,30,15,2026-03-12_11h27.51.827,2026A_exp2,2022.2.4,59.960198438300935,
1000,1,4.9,0.0,0,0,11,11,12,,,,,80.62466039997526,81.2749310999643,81.2749310999643,81.77635010005906,315,45,81.77635010005906,81.77635010005906,81.77635010005906,81.77635010005906,81.77635010005906,81.77635010005906,81.77635010005906,81.77635010005906,81.77635010005906,82.1428296000231,82.1428296000231,82.1428296000231,82.1428296000231,82.1428296000231,82.1428296000231,82.1428296000231,82.1428296000231,82.1428296000231,23,0,,,82.1428296000231,82.34534060000442,1000,82.34534060000442,1000,1000,1000,1000,0,num_3,0.5512081999331713,,30,15,2026-03-12_11h27.51.827,2026A_exp2,2022.2.4,59.960198438300935,
1,0,0.0,4.9,1,0,12,12,73,,,,,82.92681320011616,83.57762120012194,83.57762120012194,84.0785743999295,315,45,84.0785743999295,84.0785743999295,84.0785743999295,84.0785743999295,84.0785743999295,84.0785743999295,84.0785743999295,84.0785743999295,84.0785743999295,84.42941899993457,84.42941899993457,84.42941899993457,84.42941899993457,84.42941899993457,84.42941899993457,84.42941899993457,84.42941899993457,84.42941899993457,22,0,,,84.42941899993457,84.64350489992648,4.9,84.64350489992648,1,4.9,1,1,1000,num_4,1.2205470001790673,,30,15,2026-03-12_11h27.51.827,2026A_exp2,2022.2.4,59.960198438300935,
0,0,0.0,6.1,1,0,13,13,46,,,,,85.87972460011952,86.53059209999628,86.53059209999628,87.01503490004689,45,315,87.01503490004689,87.01503490004689,87.01503490004689,87.01503490004689,87.01503490004689,87.01503490004689,87.01503490004689,87.01503490004689,87.01503490004689,87.38144939998165,87.38144939998165,87.38144939998165,87.38144939998165,87.38144939998165,87.38144939998165,87.38144939998165,87.38144939998165,87.38144939998165,0,1,[0.0012676999904215336],[0.3670958001166582],87.38144939998165,87.58160090004094,0.0,87.58160090004094,0,0.0,0,1,1000,num_1,0.6023419999983162,,30,15,2026-03-12_11h27.51.827,2026A_exp2,2022.2.4,59.960198438300935,
1000,1,0.0,3.7,1,0,14,14,67,,,,,88.21577459992841,88.86629320005886,88.86629320005886,89.3672887000721,45,315,89.3672887000721,89.3672887000721,89.3672887000721,89.3672887000721,89.3672887000721,89.3672887000721,89.3672887000721,89.3672887000721,89.3672887000721,89.71709519997239,89.71709519997239,89.71709519997239,89.71709519997239,89.71709519997239,89.71709519997239,89.71709519997239,89.71709519997239,89.71709519997239,0,1,[0.001235899981111288],[0.35060570016503334],89.71709519997239,89.91967869992368,1000,89.91967869992368,1000,1000,1000,1000,1,num_2,0.7442652999889106,,30,15,2026-03-12_11h27.51.827,2026A_exp2,2022.2.4,59.960198438300935,
1,0,0.0,4.9,1,0,15,15,41,,,,,90.6848667000886,91.33537159999833,91.33537159999833,91.81965600000694,315,45,91.81965600000694,91.81965600000694,91.81965600000694,91.81965600000694,91.81965600000694,91.81965600000694,91.81965600000694,91.81965600000694,91.81965600000694,92.18622329994105,92.18622329994105,92.18622329994105,92.18622329994105,92.18622329994105,92.18622329994105,92.18622329994105,92.18622329994105,92.18622329994105,0,1,[0.0012953998520970345],[0.3670634999871254],92.18622329994105,92.38645930006169,4.9,92.38645930006169,0,4.9,1,0,1000,num_1,0.7656857001129538,,30,15,2026-03-12_11h27.51.827,2026A_exp2,2022.2.4,59.960198438300935,
1,0,3.7,6.1,1,0,16,16,75,,,,,93.17029720009305,93.82105990010314,93.82105990010314,94.30550729995593,315,315,94.30550729995593,94.30550729995593,94.30550729995593,94.30550729995593,94.30550729995593,94.30550729995593,94.30550729995593,94.30550729995593,94.30550729995593,94.67211510008201,94.67211510008201,94.67211510008201,94.67211510008201,94.67211510008201,94.67211510008201,94.67211510008201,94.67211510008201,94.67211510008201,3,1,[0.0012382001150399446],[0.3339605999644846],94.67211510008201,94.87210049992427,6.1,94.87210049992427,1,6.1,1,1,1000,num_4,0.3284954000264406,,30,15,2026-03-12_11h27.51.827,2026A_exp2,2022.2.4,59.960198438300935,
0,0,0.0,0.0,1,0,17,17,80,,,,,95.222505700076,95.8733161999844,95.8733161999844,96.35758400009945,45,315,96.35758400009945,96.35758400009945,96.35758400009945,96.35758400009945,96.35758400009945,96.35758400009945,96.35758400009945,96.35758400009945,96.35758400009945,96.72414129995741,96.72414129995741,96.72414129995741,96.72414129995741,96.72414129995741,96.72414129995741,96.72414129995741,96.72414129995741,96.72414129995741,0,1,[0.0012336999643594027],[0.3673036000691354],96.72414129995741,96.92436149995774,0.0,96.92436149995774,0,0.0,0,1,1000,num_1,0.26023099990561604,,30,15,2026-03-12_11h27.51.827,2026A_exp2,2022.2.4,59.960198438300935,
1000,1,6.1,0.0,0,0,18,18,69,,,,,97.20774720003828,97.85887790005654,97.85887790005654,98.34284740011208,45,45,98.34284740011208,98.34284740011208,98.34284740011208,98.34284740011208,98.34284740011208,98.34284740011208,98.34284740011208,98.34284740011208,98.34284740011208,98.70943060005084,98.70943060005084,98.70943060005084,98.70943060005084,98.70943060005084,98.70943060005084,98.70943060005084,98.70943060005084,98.70943060005084,0,1,[0.0013039999175816774],[0.3671295999083668],98.70943060005084,98.91201400011778,1000,98.91201400011778,1000,1000,1000,1000,0,num_3,0.5996985998935997,,30,15,2026-03-12_11h27.51.827,2026A_exp2,2022.2.4,59.960198438300935,
1000,1,6.1,4.9,1,0,19,19,15,,,,,99.5268021998927,100.1775662000291,100.1775662000291,100.67842309991829,45,315,100.67842309991829,100.67842309991829,100.67842309991829,100.67842309991829,100.67842309991829,100.67842309991829,100.67842309991829,100.67842309991829,100.67842309991829,101.0452141999267,101.0452141999267,101.0452141999267,101.0452141999267,101.0452141999267,101.0452141999267,101.0452141999267,101.0452141999267,101.0452141999267,23,0,,,101.0452141999267,101.2498109000735,1000,101.2498109000735,1000,1000,1000,1000,1,num_2,0.9977168999612331,,30,15,2026-03-12_11h27.51.827,2026A_exp2,2022.2.4,59.960198438300935,
1000,1,0.0,3.7,0,0,20,20,50,,,,,102.26304089999758,102.91363559989259,102.91363559989259,103.4146678999532,315,315,103.4146678999532,103.4146678999532,103.4146678999532,103.4146678999532,103.4146678999532,103.4146678999532,103.4146678999532,103.4146678999532,103.4146678999532,103.78109539998695,103.78109539998695,103.78109539998695,103.78109539998695,103.78109539998695,103.78109539998695,103.78109539998695,103.78109539998695,103.78109539998695,16,1,[0.0012601001653820276],[0.11683360021561384],103.78109539998695,103.98329099989496,1000,103.98329099989496,1000,1000,1000,1000,1,num_2,0.5289400999899954,,30,15,2026-03-12_11h27.51.827,2026A_exp2,2022.2.4,59.960198438300935,
1,0,4.9,6.1,1,0,21,21,36,,,,,104.5317548001185,105.18251610011794,105.18251610011794,105.68352079996839,45,45,105.68352079996839,105.68352079996839,105.68352079996839,105.68352079996839,105.68352079996839,105.68352079996839,105.68352079996839,105.68352079996839,105.68352079996839,106.05011390009895,106.05011390009895,106.05011390009895,106.05011390009895,106.05011390009895,106.05011390009895,106.05011390009895,106.05011390009895,106.05011390009895,23,0,,,106.05011390009895,106.25024969992228,6.1,106.25024969992228,1,6.1,1,1,1000,num_4,0.7016843999736011,,30,15,2026-03-12_11h27.51.827,2026A_exp2,2022.2.4,59.960198438300935,
1,0,6.1,6.1,1,0,22,22,49,,,,,106.96752079995349,107.61831249995157,107.61831249995157,108.10278260009363,315,315,108.10278260009363,108.10278260009363,108.10278260009363,108.10278260009363,108.10278260009363,108.10278260009363,108.10278260009363,108.10278260009363,108.10278260009363,108.46923130005598,108.46923130005598,108.46923130005598,108.46923130005598,108.46923130005598,108.46923130005598,108.46923130005598,108.46923130005598,108.46923130005598,23,0,,,108.46923130005598,108.66939459997229,6.1,108.66939459997229,1,6.1,1,1,1000,num_4,0.6668606998864561,,30,15,2026-03-12_11h27.51.827,2026A_exp2,2022.2.4,59.960198438300935,
1,0,3.7,0.0,0,0,23,23,3,,,,,109.35322570009157,110.00412550009787,110.00412550009787,110.48849239991978,45,315,110.48849239991978,110.48849239991978,110.48849239991978,110.48849239991978,110.48849239991978,110.48849239991978,110.48849239991978,110.48849239991978,110.48849239991978,110.85468979994766,110.85468979994766,110.85468979994766,110.85468979994766,110.85468979994766,110.85468979994766,110.85468979994766,110.85468979994766,110.85468979994766,23,0,,,110.85468979994766,111.0552606000565,3.7,111.0552606000565,1,3.7,1,1,1000,num_4,0.9295314999762923,,30,15,2026-03-12_11h27.51.827,2026A_exp2,2022.2.4,59.960198438300935,
1,0,0.0,0.0,1,0,24,24,66,,,,,112.00578629993834,112.65659540006891,112.65659540006891,113.14122719992884,45,315,113.14122719992884,113.14122719992884,113.14122719992884,113.14122719992884,113.14122719992884,113.14122719992884,113.14122719992884,113.14122719992884,113.14122719992884,113.5074640000239,113.5074640000239,113.5074640000239,113.5074640000239,113.5074640000239,113.5074640000239,113.5074640000239,113.5074640000239,113.5074640000239,23,0,,,113.5074640000239,113.70785799995065,0.0,113.70785799995065,0,0.0,0,1,1000,num_1,0.293240699917078,,30,15,2026-03-12_11h27.51.827,2026A_exp2,2022.2.4,59.960198438300935,
0,0,0.0,4.9,0,0,25,25,65,,,,,114.02473730011843,114.67529870010912,114.67529870010912,115.17641520011239,315,45,115.17641520011239,115.17641520011239,115.17641520011239,115.17641520011239,115.17641520011239,115.17641520011239,115.17641520011239,115.17641520011239,115.17641520011239,115.54282539989799,115.54282539989799,115.54282539989799,115.54282539989799,115.54282539989799,115.54282539989799,115.54282539989799,115.54282539989799,115.54282539989799,11,2,"[0.0009693000465631485, 0.15054720011539757]","[0.11737990006804466, 0.23413800005801022]",115.54282539989799,115.74296750011854,4.9,115.74296750011854,1,4.9,1,1,1000,num_4,0.32979930005967617,,30,15,2026-03-12_11h27.51.827,2026A_exp2,2022.2.4,59.960198438300935,
1,0,6.1,3.7,1,0,26,26,83,,,,,116.09351289994083,116.72748550004326,116.72748550004326,117.22837519994937,45,315,117.22837519994937,117.22837519994937,117.22837519994937,117.22837519994937,117.22837519994937,117.22837519994937,117.22837519994937,117.22837519994937,117.22837519994937,117.59493239992298,117.59493239992298,117.59493239992298,117.59493239992298,117.59493239992298,117.59493239992298,117.59493239992298,117.59493239992298,117.59493239992298,23,0,,,117.59493239992298,117.79514089995064,3.7,117.79514089995064,1,3.7,1,1,1000,num_4,0.5331187001429498,,30,15,2026-03-12_11h27.51.827,2026A_exp2,2022.2.4,59.960198438300935,
1000,1,0.0,0.0,1,0,27,27,44,,,,,118.34554279991426,118.99618580006063,118.99618580006063,119.48086929996498,315,45,119.48086929996498,119.48086929996498,119.48086929996498,119.48086929996498,119.48086929996498,119.48086929996498,119.48086929996498,119.48086929996498,119.48086929996498,119.84722870006226,119.84722870006226,119.84722870006226,119.84722870006226,119.84722870006226,119.84722870006226,119.84722870006226,119.84722870006226,119.84722870006226,23,0,,,119.84722870006226,120.04988169996068,1000,120.04988169996068,1000,1000,1000,1000,1,num_2,0.5750997001305223,,30,15,2026-03-12_11h27.51.827,2026A_exp2,2022.2.4,59.960198438300935,
1000,1,3.7,0.0,0,0,28,28,55,,,,,120.64792399993166,121.2986143999733,121.2986143999733,121.79979639989324,315,315,121.79979639989324,121.79979639989324,121.79979639989324,121.79979639989324,121.79979639989324,121.79979639989324,121.79979639989324,121.79979639989324,121.79979639989324,122.16616509994492,122.16616509994492,122.16616509994492,122.16616509994492,122.16616509994492,122.16616509994492,122.16616509994492,122.16616509994492,122.16616509994492,22,1,[0.0012664999812841415],[0.017605500062927604],122.16616509994492,122.36893319990486,1000,122.36893319990486,1000,1000,1000,1000,0,num_3,0.6706062001176178,,30,15,2026-03-12_11h27.51.827,2026A_exp2,2022.2.4,59.960198438300935,
0,0,0.0,4.9,1,0,29,29,0,,,,,123.06697009992786,123.72060570004396,123.72060570004396,124.22392689995468,45,45,124.22392689995468,124.22392689995468,124.22392689995468,124.22392689995468,124.22392689995468,124.22392689995468,124.22392689995468,124.22392689995468,124.22392689995468,124.58536459994502,124.58536459994502,124.58536459994502,124.58536459994502,124.58536459994502,124.58536459994502,124.58536459994502,124.58536459994502,124.58536459994502,19,1,[0.002662499900907278],[0.06577089987695217],124.58536459994502,124.78536020009778,0.0,124.78536020009778,0,0.0,0,1,1000,num_1,0.8235338001977652,,30,15,2026-03-12_11h27.51.827,2026A_exp2,2022.2.4,59.960198438300935,
1000,1,0.0,4.9,1,0,30,30,72,,,,,125.63618810009211,126.28699219995178,126.28699219995178,126.77143480000086,315,315,126.77143480000086,126.77143480000086,126.77143480000086,126.77143480000086,126.77143480000086,126.77143480000086,126.77143480000086,126.77143480000086,126.77143480000086,127.13789219991304,127.13789219991304,127.13789219991304,127.13789219991304,127.13789219991304,127.13789219991304,127.13789219991304,127.13789219991304,127.13789219991304,19,1,[0.0012727000284940004],[0.06663310015574098],127.13789219991304,127.34015180007555,1000,127.34015180007555,1000,1000,1000,1000,1,num_2,0.6035802001133561,,30,15,2026-03-12_11h27.51.827,2026A_exp2,2022.2.4,59.960198438300935,
1,0,3.7,3.7,0,0,31,31,8,,,,,127.97207390004769,128.6226949999109,128.6226949999109,129.12372969998978,45,315,129.12372969998978,129.12372969998978,129.12372969998978,129.12372969998978,129.12372969998978,129.12372969998978,129.12372969998978,129.12372969998978,129.12372969998978,129.4902482999023,129.4902482999023,129.4902482999023,129.4902482999023,129.4902482999023,129.4902482999023,129.4902482999023,129.4902482999023,129.4902482999023,23,0,,,129.4902482999023,129.69034139998257,3.7,129.69034139998257,0,3.7,1,0,1000,num_1,0.5732460001017898,,30,15,2026-03-12_11h27.51.827,2026A_exp2,2022.2.4,59.960198438300935,
1,0,3.7,0.0,0,0,32,32,9,,,,,130.29083209997043,130.94160580006428,130.94160580006428,131.42606780002825,45,315,131.42606780002825,131.42606780002825,131.42606780002825,131.42606780002825,131.42606780002825,131.42606780002825,131.42606780002825,131.42606780002825,131.42606780002825,131.7925416000653,131.7925416000653,131.7925416000653,131.7925416000653,131.7925416000653,131.7925416000653,131.7925416000653,131.7925416000653,131.7925416000653,23,0,,,131.7925416000653,131.99274079990573,3.7,131.99274079990573,0,3.7,1,0,1000,num_1,0.8081068999599665,,30,15,2026-03-12_11h27.51.827,2026A_exp2,2022.2.4,59.960198438300935,
1,0,3.7,0.0,0,0,33,33,7,,,,,132.82684620004147,133.4775382000953,133.4775382000953,133.96184160001576,45,315,133.96184160001576,133.96184160001576,133.96184160001576,133.96184160001576,133.96184160001576,133.96184160001576,133.96184160001576,133.96184160001576,133.96184160001576,134.32839210005477,134.32839210005477,134.32839210005477,134.32839210005477,134.32839210005477,134.32839210005477,134.32839210005477,134.32839210005477,134.32839210005477,23,0,,,134.32839210005477,134.52859849995002,3.7,134.52859849995002,0,3.7,1,0,1000,num_1,0.18299000011757016,,30,15,2026-03-12_11h27.51.827,2026A_exp2,2022.2.4,59.960198438300935,
0,0,4.9,6.1,1,0,34,34,70,,,,,134.7285833999049,135.3793933999259,135.3793933999259,135.88042120006867,315,315,135.88042120006867,135.88042120006867,135.88042120006867,135.88042120006867,135.88042120006867,135.88042120006867,135.88042120006867,135.88042120006867,135.88042120006867,136.23024800000712,136.23024800000712,136.23024800000712,136.23024800000712,136.23024800000712,136.23024800000712,136.23024800000712,136.23024800000712,136.23024800000712,14,1,[0.0009785001166164875],[0.1341224000789225],136.23024800000712,136.43050329992548,4.9,136.43050329992548,1,4.9,1,1,1000,num_4,0.897787099936977,,30,15,2026-03-12_11h27.51.827,2026A_exp2,2022.2.4,59.960198438300935,
1,0,0.0,0.0,1,0,35,35,58,,,,,137.3478753999807,137.99866340006702,137.99866340006702,138.4831834998913,45,45,138.4831834998913,138.4831834998913,138.4831834998913,138.4831834998913,138.4831834998913,138.4831834998913,138.4831834998913,138.4831834998913,138.4831834998913,138.8495386999566,138.8495386999566,138.8495386999566,138.8495386999566,138.8495386999566,138.8495386999566,138.8495386999566,138.8495386999566,138.8495386999566,0,1,[0.0012553001288324594],[0.36711549991741776],138.8495386999566,139.04984050011262,0.0,139.04984050011262,0,0.0,0,1,1000,num_1,0.254054999910295,,30,15,2026-03-12_11h27.51.827,2026A_exp2,2022.2.4,59.960198438300935,
1000,1,4.9,0.0,1,0,36,36,56,,,,,139.33322470006533,139.98387839994393,139.98387839994393,140.4683799999766,45,45,140.4683799999766,140.4683799999766,140.4683799999766,140.4683799999766,140.4683799999766,140.4683799999766,140.4683799999766,140.4683799999766,140.4683799999766,140.83485340001062,140.83485340001062,140.83485340001062,140.83485340001062,140.83485340001062,140.83485340001062,140.83485340001062,140.83485340001062,140.83485340001062,18,1,[0.001269900007173419],[0.08359259995631874],140.83485340001062,141.03741899994202,1000,141.03741899994202,1000,1000,1000,1000,0,num_3,0.9703540999908,,30,15,2026-03-12_11h27.51.827,2026A_exp2,2022.2.4,59.960198438300935,
1000,1,0.0,4.9,1,0,37,37,57,,,,,142.03596869995818,142.68666090001352,142.68666090001352,143.18778340006247,45,45,143.18778340006247,143.18778340006247,143.18778340006247,143.18778340006247,143.18778340006247,143.18778340006247,143.18778340006247,143.18778340006247,143.18778340006247,143.55429330002517,143.55429330002517,143.55429330002517,143.55429330002517,143.55429330002517,143.55429330002517,143.55429330002517,143.55429330002517,143.55429330002517,4,4,"[0.001299200113862753, 0.1501680000219494, 0.31702479999512434, 0.3670208998955786]","[0.13364990008994937, 0.28364629996940494, 0.35033440007828176, 0.36702540004625916]",143.55429330002517,143.75457009999081,1000,143.75457009999081,1000,1000,1000,1000,1,num_2,0.9260652998927981,,30,15,2026-03-12_11h27.51.827,2026A_exp2,2022.2.4,59.960198438300935,
1000,1,4.9,0.0,0,0,38,38,45,,,,,144.7052539999131,145.3560530000832,145.3560530000832,145.85705030011013,315,45,145.85705030011013,145.85705030011013,145.85705030011013,145.85705030011013,145.85705030011013,145.85705030011013,145.85705030011013,145.85705030011013,145.85705030011013,146.22338779992424,146.22338779992424,146.22338779992424,146.22338779992424,146.22338779992424,146.22338779992424,146.22338779992424,146.22338779992424,146.22338779992424,0,1,[0.001299800118431449],[0.3672480001114309],146.22338779992424,146.4245919000823,1000,146.4245919000823,1000,1000,1000,1000,0,num_3,1.447707099840045,,30,15,2026-03-12_11h27.51.827,2026A_exp2,2022.2.4,59.960198438300935,
1000,1,0.0,0.0,1,0,39,39,63,,,,,147.89187379996292,148.54253960005008,148.54253960005008,149.04374239989556,315,45,149.04374239989556,149.04374239989556,149.04374239989556,149.04374239989556,149.04374239989556,149.04374239989556,149.04374239989556,149.04374239989556,149.04374239989556,149.41006139991805,149.41006139991805,149.41006139991805,149.41006139991805,149.41006139991805,149.41006139991805,149.41006139991805,149.41006139991805,149.41006139991805,20,1,[0.0013248000759631395],[0.04960589995607734],149.41006139991805,149.6124138000887,1000,149.6124138000887,1000,1000,1000,1000,1,num_2,0.5077834001276642,,30,15,2026-03-12_11h27.51.827,2026A_exp2,2022.2.4,59.960198438300935,
1,0,0.0,0.0,0,0,40,40,39,,,,,150.14403950003907,150.79481830005534,150.79481830005534,151.29588080011308,45,315,151.29588080011308,151.29588080011308,151.29588080011308,151.29588080011308,151.29588080011308,151.29588080011308,151.29588080011308,151.29588080011308,151.29588080011308,151.66225229995325,151.66225229995325,151.66225229995325,151.66225229995325,151.66225229995325,151.66225229995325,151.66225229995325,151.66225229995325,151.66225229995325,20,1,[0.001263400074094534],[0.05016799992881715],151.66225229995325,151.86250000004657,0.0,151.86250000004657,0,0.0,0,1,1000,num_1,0.7064978000707924,,30,15,2026-03-12_11h27.51.827,2026A_exp2,2022.2.4,59.960198438300935,
1,0,0.0,0.0,0,0,41,41,61,,,,,152.59649030002765,153.24687990010716,153.24687990010716,153.73159640002996,315,315,153.73159640002996,153.73159640002996,153.73159640002996,153.73159640002996,153.73159640002996,153.73159640002996,153.73159640002996,153.73159640002996,153.73159640002996,154.09805119992234,154.09805119992234,154.09805119992234,154.09805119992234,154.09805119992234,154.09805119992234,154.09805119992234,154.09805119992234,154.09805119992234,1,1,[0.0012296000495553017],[0.36724120005965233],154.09805119992234,154.29834389989264,0.0,154.29834389989264,0,0.0,0,1,1000,num_1,0.261905400082469,,30,15,2026-03-12_11h27.51.827,2026A_exp2,2022.2.4,59.960198438300935,
1,0,0.0,0.0,0,0,42,42,22,,,,,154.58203950012103,155.2157976999879,155.2157976999879,155.71696370001882,45,315,155.71696370001882,155.71696370001882,155.71696370001882,155.71696370001882,155.71696370001882,155.71696370001882,155.71696370001882,155.71696370001882,155.71696370001882,156.08343459991738,156.08343459991738,156.08343459991738,156.08343459991738,156.08343459991738,156.08343459991738,156.08343459991738,156.08343459991738,156.08343459991738,2,3,"[0.0012564999051392078, 0.21705259988084435, 0.2504515000618994]","[0.20046399999409914, 0.23373360000550747, 0.36728219990618527]",156.08343459991738,156.28345289989375,0.0,156.28345289989375,0,0.0,0,1,1000,num_1,0.22842400008812547,,30,15,2026-03-12_11h27.51.827,2026A_exp2,2022.2.4,59.960198438300935,
1000,1,4.9,0.0,0,0,43,43,37,,,,,156.53401360008866,157.1843644999899,157.1843644999899,157.66895069996826,315,315,157.66895069996826,157.66895069996826,157.66895069996826,157.66895069996826,157.66895069996826,157.66895069996826,157.66895069996826,157.66895069996826,157.66895069996826,158.03531630011275,158.03531630011275,158.03531630011275,158.03531630011275,158.03531630011275,158.03531630011275,158.03531630011275,158.03531630011275,158.03531630011275,3,1,[0.05029459996148944],[0.3671277000103146],158.03531630011275,158.23740720003843,1000,158.23740720003843,1000,1000,1000,1000,0,num_3,0.45842639985494316,,30,15,2026-03-12_11h27.51.827,2026A_exp2,2022.2.4,59.960198438300935,
1,0,4.9,0.0,0,0,44,44,47,,,,,158.71946449996904,159.36983059998602,159.36983059998602,159.871215299936,315,315,159.871215299936,159.871215299936,159.871215299936,159.871215299936,159.871215299936,159.871215299936,159.871215299936,159.871215299936,159.871215299936,160.23765729996376,160.23765729996376,160.23765729996376,160.23765729996376,160.23765729996376,160.23765729996376,160.23765729996376,160.23765729996376,160.23765729996376,0,1,[0.0012223999947309494],[0.36713390005752444],160.23765729996376,160.43772469996475,4.9,160.43772469996475,1,4.9,1,1,1000,num_4,1.1953023998066783,,30,15,2026-03-12_11h27.51.827,2026A_exp2,2022.2.4,59.960198438300935,
1000,1,4.9,3.7,0,0,45,45,40,,,,,161.65551539999433,162.30637670005672,162.30637670005672,162.79072350007482,315,315,162.79072350007482,162.79072350007482,162.79072350007482,162.79072350007482,162.79072350007482,162.79072350007482,162.79072350007482,162.79072350007482,162.79072350007482,163.15719519997947,163.15719519997947,163.15719519997947,163.15719519997947,163.15719519997947,163.15719519997947,163.15719519997947,163.15719519997947,163.15719519997947,0,1,[0.0009101999457925558],[0.36718699987977743],163.15719519997947,163.35987129993737,1000,163.35987129993737,1000,1000,1000,1000,1,num_2,0.7370586998295039,,30,15,2026-03-12_11h27.51.827,2026A_exp2,2022.2.4,59.960198438300935,
0,0,0.0,4.9,1,0,46,46,33,,,,,164.12486979993992,164.7755509999115,164.7755509999115,165.27639360004105,315,315,165.27639360004105,165.27639360004105,165.27639360004105,165.27639360004105,165.27639360004105,165.27639360004105,165.27639360004105,165.27639360004105,165.27639360004105,165.64302590000443,165.64302590000443,165.64302590000443,165.64302590000443,165.64302590000443,165.64302590000443,165.64302590000443,165.64302590000443,165.64302590000443,6,3,"[0.0012205000966787338, 0.23361700004898012, 0.33370010019280016]","[0.21673030010424554, 0.25044190022163093, 0.36708590015769005]",165.64302590000443,165.84317249991,0.0,165.84317249991,0,0.0,0,1,1000,num_1,0.7013135000597686,,30,15,2026-03-12_11h27.51.827,2026A_exp2,2022.2.4,59.960198438300935,
1000,1,3.7,4.9,0,0,47,47,25,,,,,166.56042340002023,167.21121750003658,167.21121750003658,167.69559899996966,45,315,167.69559899996966,167.69559899996966,167.69559899996966,167.69559899996966,167.69559899996966,167.69559899996966,167.69559899996966,167.69559899996966,167.69559899996966,168.06212690006942,168.06212690006942,168.06212690006942,168.06212690006942,168.06212690006942,168.06212690006942,168.06212690006942,168.06212690006942,168.06212690006942,0,1,[0.0012566999066621065],[0.3672921999823302],168.06212690006942,168.26481599989347,1000,168.26481599989347,1000,1000,1000,1000,1,num_2,0.551117799943313,,30,15,2026-03-12_11h27.51.827,2026A_exp2,2022.2.4,59.960198438300935,
1000,1,3.7,0.0,1,0,48,48,19,,,,,168.846087400103,169.49683229997754,169.49683229997754,169.99800119991414,315,315,169.99800119991414,169.99800119991414,169.99800119991414,169.99800119991414,169.99800119991414,169.99800119991414,169.99800119991414,169.99800119991414,169.99800119991414,170.36441290006042,170.36441290006042,170.36441290006042,170.36441290006042,170.36441290006042,170.36441290006042,170.36441290006042,170.36441290006042,170.36441290006042,21,2,"[0.2169929000083357, 0.3670465999748558]","[0.2336649999488145, 0.3670512998942286]",170.36441290006042,170.56690360000357,1000,170.56690360000357,1000,1000,1000,1000,0,num_3,1.0815774998627603,,30,15,2026-03-12_11h27.51.827,2026A_exp2,2022.2.4,59.960198438300935,
1,0,0.0,3.7,1,0,49,49,30,,,,,171.665615899954,172.31640059989877,172.31640059989877,172.8174254000187,45,315,172.8174254000187,172.8174254000187,172.8174254000187,172.8174254000187,172.8174254000187,172.8174254000187,172.8174254000187,172.8174254000187,172.8174254000187,173.18383729993366,173.18383729993366,173.18383729993366,173.18383729993366,173.18383729993366,173.18383729993366,173.18383729993366,173.18383729993366,173.18383729993366,0,1,[0.0012507999781519175],[0.36686179996468127],173.18383729993366,173.38397639989853,3.7,173.38397639989853,1,3.7,1,1,1000,num_4,0.6483984000515193,,30,15,2026-03-12_11h27.51.827,2026A_exp2,2022.2.4,59.960198438300935,
1,0,0.0,3.7,0,0,50,50,76,,,,,174.05123539990745,174.70201930007897,174.70201930007897,175.20298389997333,315,45,175.20298389997333,175.20298389997333,175.20298389997333,175.20298389997333,175.20298389997333,175.20298389997333,175.20298389997333,175.20298389997333,175.20298389997333,175.55286079994403,175.55286079994403,175.55286079994403,175.55286079994403,175.55286079994403,175.55286079994403,175.55286079994403,175.55286079994403,175.55286079994403,5,6,"[0.0012739000376313925, 0.06669020000845194, 0.11673300014808774, 0.15012659993954003, 0.3003648000303656, 0.3336368000600487]","[0.05008760001510382, 0.1000747000798583, 0.13355130003765225, 0.28355990001000464, 0.3169134999625385, 0.35033789998851717]",175.55286079994403,175.75280579994433,0.0,175.75280579994433,0,0.0,0,1,1000,num_1,0.2068409000057727,,30,15,2026-03-12_11h27.51.827,2026A_exp2,2022.2.4,59.960198438300935,
1,0,0.0,0.0,0,0,51,51,32,,,,,175.98644639994018,176.62047760002315,176.62047760002315,177.12233759998344,315,315,177.12233759998344,177.12233759998344,177.12233759998344,177.12233759998344,177.12233759998344,177.12233759998344,177.12233759998344,177.12233759998344,177.12233759998344,177.48833890003152,177.48833890003152,177.48833890003152,177.48833890003152,177.48833890003152,177.48833890003152,177.48833890003152,177.48833890003152,177.48833890003152,7,4,"[0.0007182999979704618, 0.08427090011537075, 0.13327830005437136, 0.2669589000288397]","[0.019429099978879094, 0.10080540017224848, 0.25057170004583895, 0.3672909000888467]",177.48833890003152,177.68838829989545,0.0,177.68838829989545,0,0.0,0,1,1000,num_1,0.11146799987182021,,30,15,2026-03-12_11h27.51.827,2026A_exp2,2022.2.4,59.960198438300935,
1,0,6.1,3.7,1,0,52,52,16,,,,,177.82258519995958,178.47230349993333,178.47230349993333,178.9734281001147,315,45,178.9734281001147,178.9734281001147,178.9734281001147,178.9734281001147,178.9734281001147,178.9734281001147,178.9734281001147,178.9734281001147,178.9734281001147,179.32325350004248,179.32325350004248,179.32325350004248,179.32325350004248,179.32325350004248,179.32325350004248,179.32325350004248,179.32325350004248,179.32325350004248,14,2,"[0.16706359991803765, 0.25145859993062913]","[0.1838018000125885, 0.35082189994864166]",179.32325350004248,179.5232291999273,3.7,179.5402780000586,0,3.7,1,0,1000,num_1,0.7312761000357568,,30,15,2026-03-12_11h27.51.827,2026A_exp2,2022.2.4,59.960198438300935,
1000,1,0.0,0.0,0,0,53,53,24,,,,,180.29065270000137,180.94123389991,180.94123389991,181.42580049997196,45,315,181.42580049997196,181.42580049997196,181.42580049997196,181.42580049997196,181.42580049997196,181.42580049997196,181.42580049997196,181.42580049997196,181.42580049997196,181.7921380000189,181.7921380000189,181.7921380000189,181.7921380000189,181.7921380000189,181.7921380000189,181.7921380000189,181.7921380000189,181.7921380000189,0,1,[0.0008394999895244837],[0.3672289999667555],181.7921380000189,181.99494199990295,1000,181.99494199990295,1000,1000,1000,1000,1,num_2,1.0060413000173867,,30,15,2026-03-12_11h27.51.827,2026A_exp2,2022.2.4,59.960198438300935,
1,0,6.1,0.0,1,0,54,54,17,,,,,183.0269716999028,183.6776723000221,183.6776723000221,184.17876740009524,315,45,184.17876740009524,184.17876740009524,184.17876740009524,184.17876740009524,184.17876740009524,184.17876740009524,184.17876740009524,184.17876740009524,184.17876740009524,184.5451877999585,184.5451877999585,184.5451877999585,184.5451877999585,184.5451877999585,184.5451877999585,184.5451877999585,184.5451877999585,184.5451877999585,0,1,[0.0012604999355971813],[0.3670311998575926],184.5451877999585,184.7453596999403,0.0,184.7453596999403,0,0.0,0,1,1000,num_1,0.74251539981924,,30,15,2026-03-12_11h27.51.827,2026A_exp2,2022.2.4,59.960198438300935,
1,0,0.0,0.0,0,0,55,55,11,,,,,185.51299700001255,186.1468746000901,186.1468746000901,186.6478216999676,315,45,186.6478216999676,186.6478216999676,186.6478216999676,186.6478216999676,186.6478216999676,186.6478216999676,186.6478216999676,186.6478216999676,186.6478216999676,187.01413309993222,187.01413309993222,187.01413309993222,187.01413309993222,187.01413309993222,187.01413309993222,187.01413309993222,187.01413309993222,187.01413309993222,2,2,"[0.0013018001336604357, 0.09973060013726354]","[0.08293100004084408, 0.36673440015874803]",187.01413309993222,187.21456360002048,0.0,187.21456360002048,0,0.0,0,1,1000,num_1,1.065110299969092,,30,15,2026-03-12_11h27.51.827,2026A_exp2,2022.2.4,59.960198438300935,
1,0,0.0,0.0,0,0,56,56,85,,,,,188.2987967999652,188.94970070011914,188.94970070011914,189.43409630004317,315,45,189.43409630004317,189.43409630004317,189.43409630004317,189.43409630004317,189.43409630004317,189.43409630004317,189.43409630004317,189.43409630004317,189.43409630004317,189.800444399938,189.800444399938,189.800444399938,189.800444399938,189.800444399938,189.800444399938,189.800444399938,189.800444399938,189.800444399938,0,1,[0.0012733000330626965],[0.3670887998305261],189.800444399938,190.00074080005288,0.0,190.00074080005288,0,0.0,0,1,1000,num_1,0.13506709993816912,,30,15,2026-03-12_11h27.51.827,2026A_exp2,2022.2.4,59.960198438300935,
1000,1,0.0,3.7,1,0,57,57,82,,,,,190.16739770001732,190.81818219996057,190.81818219996057,191.30253300000913,315,45,191.30253300000913,191.30253300000913,191.30253300000913,191.30253300000913,191.30253300000913,191.30253300000913,191.30253300000913,191.30253300000913,191.30253300000913,191.66901469998993,191.66901469998993,191.66901469998993,191.66901469998993,191.66901469998993,191.66901469998993,191.66901469998993,191.66901469998993,191.66901469998993,22,1,[0.06679899990558624],[0.0836882998701185],191.66901469998993,191.87100589997135,1000,191.87100589997135,1000,1000,1000,1000,0,num_3,1.537171000149101,,30,15,2026-03-12_11h27.51.827,2026A_exp2,2022.2.4,59.960198438300935,
1000,1,0.0,0.0,1,0,58,58,34,,,,,193.43727470003068,194.0880897999741,194.0880897999741,194.58926100004464,315,45,194.58926100004464,194.58926100004464,194.58926100004464,194.58926100004464,194.58926100004464,194.58926100004464,194.58926100004464,194.58926100004464,194.58926100004464,194.95552930003032,194.95552930003032,194.95552930003032,194.95552930003032,194.95552930003032,194.95552930003032,194.95552930003032,194.95552930003032,194.95552930003032,23,0,,,194.95552930003032,195.1585258000996,1000,195.1585258000996,1000,1000,1000,1000,1,num_2,0.5140338998753577,,30,15,2026-03-12_11h27.51.827,2026A_exp2,2022.2.4,59.960198438300935,
1,0,3.7,3.7,0,0,59,59,60,,,,,195.68963570008054,196.34032479999587,196.34032479999587,196.84127649990842,315,45,196.84127649990842,196.84127649990842,196.84127649990842,196.84127649990842,196.84127649990842,196.84127649990842,196.84127649990842,196.84127649990842,196.84127649990842,197.20782670006156,197.20782670006156,197.20782670006156,197.20782670006156,197.20782670006156,197.20782670006156,197.20782670006156,197.20782670006156,197.20782670006156,23,0,,,197.20782670006156,197.40808239998296,3.7,197.40808239998296,1,3.7,1,1,1000,num_4,1.144558599917218,,30,15,2026-03-12_11h27.51.827,2026A_exp2,2022.2.4,59.960198438300935,
0,0,4.9,0.0,1,0,60,60,26,,,,,198.57575879991055,199.22658429993317,199.22658429993317,199.71078160009347,45,315,199.71078160009347,199.71078160009347,199.71078160009347,199.71078160009347,199.71078160009347,199.71078160009347,199.71078160009347,199.71078160009347,199.71078160009347,200.0771325000096,200.0771325000096,200.0771325000096,200.0771325000096,200.0771325000096,200.0771325000096,200.0771325000096,200.0771325000096,200.0771325000096,14,1,[0.0013584999833256006],[0.14947049994952977],200.0771325000096,200.2775846000295,4.9,200.2775846000295,1,4.9,1,1,1000,num_4,0.9702602999750525,,30,15,2026-03-12_11h27.51.827,2026A_exp2,2022.2.4,59.960198438300935,
1,0,6.1,0.0,0,0,61,61,51,,,,,201.27832969999872,201.9125922000967,201.9125922000967,202.41367279994301,45,45,202.41367279994301,202.41367279994301,202.41367279994301,202.41367279994301,202.41367279994301,202.41367279994301,202.41367279994301,202.41367279994301,202.41367279994301,202.78008510009386,202.78008510009386,202.78008510009386,202.78008510009386,202.78008510009386,202.78008510009386,202.78008510009386,202.78008510009386,202.78008510009386,10,4,"[0.0012695000041276217, 0.05016769981011748, 0.18346659978851676, 0.25022739986889064]","[0.033419499872252345, 0.08350889990106225, 0.20025289990007877, 0.3668323999736458]",202.78008510009386,202.98037780006416,6.1,202.98037780006416,1,6.1,1,1,1000,num_4,0.412379999877885,,30,15,2026-03-12_11h27.51.827,2026A_exp2,2022.2.4,59.960198438300935,
1,0,4.9,3.7,1,0,62,62,71,,,,,203.413985399995,204.06451059994288,204.06451059994288,204.54905829997733,45,315,204.54905829997733,204.54905829997733,204.54905829997733,204.54905829997733,204.54905829997733,204.54905829997733,204.54905829997733,204.54905829997733,204.54905829997733,204.91561560006812,204.91561560006812,204.91561560006812,204.91561560006812,204.91561560006812,204.91561560006812,204.91561560006812,204.91561560006812,204.91561560006812,1,2,"[0.0012816998641937971, 0.33370159985497594]","[0.3167208000086248, 0.3670695999171585]",204.91561560006812,205.11582559999079,3.7,205.11582559999079,1,3.7,1,1,1000,num_4,0.42876510019414127,,30,15,2026-03-12_11h27.51.827,2026A_exp2,2022.2.4,59.960198438300935,
1000,1,3.7,0.0,1,0,63,63,78,,,,,205.56615590001456,206.21686709998176,206.21686709998176,206.70135849993676,45,45,206.70135849993676,206.70135849993676,206.70135849993676,206.70135849993676,206.70135849993676,206.70135849993676,206.70135849993676,206.70135849993676,206.70135849993676,207.06771289999597,207.06771289999597,207.06771289999597,207.06771289999597,207.06771289999597,207.06771289999597,207.06771289999597,207.06771289999597,207.06771289999597,9,1,[0.15037159994244576],[0.3667514999397099],207.06771289999597,207.26988429995254,1000,207.26988429995254,1000,1000,1000,1000,1,num_2,0.5626796998549253,,30,15,2026-03-12_11h27.51.827,2026A_exp2,2022.2.4,59.960198438300935,
1,0,0.0,0.0,1,0,64,64,59,,,,,207.851715200115,208.50252510001883,208.50252510001883,209.00361900008284,315,315,209.00361900008284,209.00361900008284,209.00361900008284,209.00361900008284,209.00361900008284,209.00361900008284,209.00361900008284,209.00361900008284,209.00361900008284,209.3700753999874,209.3700753999874,209.3700753999874,209.3700753999874,209.3700753999874,209.3700753999874,209.3700753999874,209.3700753999874,209.3700753999874,5,3,"[0.0012759999372065067, 0.18343310011550784, 0.25038590002804995]","[0.1669850000180304, 0.20031110011041164, 0.3671275000087917]",209.3700753999874,209.5702053999994,0.0,209.5702053999994,0,0.0,0,1,1000,num_1,0.27005400019697845,,30,15,2026-03-12_11h27.51.827,2026A_exp2,2022.2.4,59.960198438300935,
1000,1,3.7,3.7,1,0,65,65,54,,,,,209.8703556000255,210.52123189996928,210.52123189996928,211.00570599990897,315,315,211.00570599990897,211.00570599990897,211.00570599990897,211.00570599990897,211.00570599990897,211.00570599990897,211.00570599990897,211.00570599990897,211.00570599990897,211.37210009992123,211.37210009992123,211.37210009992123,211.37210009992123,211.37210009992123,211.37210009992123,211.37210009992123,211.37210009992123,211.37210009992123,11,2,"[0.16700070002116263, 0.2670855999458581]","[0.2503622998483479, 0.36714859982021153]",211.37210009992123,211.5740082000848,1000,211.5740082000848,1000,1000,1000,1000,0,num_3,0.7699128000531346,,30,15,2026-03-12_11h27.51.827,2026A_exp2,2022.2.4,59.960198438300935,
1000,1,6.1,0.0,0,0,66,66,21,,,,,212.37293979991227,213.007143399911,213.007143399911,213.5083570999559,45,315,213.5083570999559,213.5083570999559,213.5083570999559,213.5083570999559,213.5083570999559,213.5083570999559,213.5083570999559,213.5083570999559,213.5083570999559,213.87439440004528,213.87439440004528,213.87439440004528,213.87439440004528,213.87439440004528,213.87439440004528,213.87439440004528,213.87439440004528,213.87439440004528,1,2,"[0.0012437000405043364, 0.04997900011949241]","[0.03342760005034506, 0.367033600108698]",213.87439440004528,214.0770064999815,1000,214.0770064999815,1000,1000,1000,1000,0,num_3,0.6276946000289172,,30,15,2026-03-12_11h27.51.827,2026A_exp2,2022.2.4,59.960198438300935,
1,0,4.9,4.9,0,0,67,67,28,,,,,214.72526330011897,215.3759367999155,215.3759367999155,215.87706280010752,315,45,215.87706280010752,215.87706280010752,215.87706280010752,215.87706280010752,215.87706280010752,215.87706280010752,215.87706280010752,215.87706280010752,215.87706280010752,216.24362970003858,216.24362970003858,216.24362970003858,216.24362970003858,216.24362970003858,216.24362970003858,216.24362970003858,216.24362970003858,216.24362970003858,0,1,[0.001233499962836504],[0.3671655999496579],216.24362970003858,216.44363770005293,4.9,216.44363770005293,1,4.9,1,1,1000,num_4,0.6518846000544727,,30,15,2026-03-12_11h27.51.827,2026A_exp2,2022.2.4,59.960198438300935,
1000,1,3.7,0.0,0,0,68,68,81,,,,,217.12779830000363,217.76188030000776,217.76188030000776,218.26300349994563,315,45,218.26300349994563,218.26300349994563,218.26300349994563,218.26300349994563,218.26300349994563,218.26300349994563,218.26300349994563,218.26300349994563,218.26300349994563,218.62954060011543,218.62954060011543,218.62954060011543,218.62954060011543,218.62954060011543,218.62954060011543,218.62954060011543,218.62954060011543,218.62954060011543,23,0,,,218.62954060011543,218.83187750005163,1000,218.83187750005163,1000,1000,1000,1000,1,num_2,0.7196754000615329,,30,15,2026-03-12_11h27.51.827,2026A_exp2,2022.2.4,59.960198438300935,
1000,1,0.0,0.0,1,0,69,69,88,,,,,219.58009440009482,220.23091879999265,220.23091879999265,220.73208900005557,315,315,220.73208900005557,220.73208900005557,220.73208900005557,220.73208900005557,220.73208900005557,220.73208900005557,220.73208900005557,220.73208900005557,220.73208900005557,221.08175430004485,221.08175430004485,221.08175430004485,221.08175430004485,221.08175430004485,221.08175430004485,221.08175430004485,221.08175430004485,221.08175430004485,20,1,[0.001226699911057949],[0.03358449996449053],221.08175430004485,221.28376700007357,1000,221.2987200000789,1000,1000,1000,1000,1,num_2,0.6298362999223173,,30,15,2026-03-12_11h27.51.827,2026A_exp2,2022.2.4,59.960198438300935,
1000,1,0.0,0.0,0,0,70,70,79,,,,,221.94915309990756,222.59988040011376,222.59988040011376,223.1011016999837,315,315,223.1011016999837,223.1011016999837,223.1011016999837,223.1011016999837,223.1011016999837,223.1011016999837,223.1011016999837,223.1011016999837,223.1011016999837,223.46746820001863,223.46746820001863,223.46746820001863,223.46746820001863,223.46746820001863,223.46746820001863,223.46746820001863,223.46746820001863,223.46746820001863,23,0,,,223.46746820001863,223.67014029994607,1000,223.67014029994607,1000,1000,1000,1000,1,num_2,0.5548060000874102,,30,15,2026-03-12_11h27.51.827,2026A_exp2,2022.2.4,59.960198438300935,
1000,1,6.1,6.1,1,0,71,71,53,,,,,224.25148990005255,224.90211959998123,224.90211959998123,225.40340339997783,315,45,225.40340339997783,225.40340339997783,225.40340339997783,225.40340339997783,225.40340339997783,225.40340339997783,225.40340339997783,225.40340339997783,225.40340339997783,225.76979840011336,225.76979840011336,225.76979840011336,225.76979840011336,225.76979840011336,225.76979840011336,225.76979840011336,225.76979840011336,225.76979840011336,10,1,[0.16690540011040866],[0.3671566001139581],225.76979840011336,225.97192179993726,1000,225.97192179993726,1000,1000,1000,1000,0,num_3,0.7406065999530256,,30,15,2026-03-12_11h27.51.827,2026A_exp2,2022.2.4,59.960198438300935,
1000,1,4.9,0.0,1,0,72,72,74,,,,,226.73723490000702,227.38793410011567,227.38793410011567,227.8892036001198,45,315,227.8892036001198,227.8892036001198,227.8892036001198,227.8892036001198,227.8892036001198,227.8892036001198,227.8892036001198,227.8892036001198,227.8892036001198,228.25564590003341,228.25564590003341,228.25564590003341,228.25564590003341,228.25564590003341,228.25564590003341,228.25564590003341,228.25564590003341,228.25564590003341,12,3,"[0.1336199000943452, 0.23369090002961457, 0.3672856001649052]","[0.20031110011041164, 0.3337862000335008, 0.367290599970147]",228.25564590003341,228.45857280003838,1000,228.45857280003838,1000,1000,1000,1000,0,num_3,0.47739090002141893,,30,15,2026-03-12_11h27.51.827,2026A_exp2,2022.2.4,59.960198438300935,
1000,1,6.1,4.9,1,0,73,73,86,,,,,228.9562023000326,229.6070902000647,229.6070902000647,230.10791300004348,45,45,230.10791300004348,230.10791300004348,230.10791300004348,230.10791300004348,230.10791300004348,230.10791300004348,230.10791300004348,230.10791300004348,230.10791300004348,230.47452899999917,230.47452899999917,230.47452899999917,230.47452899999917,230.47452899999917,230.47452899999917,230.47452899999917,230.47452899999917,230.47452899999917,0,1,[0.001295899972319603],[0.3671891000121832],230.47452899999917,230.67482640012167,1000,230.67482640012167,1000,1000,1000,1000,0,num_3,0.7575529001187533,,30,15,2026-03-12_11h27.51.827,2026A_exp2,2022.2.4,59.960198438300935,
1000,1,0.0,0.0,1,0,74,74,68,,,,,231.4586720999796,232.10948069998994,232.10948069998994,232.61061970004812,315,315,232.61061970004812,232.61061970004812,232.61061970004812,232.61061970004812,232.61061970004812,232.61061970004812,232.61061970004812,232.61061970004812,232.61061970004812,232.97699810005724,232.97699810005724,232.97699810005724,232.97699810005724,232.97699810005724,232.97699810005724,232.97699810005724,232.97699810005724,232.97699810005724,22,1,[0.2836781002115458],[0.30049210018478334],232.97699810005724,233.17722940002568,1000,233.17722940002568,1000,1000,1000,1000,1,num_2,0.5431951000355184,,30,15,2026-03-12_11h27.51.827,2026A_exp2,2022.2.4,59.960198438300935,
1000,1,3.7,0.0,1,0,75,75,38,,,,,233.74430070002563,234.39506829995662,234.39506829995662,234.89618230005726,45,45,234.89618230005726,234.89618230005726,234.89618230005726,234.89618230005726,234.89618230005726,234.89618230005726,234.89618230005726,234.89618230005726,234.89618230005726,235.26262619998306,235.26262619998306,235.26262619998306,235.26262619998306,235.26262619998306,235.26262619998306,235.26262619998306,235.26262619998306,235.26262619998306,6,5,"[0.001244500046595931, 0.08349069999530911, 0.15042570000514388, 0.216978499898687, 0.31661930005066097]","[0.05014569987542927, 0.13351399987004697, 0.18366029998287559, 0.30015229992568493, 0.36696640006266534]",235.26262619998306,235.46492579998448,1000,235.46492579998448,1000,1000,1000,1000,1,num_2,0.45518300007097423,,30,15,2026-03-12_11h27.51.827,2026A_exp2,2022.2.4,59.960198438300935,
1,0,0.0,6.1,1,0,76,76,5,,,,,235.94649829994887,236.59721749997698,236.59721749997698,237.0983939000871,45,45,237.0983939000871,237.0983939000871,237.0983939000871,237.0983939000871,237.0983939000871,237.0983939000871,237.0983939000871,237.0983939000871,237.0983939000871,237.46486650011502,237.46486650011502,237.46486650011502,237.46486650011502,237.46486650011502,237.46486650011502,237.46486650011502,237.46486650011502,237.46486650011502,6,3,"[0.06694879988208413, 0.1997809000313282, 0.28387869987636805]","[0.18312509986571968, 0.266893699998036, 0.36720119998790324]",237.46486650011502,237.6650141000282,6.1,237.6650141000282,1,6.1,1,1,1000,num_4,0.9504980000201613,,30,15,2026-03-12_11h27.51.827,2026A_exp2,2022.2.4,59.960198438300935,
1000,1,3.7,6.1,1,0,77,77,43,,,,,238.63248970010318,239.28314709989354,239.28314709989354,239.76765260007232,315,45,239.76765260007232,239.76765260007232,239.76765260007232,239.76765260007232,239.76765260007232,239.76765260007232,239.76765260007232,239.76765260007232,239.76765260007232,240.1340741000604,240.1340741000604,240.1340741000604,240.1340741000604,240.1340741000604,240.1340741000604,240.1340741000604,240.1340741000604,240.1340741000604,4,2,"[0.033554499968886375, 0.1164880997966975]","[0.09983779978938401, 0.3670984997879714]",240.1340741000604,240.33624830003828,1000,240.33624830003828,1000,1000,1000,1000,1,num_2,0.6238921999465674,,30,15,2026-03-12_11h27.51.827,2026A_exp2,2022.2.4,59.960198438300935,
1,0,4.9,6.1,0,0,78,78,29,,,,,240.98490309994668,241.63563499995507,241.63563499995507,242.13677780004218,315,45,242.13677780004218,242.13677780004218,242.13677780004218,242.13677780004218,242.13677780004218,242.13677780004218,242.13677780004218,242.13677780004218,242.13677780004218,242.50311670009978,242.50311670009978,242.50311670009978,242.50311670009978,242.50311670009978,242.50311670009978,242.50311670009978,242.50311670009978,242.50311670009978,16,4,"[0.0335079999640584, 0.10028779995627701, 0.2835923000238836, 0.3671649000607431]","[0.05006030015647411, 0.16701940004713833, 0.3004595001693815, 0.3671697999816388]",242.50311670009978,242.7033377001062,4.9,242.7033377001062,1,4.9,1,1,1000,num_4,1.1054833000525832,,30,15,2026-03-12_11h27.51.827,2026A_exp2,2022.2.4,59.960198438300935,
1000,1,0.0,3.7,1,0,79,79,1,,,,,243.83879510010593,244.49696179991588,244.49696179991588,244.98963019996881,315,315,244.98963019996881,244.98963019996881,244.98963019996881,244.98963019996881,244.98963019996881,244.98963019996881,244.98963019996881,244.98963019996881,244.98963019996881,245.35611849999987,245.35611849999987,245.35611849999987,245.35611849999987,245.35611849999987,245.35611849999987,245.35611849999987,245.35611849999987,245.35611849999987,5,4,"[0.0012182998470962048, 0.10030399984680116, 0.21699169999919832, 0.350461799884215]","[0.06664830003865063, 0.1836186998989433, 0.33385709999129176, 0.36724659986793995]",245.35611849999987,245.55653810012154,1000,245.55653810012154,1000,1000,1000,1000,1,num_2,0.5797428998630494,,30,15,2026-03-12_11h27.51.827,2026A_exp2,2022.2.4,59.960198438300935,
0,0,3.7,3.7,1,0,80,80,62,,,,,246.15687629999593,246.8074568999,246.8074568999,247.308448900003,45,315,247.308448900003,247.308448900003,247.308448900003,247.308448900003,247.308448900003,247.308448900003,247.308448900003,247.308448900003,247.308448900003,247.6748856001068,247.6748856001068,247.6748856001068,247.6748856001068,247.6748856001068,247.6748856001068,247.6748856001068,247.6748856001068,247.6748856001068,2,1,[0.0008589001372456551],[0.3511730001773685],247.6748856001068,247.87526579992846,3.7,247.87526579992846,1,3.7,1,1,1000,num_4,0.6691967998631299,,30,15,2026-03-12_11h27.51.827,2026A_exp2,2022.2.4,59.960198438300935,
1000,1,6.1,6.1,0,0,81,81,87,,,,,248.5757736999076,249.22682880004868,249.22682880004868,249.71103879995644,45,45,249.71103879995644,249.71103879995644,249.71103879995644,249.71103879995644,249.71103879995644,249.71103879995644,249.71103879995644,249.71103879995644,249.71103879995644,250.07742340001278,250.07742340001278,250.07742340001278,250.07742340001278,250.07742340001278,250.07742340001278,250.07742340001278,250.07742340001278,250.07742340001278,21,1,[0.16658150008879602],[0.19999740016646683],250.07742340001278,250.28028009994887,1000,250.28028009994887,1000,1000,1000,1000,0,num_3,0.703391500050202,,30,15,2026-03-12_11h27.51.827,2026A_exp2,2022.2.4,59.960198438300935,
1000,1,0.0,0.0,0,0,82,82,13,,,,,251.01178049994633,251.66228769998997,251.66228769998997,252.14679619995877,45,45,252.14679619995877,252.14679619995877,252.14679619995877,252.14679619995877,252.14679619995877,252.14679619995877,252.14679619995877,252.14679619995877,252.14679619995877,252.51319659990259,252.51319659990259,252.51319659990259,252.51319659990259,252.51319659990259,252.51319659990259,252.51319659990259,252.51319659990259,252.51319659990259,15,3,"[0.0012637998443096876, 0.11683389986865222, 0.30031309998594224]","[0.033450799994170666, 0.20025489991530776, 0.3171435999684036]",252.51319659990259,252.7145509000402,1000,252.7145509000402,1000,1000,1000,1000,1,num_2,0.6378307000268251,,30,15,2026-03-12_11h27.51.827,2026A_exp2,2022.2.4,59.960198438300935,
1,0,0.0,0.0,1,0,83,83,20,,,,,253.38066440005787,254.03140460001305,254.03140460001305,254.53245709999464,45,45,254.53245709999464,254.53245709999464,254.53245709999464,254.53245709999464,254.53245709999464,254.53245709999464,254.53245709999464,254.53245709999464,254.53245709999464,254.89891180000268,254.89891180000268,254.89891180000268,254.89891180000268,254.89891180000268,254.89891180000268,254.89891180000268,254.89891180000268,254.89891180000268,23,0,,,254.89891180000268,255.09898320003413,0.0,255.09898320003413,0,0.0,0,1,1000,num_1,0.3408009000122547,,30,15,2026-03-12_11h27.51.827,2026A_exp2,2022.2.4,59.960198438300935,
1000,1,3.7,0.0,1,0,84,84,52,,,,,255.46595040010288,256.11675580008887,256.11675580008887,256.60109949996695,45,45,256.60109949996695,256.60109949996695,256.60109949996695,256.60109949996695,256.60109949996695,256.60109949996695,256.60109949996695,256.60109949996695,256.60109949996695,256.9676381999161,256.9676381999161,256.9676381999161,256.9676381999161,256.9676381999161,256.9676381999161,256.9676381999161,256.9676381999161,256.9676381999161,23,0,,,256.9676381999161,257.17006230005063,1000,257.17006230005063,1000,1000,1000,1000,1,num_2,0.9814904001541436,,30,15,2026-03-12_11h27.51.827,2026A_exp2,2022.2.4,59.960198438300935,
1,0,0.0,0.0,0,0,85,85,6,,,,,258.1688890999649,258.81941269990057,258.81941269990057,259.32055040006526,45,315,259.32055040006526,259.32055040006526,259.32055040006526,259.32055040006526,259.32055040006526,259.32055040006526,259.32055040006526,259.32055040006526,259.32055040006526,259.68694879999384,259.68694879999384,259.68694879999384,259.68694879999384,259.68694879999384,259.68694879999384,259.68694879999384,259.68694879999384,259.68694879999384,0,1,[0.0007613000925630331],[0.3674944001249969],259.68694879999384,259.88728210004047,0.0,259.88728210004047,0,0.0,0,1,1000,num_1,0.8726025999058038,,30,15,2026-03-12_11h27.51.827,2026A_exp2,2022.2.4,59.960198438300935,
0,0,0.0,0.0,1,0,86,86,14,,,,,260.78881529998034,261.4383974999655,261.4383974999655,261.9398342000786,45,45,261.9398342000786,261.9398342000786,261.9398342000786,261.9398342000786,261.9398342000786,261.9398342000786,261.9398342000786,261.9398342000786,261.9398342000786,262.306569899898,262.306569899898,262.306569899898,262.306569899898,262.306569899898,262.306569899898,262.306569899898,262.306569899898,262.306569899898,23,0,,,262.306569899898,262.50651640002616,0.0,262.50651640002616,0,0.0,0,1,1000,num_1,0.1097107999958098,,30,15,2026-03-12_11h27.51.827,2026A_exp2,2022.2.4,59.960198438300935,
1,0,4.9,4.9,1,0,87,87,18,,,,,262.6398946000263,263.29057980002835,263.29057980002835,263.7750458000228,45,315,263.7750458000228,263.7750458000228,263.7750458000228,263.7750458000228,263.7750458000228,263.7750458000228,263.7750458000228,263.7750458000228,263.7750458000228,264.14145620004274,264.14145620004274,264.14145620004274,264.14145620004274,264.14145620004274,264.14145620004274,264.14145620004274,264.14145620004274,264.14145620004274,22,1,[0.0012650999706238508],[0.017391499830409884],264.14145620004274,264.35395870008506,4.9,264.35395870008506,1,4.9,1,1,1000,num_4,0.4790080999955535,,30,15,2026-03-12_11h27.51.827,2026A_exp2,2022.2.4,59.960198438300935,
1000,1,0.0,0.0,0,0,88,88,2,,,,,264.8587275000755,265.50952899991535,265.50952899991535,265.99398189992644,45,315,265.99398189992644,265.99398189992644,265.99398189992644,265.99398189992644,265.99398189992644,265.99398189992644,265.99398189992644,265.99398189992644,265.99398189992644,266.3603751999326,266.3603751999326,266.3603751999326,266.3603751999326,266.3603751999326,266.3603751999326,266.3603751999326,266.3603751999326,266.3603751999326,7,1,[0.0012405000161379576],[0.26686100009828806],266.3603751999326,266.5817631999962,1000,266.5817631999962,1000,1000,1000,1000,1,num_2,0.658129199873656,,30,15,2026-03-12_11h27.51.827,2026A_exp2,2022.2.4,59.960198438300935,
1,0,3.7,0.0,0,0,89,89,10,,,,,267.26118130004033,267.9118013998959,267.9118013998959,268.4130710000172,315,45,268.4130710000172,268.4130710000172,268.4130710000172,268.4130710000172,268.4130710000172,268.4130710000172,268.4130710000172,268.4130710000172,268.4130710000172,268.7791967999656,268.7791967999656,268.7791967999656,268.7791967999656,268.7791967999656,268.7791967999656,268.7791967999656,268.7791967999656,268.7791967999656,0,1,[0.0009257998317480087],[0.3679003999568522],268.7791967999656,268.9795846999623,3.7,268.9795846999623,0,3.7,1,0,1000,num_1,0.40402469993568957,,30,15,2026-03-12_11h27.51.827,2026A_exp2,2022.2.4,59.960198438300935,
,,,,,,,,,,,,,,,,,,,,,,,,,,,,,,,,,,,,,,,,,,,,,,,,,,,,269.4225359999109,,,,,,,
