validity,detectorcomp,contrastCW,contrastCCW,precueCWorCCW,block_80trials.thisRepN,block_80trials.thisTrialN,block_80trials.thisN,block_80trials.thisIndex,etRecord.started,etRecord.stopped,text.started,text.stopped,text_4.started,text_4.stopped,text_6.started,text_6.stopped,oriCW,oriCCW,roi_2.started,grating_UR.started,grating_UL.started,grating_LR.started,grating_LL.started,noise_UR.started,noise_UL.started,noise_LR.started,noise_LL.started,roi_2.stopped,grating_UR.stopped,grating_UL.stopped,grating_LR.stopped,grating_LL.stopped,noise_UR.stopped,noise_UL.stopped,noise_LR.stopped,noise_LL.stopped,outframe,roi_2.numLooks,roi_2.timesOn,roi_2.timesOff,text_2.started,text_2.stopped,probedcontrast,key_resp.started,respdetect,relevantContrast,correctDetect,TorFdetect,respCWorCCW,key_resp.keys,key_resp.rt,feedback_display_.started,participantNo,blockNo,date,expName,psychopyVersion,frameRate,
1,0,0.0,6.1,1,0,0,0,52,0.00010810000821948051,0.00010810000821948051,62.20646570000099,64.21062309999252,64.21062309999252,64.84260969999013,64.84260969999013,65.36177940000198,45,45,65.36177940000198,65.36177940000198,65.36177940000198,65.36177940000198,65.36177940000198,65.36177940000198,65.36177940000198,65.36177940000198,65.36177940000198,65.7103494000039,65.7103494000039,65.7103494000039,65.7103494000039,65.7103494000039,65.7103494000039,65.7103494000039,65.7103494000039,65.7103494000039,23,0,,,65.7103494000039,65.91050739999628,6.1,65.91050739999628,1,6.1,1,1,1000,num_4,1.7448253000038676,,20,2,2026-03-02_17h19.44.610,2026A_exp2,2022.2.4,59.93364146575193,
0,0,0.0,3.7,1,0,1,1,10,,,,,67.67897019998054,68.32957959998748,68.32957959998748,68.8141177999787,45,45,68.8141177999787,68.8141177999787,68.8141177999787,68.8141177999787,68.8141177999787,68.8141177999787,68.8141177999787,68.8141177999787,68.8141177999787,69.18047339998884,69.18047339998884,69.18047339998884,69.18047339998884,69.18047339998884,69.18047339998884,69.18047339998884,69.18047339998884,69.18047339998884,0,1,[0.0007084000098984689],[0.36752770000020973],69.18047339998884,69.38055559998611,0.0,69.38055559998611,0,0.0,0,1,1000,num_1,2.7462059000099543,,20,2,2026-03-02_17h19.44.610,2026A_exp2,2022.2.4,59.93364146575193,
1000,1,0.0,0.0,0,0,2,2,15,,,,,72.15002259999164,72.80073279998032,72.80073279998032,73.28524080000352,45,315,73.28524080000352,73.28524080000352,73.28524080000352,73.28524080000352,73.28524080000352,73.28524080000352,73.28524080000352,73.28524080000352,73.28524080000352,73.65167130000191,73.65167130000191,73.65167130000191,73.65167130000191,73.65167130000191,73.65167130000191,73.65167130000191,73.65167130000191,73.65167130000191,0,1,[0.0012234000023454428],[0.36735810001846403],73.65167130000191,73.8565077999956,1000,73.8565077999956,1000,1000,1000,1000,0,num_3,1.4941669999971054,,20,2,2026-03-02_17h19.44.610,2026A_exp2,2022.2.4,59.93364146575193,
1000,1,6.1,0.0,1,0,3,3,16,,,,,75.37007639999501,76.02062569998088,76.02062569998088,76.52139209999586,45,45,76.52139209999586,76.52139209999586,76.52139209999586,76.52139209999586,76.52139209999586,76.52139209999586,76.52139209999586,76.52139209999586,76.52139209999586,76.8715019999945,76.8715019999945,76.8715019999945,76.8715019999945,76.8715019999945,76.8715019999945,76.8715019999945,76.8715019999945,76.8715019999945,0,1,[0.0012100000167265534],[0.3505775000085123],76.8715019999945,77.07342719999724,1000,77.08842819998972,1000,1000,1000,1000,0,num_3,1.7107629000092857,,20,2,2026-03-02_17h19.44.610,2026A_exp2,2022.2.4,59.93364146575193,
1000,1,3.7,0.0,0,0,4,4,45,,,,,78.82358519997797,79.4740768999909,79.4740768999909,79.9752737999952,45,315,79.9752737999952,79.9752737999952,79.9752737999952,79.9752737999952,79.9752737999952,79.9752737999952,79.9752737999952,79.9752737999952,79.9752737999952,80.34156709999661,80.34156709999661,80.34156709999661,80.34156709999661,80.34156709999661,80.34156709999661,80.34156709999661,80.34156709999661,80.34156709999661,0,1,[0.0012266999983694404],[0.3671176999923773],80.34156709999661,80.54363820000435,1000,80.54363820000435,1000,1000,1000,1000,0,num_3,0.7117139999754727,,20,2,2026-03-02_17h19.44.610,2026A_exp2,2022.2.4,59.93364146575193,
1000,1,0.0,0.0,0,0,5,5,85,,,,,81.27601239999058,81.90982189998613,81.90982189998613,82.41089299999294,315,315,82.41089299999294,82.41089299999294,82.41089299999294,82.41089299999294,82.41089299999294,82.41089299999294,82.41089299999294,82.41089299999294,82.41089299999294,82.77734479997889,82.77734479997889,82.77734479997889,82.77734479997889,82.77734479997889,82.77734479997889,82.77734479997889,82.77734479997889,82.77734479997889,0,1,[0.0012370999902486801],[0.3670173000136856],82.77734479997889,82.9795155999891,1000,82.9795155999891,1000,1000,1000,1000,0,num_3,1.451756900001783,,20,2,2026-03-02_17h19.44.610,2026A_exp2,2022.2.4,59.93364146575193,
1000,1,4.9,6.1,0,0,6,6,20,,,,,84.46264399998472,85.11299520000466,85.11299520000466,85.61405760000343,315,45,85.61405760000343,85.61405760000343,85.61405760000343,85.61405760000343,85.61405760000343,85.61405760000343,85.61405760000343,85.61405760000343,85.61405760000343,85.963883599994,85.963883599994,85.963883599994,85.963883599994,85.963883599994,85.963883599994,85.963883599994,85.963883599994,85.963883599994,0,1,[0.0012220999924466014],[0.35065840001334436],85.963883599994,86.16604179999558,1000,86.16604179999558,1000,1000,1000,1000,0,num_3,0.9286453999811783,,20,2,2026-03-02_17h19.44.610,2026A_exp2,2022.2.4,59.93364146575193,
0,0,0.0,0.0,1,0,7,7,89,,,,,87.11498569999821,87.76570639997954,87.76570639997954,88.26686239999253,45,315,88.26686239999253,88.26686239999253,88.26686239999253,88.26686239999253,88.26686239999253,88.26686239999253,88.26686239999253,88.26686239999253,88.26686239999253,88.63325729998178,88.63325729998178,88.63325729998178,88.63325729998178,88.63325729998178,88.63325729998178,88.63325729998178,88.63325729998178,88.63325729998178,0,1,[0.0011981000134255737],[0.3672032000031322],88.63325729998178,88.8333769000019,0.0,88.8333769000019,0,0.0,0,1,1000,num_1,4.005956699984381,,20,2,2026-03-02_17h19.44.610,2026A_exp2,2022.2.4,59.93364146575193,
1000,1,0.0,3.7,1,0,8,8,47,,,,,92.87085239999578,93.52145430000382,93.52145430000382,94.00598889999674,315,315,94.00598889999674,94.00598889999674,94.00598889999674,94.00598889999674,94.00598889999674,94.00598889999674,94.00598889999674,94.00598889999674,94.00598889999674,94.37229489997844,94.37229489997844,94.37229489997844,94.37229489997844,94.37229489997844,94.37229489997844,94.37229489997844,94.37229489997844,94.37229489997844,0,1,[0.00130969999008812],[0.36664189997827634],94.37229489997844,94.5744044999883,1000,94.5744044999883,1000,1000,1000,1000,1,num_2,0.8889630999765359,,20,2,2026-03-02_17h19.44.610,2026A_exp2,2022.2.4,59.93364146575193,
1,0,3.7,0.0,0,0,9,9,42,,,,,95.49018659998546,96.14081979999901,96.14081979999901,96.64182059999439,45,45,96.64182059999439,96.64182059999439,96.64182059999439,96.64182059999439,96.64182059999439,96.64182059999439,96.64182059999439,96.64182059999439,96.64182059999439,97.00835019999067,97.00835019999067,97.00835019999067,97.00835019999067,97.00835019999067,97.00835019999067,97.00835019999067,97.00835019999067,97.00835019999067,0,1,[0.0012098999868612736],[0.3672047999862116],97.00835019999067,97.20847349998076,3.7,97.20847349998076,1,3.7,1,1,1000,num_4,3.191307400004007,,20,2,2026-03-02_17h19.44.610,2026A_exp2,2022.2.4,59.93364146575193,
1000,1,6.1,0.0,1,0,10,10,30,,,,,100.42830499997945,101.06225889999769,101.06225889999769,101.56335479998961,45,45,101.56335479998961,101.56335479998961,101.56335479998961,101.56335479998961,101.56335479998961,101.56335479998961,101.56335479998961,101.56335479998961,101.56335479998961,101.9298015999957,101.9298015999957,101.9298015999957,101.9298015999957,101.9298015999957,101.9298015999957,101.9298015999957,101.9298015999957,101.9298015999957,0,1,[0.0012503999751061201],[0.36710399997537024],101.9298015999957,102.13236819999292,1000,102.13236819999292,1000,1000,1000,1000,0,num_3,0.8348454000079073,,20,2,2026-03-02_17h19.44.610,2026A_exp2,2022.2.4,59.93364146575193,
0,0,0.0,6.1,0,0,11,11,7,,,,,102.99751639997703,103.64817309999489,103.64817309999489,104.13274639999145,45,45,104.13274639999145,104.13274639999145,104.13274639999145,104.13274639999145,104.13274639999145,104.13274639999145,104.13274639999145,104.13274639999145,104.13274639999145,104.49910630000522,104.49910630000522,104.49910630000522,104.49910630000522,104.49910630000522,104.49910630000522,104.49910630000522,104.49910630000522,104.49910630000522,0,1,[0.0012331000179983675],[0.3669192000234034],104.49910630000522,104.69931659998838,6.1,104.69931659998838,1,6.1,1,1,1000,num_4,2.2038579000218306,,20,2,2026-03-02_17h19.44.610,2026A_exp2,2022.2.4,59.93364146575193,
1,0,3.7,0.0,1,0,12,12,50,,,,,106.93479299999308,107.58564989999286,107.58564989999286,108.07004890000098,45,315,108.07004890000098,108.07004890000098,108.07004890000098,108.07004890000098,108.07004890000098,108.07004890000098,108.07004890000098,108.07004890000098,108.07004890000098,108.43652970000403,108.43652970000403,108.43652970000403,108.43652970000403,108.43652970000403,108.43652970000403,108.43652970000403,108.43652970000403,108.43652970000403,0,1,[0.001218299992615357],[0.3669481000106316],108.43652970000403,108.6365189999924,0.0,108.6365189999924,0,0.0,0,1,1000,num_1,1.026137100008782,,20,2,2026-03-02_17h19.44.610,2026A_exp2,2022.2.4,59.93364146575193,
1000,1,6.1,0.0,1,0,13,13,68,,,,,109.68752449998283,110.33804040000541,110.33804040000541,110.82277979998617,315,45,110.82277979998617,110.82277979998617,110.82277979998617,110.82277979998617,110.82277979998617,110.82277979998617,110.82277979998617,110.82277979998617,110.82277979998617,111.18898370000534,111.18898370000534,111.18898370000534,111.18898370000534,111.18898370000534,111.18898370000534,111.18898370000534,111.18898370000534,111.18898370000534,0,1,[0.0013476000167429447],[0.3667210999992676],111.18898370000534,111.39113579998957,1000,111.39113579998957,1000,1000,1000,1000,0,num_3,1.4242655000125524,,20,2,2026-03-02_17h19.44.610,2026A_exp2,2022.2.4,59.93364146575193,
1000,1,3.7,0.0,1,0,14,14,48,,,,,112.84066319998237,113.49144309997791,113.49144309997791,113.99248649997753,315,315,113.99248649997753,113.99248649997753,113.99248649997753,113.99248649997753,113.99248649997753,113.99248649997753,113.99248649997753,113.99248649997753,113.99248649997753,114.35881189999054,114.35881189999054,114.35881189999054,114.35881189999054,114.35881189999054,114.35881189999054,114.35881189999054,114.35881189999054,114.35881189999054,1,2,"[0.001251100009540096, 0.08348800000385381]","[0.06687750000855885, 0.3672556999954395]",114.35881189999054,114.55895109998528,1000,114.55895109998528,1000,1000,1000,1000,0,num_3,0.8244593999988865,,20,2,2026-03-02_17h19.44.610,2026A_exp2,2022.2.4,59.93364146575193,
1000,1,3.7,6.1,0,0,15,15,84,,,,,115.4099697000056,116.06076279998524,116.06076279998524,116.56161390000489,45,45,116.56161390000489,116.56161390000489,116.56161390000489,116.56161390000489,116.56161390000489,116.56161390000489,116.56161390000489,116.56161390000489,116.56161390000489,116.91154349999852,116.91154349999852,116.91154349999852,116.91154349999852,116.91154349999852,116.91154349999852,116.91154349999852,116.91154349999852,116.91154349999852,0,1,[0.001211800001328811],[0.35053009999683127],116.91154349999852,117.1137136000034,1000,117.12853709998308,1000,1000,1000,1000,0,num_3,0.9741710999805946,,20,2,2026-03-02_17h19.44.610,2026A_exp2,2022.2.4,59.93364146575193,
1,0,3.7,0.0,0,0,16,16,65,,,,,118.12934719998157,118.7799573999946,118.7799573999946,119.28100689998246,315,315,119.28100689998246,119.28100689998246,119.28100689998246,119.28100689998246,119.28100689998246,119.28100689998246,119.28100689998246,119.28100689998246,119.28100689998246,119.63092399999732,119.63092399999732,119.63092399999732,119.63092399999732,119.63092399999732,119.63092399999732,119.63092399999732,119.63092399999732,119.63092399999732,0,1,[0.0012341999972704798],[0.3506645000015851],119.63092399999732,119.83098299999256,3.7,119.83098299999256,1,3.7,1,1,1000,num_4,2.3117919000214897,,20,2,2026-03-02_17h19.44.610,2026A_exp2,2022.2.4,59.93364146575193,
1000,1,4.9,0.0,0,0,17,17,26,,,,,122.16665400000056,122.81738419999601,122.81738419999601,123.30186279999907,315,315,123.30186279999907,123.30186279999907,123.30186279999907,123.30186279999907,123.30186279999907,123.30186279999907,123.30186279999907,123.30186279999907,123.30186279999907,123.66826169998967,123.66826169998967,123.66826169998967,123.66826169998967,123.66826169998967,123.66826169998967,123.66826169998967,123.66826169998967,123.66826169998967,0,1,[0.001199199992697686],[0.3671211999899242],123.66826169998967,123.87046059998102,1000,123.87046059998102,1000,1000,1000,1000,0,num_3,0.8090808000124525,,20,2,2026-03-02_17h19.44.610,2026A_exp2,2022.2.4,59.93364146575193,
1000,1,0.0,0.0,1,0,18,18,23,,,,,124.70257900000433,125.35334129998228,125.35334129998228,125.85432539999601,315,315,125.85432539999601,125.85432539999601,125.85432539999601,125.85432539999601,125.85432539999601,125.85432539999601,125.85432539999601,125.85432539999601,125.85432539999601,126.20411479999893,126.20411479999893,126.20411479999893,126.20411479999893,126.20411479999893,126.20411479999893,126.20411479999893,126.20411479999893,126.20411479999893,0,1,[0.0012092000106349587],[0.35043900000164285],126.20411479999893,126.40625420000288,1000,126.42110949999187,1000,1000,1000,1000,0,num_3,1.8344414999883156,,20,2,2026-03-02_17h19.44.610,2026A_exp2,2022.2.4,59.93364146575193,
1000,1,3.7,0.0,0,0,19,19,2,,,,,128.2727140999923,128.92346709998674,128.92346709998674,129.42468490000465,315,315,129.42468490000465,129.42468490000465,129.42468490000465,129.42468490000465,129.42468490000465,129.42468490000465,129.42468490000465,129.42468490000465,129.42468490000465,129.7909943999839,129.7909943999839,129.7909943999839,129.7909943999839,129.7909943999839,129.7909943999839,129.7909943999839,129.7909943999839,129.7909943999839,0,1,[0.001215500000398606],[0.3670366999867838],129.7909943999839,130.02387129998533,1000,130.02387129998533,1000,1000,1000,1000,0,num_3,0.7914772999938577,,20,2,2026-03-02_17h19.44.610,2026A_exp2,2022.2.4,59.93364146575193,
1,0,4.9,0.0,1,0,20,20,8,,,,,130.84193799999775,131.49244760000147,131.49244760000147,131.99381369998446,315,45,131.99381369998446,131.99381369998446,131.99381369998446,131.99381369998446,131.99381369998446,131.99381369998446,131.99381369998446,131.99381369998446,131.99381369998446,132.36026099999435,132.36026099999435,132.36026099999435,132.36026099999435,132.36026099999435,132.36026099999435,132.36026099999435,132.36026099999435,132.36026099999435,3,2,"[0.0335528000141494, 0.1167282999958843]","[0.08351260001654737, 0.367206900002202]",132.36026099999435,132.56041789997835,0.0,132.56041789997835,0,0.0,0,1,1000,num_1,1.8473330999840982,,20,2,2026-03-02_17h19.44.610,2026A_exp2,2022.2.4,59.93364146575193,
1,0,0.0,0.0,0,0,21,21,29,,,,,134.42897739997716,135.07969280000543,135.07969280000543,135.5639710999967,315,45,135.5639710999967,135.5639710999967,135.5639710999967,135.5639710999967,135.5639710999967,135.5639710999967,135.5639710999967,135.5639710999967,135.5639710999967,135.93061409998336,135.93061409998336,135.93061409998336,135.93061409998336,135.93061409998336,135.93061409998336,135.93061409998336,135.93061409998336,135.93061409998336,21,1,[0.2503339000104461],[0.2837483000184875],135.93061409998336,136.1308070999803,0.0,136.1308070999803,0,0.0,0,1,1000,num_1,1.5569171000097413,,20,2,2026-03-02_17h19.44.610,2026A_exp2,2022.2.4,59.93364146575193,
1000,1,0.0,4.9,1,0,22,22,59,,,,,137.71545339998556,138.36639979999745,138.36639979999745,138.8507324999955,45,315,138.8507324999955,138.8507324999955,138.8507324999955,138.8507324999955,138.8507324999955,138.8507324999955,138.8507324999955,138.8507324999955,138.8507324999955,139.2172353999922,139.2172353999922,139.2172353999922,139.2172353999922,139.2172353999922,139.2172353999922,139.2172353999922,139.2172353999922,139.2172353999922,17,5,"[0.01699559998814948, 0.08322559998487122, 0.11672920000273734, 0.1500868999864906, 0.28340359998401254]","[0.033326299977488816, 0.10010219999821857, 0.133440099976724, 0.183601800003089, 0.30030839997925796]",139.2172353999922,139.4191823999863,1000,139.4191823999863,1000,1000,1000,1000,1,num_2,2.6356251999968663,,20,2,2026-03-02_17h19.44.610,2026A_exp2,2022.2.4,59.93364146575193,
1000,1,3.7,6.1,0,0,23,23,0,,,,,142.069960599998,142.72060459997738,142.72060459997738,143.22186289998353,45,315,143.22186289998353,143.22186289998353,143.22186289998353,143.22186289998353,143.22186289998353,143.22186289998353,143.22186289998353,143.22186289998353,143.22186289998353,143.58825319999596,143.58825319999596,143.58825319999596,143.58825319999596,143.58825319999596,143.58825319999596,143.58825319999596,143.58825319999596,143.58825319999596,23,0,,,143.58825319999596,143.7903527999879,1000,143.7903527999879,1000,1000,1000,1000,1,num_2,0.9048942999797873,,20,2,2026-03-02_17h19.44.610,2026A_exp2,2022.2.4,59.93364146575193,
1,0,0.0,6.1,1,0,24,24,40,,,,,144.72259599997778,145.37324980000267,145.37324980000267,145.8744158000045,45,45,145.8744158000045,145.8744158000045,145.8744158000045,145.8744158000045,145.8744158000045,145.8744158000045,145.8744158000045,145.8744158000045,145.8744158000045,146.22429799998645,146.22429799998645,146.22429799998645,146.22429799998645,146.22429799998645,146.22429799998645,146.22429799998645,146.22429799998645,146.22429799998645,22,0,,,146.22429799998645,146.42440279998118,6.1,146.42440279998118,1,6.1,1,1,1000,num_4,3.0061386000015773,,20,2,2026-03-02_17h19.44.610,2026A_exp2,2022.2.4,59.93364146575193,
1000,1,4.9,3.7,0,0,25,25,32,,,,,149.46069979999447,150.11143259998062,150.11143259998062,150.59567479998805,45,315,150.59567479998805,150.59567479998805,150.59567479998805,150.59567479998805,150.59567479998805,150.59567479998805,150.59567479998805,150.59567479998805,150.59567479998805,150.96217489999253,150.96217489999253,150.96217489999253,150.96217489999253,150.96217489999253,150.96217489999253,150.96217489999253,150.96217489999253,150.96217489999253,23,0,,,150.96217489999253,151.16226749998168,1000,151.16226749998168,1000,1000,1000,1000,0,num_3,0.7008519000082742,,20,2,2026-03-02_17h19.44.610,2026A_exp2,2022.2.4,59.93364146575193,
1000,1,0.0,0.0,1,0,26,26,67,,,,,151.8796055999992,152.5304810999951,152.5304810999951,153.03159609998693,315,315,153.03159609998693,153.03159609998693,153.03159609998693,153.03159609998693,153.03159609998693,153.03159609998693,153.03159609998693,153.03159609998693,153.03159609998693,153.39807179998024,153.39807179998024,153.39807179998024,153.39807179998024,153.39807179998024,153.39807179998024,153.39807179998024,153.39807179998024,153.39807179998024,17,3,"[0.1836656000232324, 0.23379040000145324, 0.3672689000086393]","[0.20030700002098456, 0.3170964000164531, 0.36727370001608506]",153.39807179998024,153.60005529999034,1000,153.60005529999034,1000,1000,1000,1000,1,num_2,2.1434663999825716,,20,2,2026-03-02_17h19.44.610,2026A_exp2,2022.2.4,59.93364146575193,
1000,1,0.0,0.0,0,0,27,27,17,,,,,155.7668836999801,156.41772649998893,156.41772649998893,156.91888349998044,45,315,156.91888349998044,156.91888349998044,156.91888349998044,156.91888349998044,156.91888349998044,156.91888349998044,156.91888349998044,156.91888349998044,156.91888349998044,157.28530259997933,157.28530259997933,157.28530259997933,157.28530259997933,157.28530259997933,157.28530259997933,157.28530259997933,157.28530259997933,157.28530259997933,23,0,,,157.28530259997933,157.48718329999247,1000,157.48718329999247,1000,1000,1000,1000,1,num_2,1.3287141000037082,,20,2,2026-03-02_17h19.44.610,2026A_exp2,2022.2.4,59.93364146575193,
1,0,0.0,3.7,1,0,28,28,66,,,,,158.8366740999918,159.4872880000039,159.4872880000039,159.98869099997682,315,315,159.98869099997682,159.98869099997682,159.98869099997682,159.98869099997682,159.98869099997682,159.98869099997682,159.98869099997682,159.98869099997682,159.98869099997682,160.35487329997704,160.35487329997704,160.35487329997704,160.35487329997704,160.35487329997704,160.35487329997704,160.35487329997704,160.35487329997704,160.35487329997704,23,0,,,160.35487329997704,160.55524899999727,3.7,160.55524899999727,1,3.7,1,1,1000,num_4,2.1881808000034653,,20,2,2026-03-02_17h19.44.610,2026A_exp2,2022.2.4,59.93364146575193,
1000,1,0.0,4.9,1,0,29,29,31,,,,,162.77403319999576,163.42435220000334,163.42435220000334,163.90903949999483,45,315,163.90903949999483,163.90903949999483,163.90903949999483,163.90903949999483,163.90903949999483,163.90903949999483,163.90903949999483,163.90903949999483,163.90903949999483,164.27556969999569,164.27556969999569,164.27556969999569,164.27556969999569,164.27556969999569,164.27556969999569,164.27556969999569,164.27556969999569,164.27556969999569,23,0,,,164.27556969999569,164.4811839000031,1000,164.4811839000031,1000,1000,1000,1000,1,num_2,0.7584640999848489,,20,2,2026-03-02_17h19.44.610,2026A_exp2,2022.2.4,59.93364146575193,
1,0,0.0,4.9,0,0,30,30,4,,,,,165.25971399998525,165.91041280000354,165.91041280000354,166.41151239999454,315,315,166.41151239999454,166.41151239999454,166.41151239999454,166.41151239999454,166.41151239999454,166.41151239999454,166.41151239999454,166.41151239999454,166.41151239999454,166.77809759997763,166.77809759997763,166.77809759997763,166.77809759997763,166.77809759997763,166.77809759997763,166.77809759997763,166.77809759997763,166.77809759997763,23,0,,,166.77809759997763,166.97817990000476,0.0,166.97817990000476,0,0.0,0,1,1000,num_1,1.6450620999967214,,20,2,2026-03-02_17h19.44.610,2026A_exp2,2022.2.4,59.93364146575193,
0,0,4.9,0.0,1,0,31,31,25,,,,,168.64647009997861,169.2971204999776,169.2971204999776,169.7817177999823,315,45,169.7817177999823,169.7817177999823,169.7817177999823,169.7817177999823,169.7817177999823,169.7817177999823,169.7817177999823,169.7817177999823,169.7817177999823,170.14815480000107,170.14815480000107,170.14815480000107,170.14815480000107,170.14815480000107,170.14815480000107,170.14815480000107,170.14815480000107,170.14815480000107,23,0,,,170.14815480000107,170.34826289999182,4.9,170.34826289999182,1,4.9,1,1,1000,num_4,1.3476483999984339,,20,2,2026-03-02_17h19.44.610,2026A_exp2,2022.2.4,59.93364146575193,
1,0,0.0,4.9,1,0,32,32,53,,,,,171.71617139998125,172.3668342999881,172.3668342999881,172.86815739999292,315,315,172.86815739999292,172.86815739999292,172.86815739999292,172.86815739999292,172.86815739999292,172.86815739999292,172.86815739999292,172.86815739999292,172.86815739999292,173.23434409999754,173.23434409999754,173.23434409999754,173.23434409999754,173.23434409999754,173.23434409999754,173.23434409999754,173.23434409999754,173.23434409999754,23,0,,,173.23434409999754,173.43460209999466,4.9,173.43460209999466,1,4.9,1,1,1000,num_4,0.8126077000051737,,20,2,2026-03-02_17h19.44.610,2026A_exp2,2022.2.4,59.93364146575193,
1,0,0.0,3.7,1,0,33,33,41,,,,,174.26869719999377,174.91949579998618,174.91949579998618,175.40401440000278,315,45,175.40401440000278,175.40401440000278,175.40401440000278,175.40401440000278,175.40401440000278,175.40401440000278,175.40401440000278,175.40401440000278,175.40401440000278,175.77045640000142,175.77045640000142,175.77045640000142,175.77045640000142,175.77045640000142,175.77045640000142,175.77045640000142,175.77045640000142,175.77045640000142,23,0,,,175.77045640000142,175.97040879999986,3.7,175.97040879999986,0,3.7,1,0,1000,num_1,1.2687564000079874,,20,2,2026-03-02_17h19.44.610,2026A_exp2,2022.2.4,59.93364146575193,
1000,1,3.7,4.9,1,0,34,34,43,,,,,177.25563639999018,177.90590209999937,177.90590209999937,178.4070064999978,315,45,178.4070064999978,178.4070064999978,178.4070064999978,178.4070064999978,178.4070064999978,178.4070064999978,178.4070064999978,178.4070064999978,178.4070064999978,178.7732432000048,178.7732432000048,178.7732432000048,178.7732432000048,178.7732432000048,178.7732432000048,178.7732432000048,178.7732432000048,178.7732432000048,23,0,,,178.7732432000048,178.9752993999864,1000,178.9752993999864,1000,1000,1000,1000,1,num_2,1.2971123000024818,,20,2,2026-03-02_17h19.44.610,2026A_exp2,2022.2.4,59.93364146575193,
1,0,6.1,0.0,0,0,35,35,56,,,,,180.29150880000088,180.94226819998585,180.94226819998585,181.443449399987,45,315,181.443449399987,181.443449399987,181.443449399987,181.443449399987,181.443449399987,181.443449399987,181.443449399987,181.443449399987,181.443449399987,181.80982409999706,181.80982409999706,181.80982409999706,181.80982409999706,181.80982409999706,181.80982409999706,181.80982409999706,181.80982409999706,181.80982409999706,23,0,,,181.80982409999706,182.00986140000168,6.1,182.00986140000168,1,6.1,1,1,1000,num_4,1.3974235000205226,,20,2,2026-03-02_17h19.44.610,2026A_exp2,2022.2.4,59.93364146575193,
1000,1,0.0,3.7,0,0,36,36,51,,,,,183.42804569998407,184.07866489997832,184.07866489997832,184.56310729999677,45,45,184.56310729999677,184.56310729999677,184.56310729999677,184.56310729999677,184.56310729999677,184.56310729999677,184.56310729999677,184.56310729999677,184.56310729999677,184.92961469999864,184.92961469999864,184.92961469999864,184.92961469999864,184.92961469999864,184.92961469999864,184.92961469999864,184.92961469999864,184.92961469999864,23,0,,,184.92961469999864,185.1315638999804,1000,185.1315638999804,1000,1000,1000,1000,1,num_2,1.3242203000118025,,20,2,2026-03-02_17h19.44.610,2026A_exp2,2022.2.4,59.93364146575193,
0,0,6.1,3.7,1,0,37,37,49,,,,,186.4809993999952,187.131630399992,187.131630399992,187.6327526999812,315,315,187.6327526999812,187.6327526999812,187.6327526999812,187.6327526999812,187.6327526999812,187.6327526999812,187.6327526999812,187.6327526999812,187.6327526999812,187.99911740000243,187.99911740000243,187.99911740000243,187.99911740000243,187.99911740000243,187.99911740000243,187.99911740000243,187.99911740000243,187.99911740000243,23,0,,,187.99911740000243,188.19947189997765,6.1,188.19947189997765,1,6.1,1,1,1000,num_4,3.2560524999862537,,20,2,2026-03-02_17h19.44.610,2026A_exp2,2022.2.4,59.93364146575193,
1000,1,0.0,0.0,0,0,38,38,86,,,,,191.48597539999173,192.13670229999116,192.13670229999116,192.62106959999073,45,315,192.62106959999073,192.62106959999073,192.62106959999073,192.62106959999073,192.62106959999073,192.62106959999073,192.62106959999073,192.62106959999073,192.62106959999073,192.9875022000051,192.9875022000051,192.9875022000051,192.9875022000051,192.9875022000051,192.9875022000051,192.9875022000051,192.9875022000051,192.9875022000051,23,0,,,192.9875022000051,193.18952779998654,1000,193.18952779998654,1000,1000,1000,1000,1,num_2,1.5224652999895625,,20,2,2026-03-02_17h19.44.610,2026A_exp2,2022.2.4,59.93364146575193,
1000,1,4.9,0.0,1,0,39,39,72,,,,,194.73941879998893,195.39005550000002,195.39005550000002,195.87436089999392,315,315,195.87436089999392,195.87436089999392,195.87436089999392,195.87436089999392,195.87436089999392,195.87436089999392,195.87436089999392,195.87436089999392,195.87436089999392,196.2408998000028,196.2408998000028,196.2408998000028,196.2408998000028,196.2408998000028,196.2408998000028,196.2408998000028,196.2408998000028,196.2408998000028,23,0,,,196.2408998000028,196.44317630000296,1000,196.44317630000296,1000,1000,1000,1000,0,num_3,0.7958869999856688,,20,2,2026-03-02_17h19.44.610,2026A_exp2,2022.2.4,59.93364146575193,
1000,1,0.0,0.0,0,0,40,40,83,,,,,197.25845949997893,197.90915799999493,197.90915799999493,198.4103763999883,315,45,198.4103763999883,198.4103763999883,198.4103763999883,198.4103763999883,198.4103763999883,198.4103763999883,198.4103763999883,198.4103763999883,198.4103763999883,198.77675499999896,198.77675499999896,198.77675499999896,198.77675499999896,198.77675499999896,198.77675499999896,198.77675499999896,198.77675499999896,198.77675499999896,23,0,,,198.77675499999896,198.97875769998063,1000,198.97875769998063,1000,1000,1000,1000,0,num_3,1.1885638000094332,,20,2,2026-03-02_17h19.44.610,2026A_exp2,2022.2.4,59.93364146575193,
1,0,3.7,3.7,0,0,41,41,13,,,,,200.19470039999578,200.845422399987,200.845422399987,201.34661710000364,45,45,201.34661710000364,201.34661710000364,201.34661710000364,201.34661710000364,201.34661710000364,201.34661710000364,201.34661710000364,201.34661710000364,201.34661710000364,201.71308109999518,201.71308109999518,201.71308109999518,201.71308109999518,201.71308109999518,201.71308109999518,201.71308109999518,201.71308109999518,201.71308109999518,23,0,,,201.71308109999518,201.91335479999543,3.7,201.91335479999543,1,3.7,1,1,1000,num_4,1.3017118999850936,,20,2,2026-03-02_17h19.44.610,2026A_exp2,2022.2.4,59.93364146575193,
1000,1,6.1,0.0,0,0,42,42,82,,,,,203.2311034000013,203.88176739998744,203.88176739998744,204.36630969998077,315,45,204.36630969998077,204.36630969998077,204.36630969998077,204.36630969998077,204.36630969998077,204.36630969998077,204.36630969998077,204.36630969998077,204.36630969998077,204.73268749998533,204.73268749998533,204.73268749998533,204.73268749998533,204.73268749998533,204.73268749998533,204.73268749998533,204.73268749998533,204.73268749998533,23,0,,,204.73268749998533,204.93508309999015,1000,204.93508309999015,1000,1000,1000,1000,0,num_3,0.6887090999807697,,20,2,2026-03-02_17h19.44.610,2026A_exp2,2022.2.4,59.93364146575193,
1,0,3.7,6.1,0,0,43,43,55,,,,,205.6502156999777,206.30096339999,206.30096339999,206.78532840000116,315,45,206.78532840000116,206.78532840000116,206.78532840000116,206.78532840000116,206.78532840000116,206.78532840000116,206.78532840000116,206.78532840000116,206.78532840000116,207.15181019998272,207.15181019998272,207.15181019998272,207.15181019998272,207.15181019998272,207.15181019998272,207.15181019998272,207.15181019998272,207.15181019998272,23,0,,,207.15181019998272,207.35182519999216,3.7,207.35182519999216,0,3.7,1,0,1000,num_1,2.760063800000353,,20,2,2026-03-02_17h19.44.610,2026A_exp2,2022.2.4,59.93364146575193,
1000,1,0.0,4.9,1,0,44,44,76,,,,,210.1380115999782,210.79029879998416,210.79029879998416,211.29000239999732,45,315,211.29000239999732,211.29000239999732,211.29000239999732,211.29000239999732,211.29000239999732,211.29000239999732,211.29000239999732,211.29000239999732,211.29000239999732,211.65631639998173,211.65631639998173,211.65631639998173,211.65631639998173,211.65631639998173,211.65631639998173,211.65631639998173,211.65631639998173,211.65631639998173,23,0,,,211.65631639998173,211.87539679999463,1000,211.87539679999463,1000,1000,1000,1000,1,num_2,1.2116273999854457,,20,2,2026-03-02_17h19.44.610,2026A_exp2,2022.2.4,59.93364146575193,
1,0,0.0,4.9,1,0,45,45,21,,,,,213.10759179998422,213.75840429999516,213.75840429999516,214.25825199999963,315,45,214.25825199999963,214.25825199999963,214.25825199999963,214.25825199999963,214.25825199999963,214.25825199999963,214.25825199999963,214.25825199999963,214.25825199999963,214.6259528999799,214.6259528999799,214.6259528999799,214.6259528999799,214.6259528999799,214.6259528999799,214.6259528999799,214.6259528999799,214.6259528999799,24,0,,,214.6259528999799,214.82618889998412,4.9,214.82618889998412,1,4.9,1,1,1000,num_4,1.3174010000075214,,20,2,2026-03-02_17h19.44.610,2026A_exp2,2022.2.4,59.93364146575193,
1000,1,4.9,6.1,1,0,46,46,28,,,,,216.1639167999965,216.81653240000014,216.81653240000014,217.32041590000154,315,45,217.32041590000154,217.32041590000154,217.32041590000154,217.32041590000154,217.32041590000154,217.32041590000154,217.32041590000154,217.32041590000154,217.32041590000154,217.67881650000345,217.67881650000345,217.67881650000345,217.67881650000345,217.67881650000345,217.67881650000345,217.67881650000345,217.67881650000345,217.67881650000345,23,0,,,217.67881650000345,217.88094289999572,1000,217.88094289999572,1000,1000,1000,1000,0,num_3,0.798761399986688,,20,2,2026-03-02_17h19.44.610,2026A_exp2,2022.2.4,59.93364146575193,
1,0,0.0,0.0,0,0,47,47,1,,,,,218.6966650999966,219.34959480000543,219.34959480000543,219.84833809998236,45,315,219.84833809998236,219.84833809998236,219.84833809998236,219.84833809998236,219.84833809998236,219.84833809998236,219.84833809998236,219.84833809998236,219.84833809998236,220.2147704999952,220.2147704999952,220.2147704999952,220.2147704999952,220.2147704999952,220.2147704999952,220.2147704999952,220.2147704999952,220.2147704999952,23,0,,,220.2147704999952,220.42902339997818,0.0,220.42902339997818,0,0.0,0,1,1000,num_1,4.0744399999966845,,20,2,2026-03-02_17h19.44.610,2026A_exp2,2022.2.4,59.93364146575193,
1,0,0.0,3.7,0,0,48,48,35,,,,,224.52121929998975,225.1807179999887,225.1807179999887,225.6762935000006,45,45,225.6762935000006,225.6762935000006,225.6762935000006,225.6762935000006,225.6762935000006,225.6762935000006,225.6762935000006,225.6762935000006,225.6762935000006,226.03748559998348,226.03748559998348,226.03748559998348,226.03748559998348,226.03748559998348,226.03748559998348,226.03748559998348,226.03748559998348,226.03748559998348,23,0,,,226.03748559998348,226.24145129998215,0.0,226.24145129998215,0,0.0,0,1,1000,num_1,0.9980103000125382,,20,2,2026-03-02_17h19.44.610,2026A_exp2,2022.2.4,59.93364146575193,
1,0,0.0,6.1,0,0,49,49,34,,,,,227.25514110000222,227.9059229999839,227.9059229999839,228.4068222999922,45,45,228.4068222999922,228.4068222999922,228.4068222999922,228.4068222999922,228.4068222999922,228.4068222999922,228.4068222999922,228.4068222999922,228.4068222999922,228.7734441999928,228.7734441999928,228.7734441999928,228.7734441999928,228.7734441999928,228.7734441999928,228.7734441999928,228.7734441999928,228.7734441999928,23,0,,,228.7734441999928,228.97539609999512,0.0,228.97539609999512,0,0.0,0,1,1000,num_1,0.8635731000103988,,20,2,2026-03-02_17h19.44.610,2026A_exp2,2022.2.4,59.93364146575193,
1000,1,0.0,0.0,0,0,50,50,80,,,,,229.85764740000013,230.50829420000082,230.50829420000082,231.00960580000537,315,45,231.00960580000537,231.00960580000537,231.00960580000537,231.00960580000537,231.00960580000537,231.00960580000537,231.00960580000537,231.00960580000537,231.00960580000537,231.37589060000028,231.37589060000028,231.37589060000028,231.37589060000028,231.37589060000028,231.37589060000028,231.37589060000028,231.37589060000028,231.37589060000028,23,0,,,231.37589060000028,231.57877189997816,1000,231.57877189997816,1000,1000,1000,1000,1,num_2,1.9731005000066943,,20,2,2026-03-02_17h19.44.610,2026A_exp2,2022.2.4,59.93364146575193,
1000,1,0.0,4.9,1,0,51,51,79,,,,,233.57814369999687,234.22877809999045,234.22877809999045,234.72967249999056,315,315,234.72967249999056,234.72967249999056,234.72967249999056,234.72967249999056,234.72967249999056,234.72967249999056,234.72967249999056,234.72967249999056,234.72967249999056,235.0962223999959,235.0962223999959,235.0962223999959,235.0962223999959,235.0962223999959,235.0962223999959,235.0962223999959,235.0962223999959,235.0962223999959,23,0,,,235.0962223999959,235.29848599998513,1000,235.29848599998513,1000,1000,1000,1000,1,num_2,0.8213011000188999,,20,2,2026-03-02_17h19.44.610,2026A_exp2,2022.2.4,59.93364146575193,
1000,1,4.9,0.0,1,0,52,52,22,,,,,236.14731959998608,236.798028899997,236.798028899997,237.29910059997928,315,45,237.29910059997928,237.29910059997928,237.29910059997928,237.29910059997928,237.29910059997928,237.29910059997928,237.29910059997928,237.29910059997928,237.29910059997928,237.64897219999693,237.64897219999693,237.64897219999693,237.64897219999693,237.64897219999693,237.64897219999693,237.64897219999693,237.64897219999693,237.64897219999693,22,0,,,237.64897219999693,237.85126120000496,1000,237.85126120000496,1000,1000,1000,1000,0,num_3,0.996375699993223,,20,2,2026-03-02_17h19.44.610,2026A_exp2,2022.2.4,59.93364146575193,
1,0,6.1,4.9,0,0,53,53,39,,,,,238.86667509999825,239.51729729998624,239.51729729998624,240.018599300005,315,315,240.018599300005,240.018599300005,240.018599300005,240.018599300005,240.018599300005,240.018599300005,240.018599300005,240.018599300005,240.018599300005,240.3850367999985,240.3850367999985,240.3850367999985,240.3850367999985,240.3850367999985,240.3850367999985,240.3850367999985,240.3850367999985,240.3850367999985,23,0,,,240.3850367999985,240.5852722999989,6.1,240.5852722999989,1,6.1,1,1,1000,num_4,4.877946099994006,,20,2,2026-03-02_17h19.44.610,2026A_exp2,2022.2.4,59.93364146575193,
1,0,4.9,0.0,1,0,54,54,38,,,,,245.49088060000213,246.14888009999413,246.14888009999413,246.6418725999829,315,45,246.6418725999829,246.6418725999829,246.6418725999829,246.6418725999829,246.6418725999829,246.6418725999829,246.6418725999829,246.6418725999829,246.6418725999829,247.00824699999066,247.00824699999066,247.00824699999066,247.00824699999066,247.00824699999066,247.00824699999066,247.00824699999066,247.00824699999066,247.00824699999066,23,0,,,247.00824699999066,247.2216559999797,0.0,247.2216559999797,0,0.0,0,1,1000,num_1,1.4809505000011995,,20,2,2026-03-02_17h19.44.610,2026A_exp2,2022.2.4,59.93364146575193,
1000,1,0.0,6.1,0,0,55,55,9,,,,,248.7265329999791,249.37039850000292,249.37039850000292,249.8619611999893,45,315,249.8619611999893,249.8619611999893,249.8619611999893,249.8619611999893,249.8619611999893,249.8619611999893,249.8619611999893,249.8619611999893,249.8619611999893,250.22812559999875,250.22812559999875,250.22812559999875,250.22812559999875,250.22812559999875,250.22812559999875,250.22812559999875,250.22812559999875,250.22812559999875,23,0,,,250.22812559999875,250.43028479997884,1000,250.43028479997884,1000,1000,1000,1000,1,num_2,0.7447303000080865,,20,2,2026-03-02_17h19.44.610,2026A_exp2,2022.2.4,59.93364146575193,
1,0,0.0,0.0,1,0,56,56,73,,,,,251.1958304999862,251.84651999999187,251.84651999999187,252.34737049997784,315,315,252.34737049997784,252.34737049997784,252.34737049997784,252.34737049997784,252.34737049997784,252.34737049997784,252.34737049997784,252.34737049997784,252.34737049997784,252.71402129999478,252.71402129999478,252.71402129999478,252.71402129999478,252.71402129999478,252.71402129999478,252.71402129999478,252.71402129999478,252.71402129999478,23,0,,,252.71402129999478,252.9142161999771,0.0,252.9142161999771,0,0.0,0,1,1000,num_1,2.9406165999826044,,20,2,2026-03-02_17h19.44.610,2026A_exp2,2022.2.4,59.93364146575193,
1000,1,0.0,6.1,0,0,57,57,37,,,,,255.88373729999876,256.54275589997997,256.54275589997997,257.0465431000048,315,315,257.0465431000048,257.0465431000048,257.0465431000048,257.0465431000048,257.0465431000048,257.0465431000048,257.0465431000048,257.0465431000048,257.0465431000048,257.40184199999203,257.40184199999203,257.40184199999203,257.40184199999203,257.40184199999203,257.40184199999203,257.40184199999203,257.40184199999203,257.40184199999203,23,0,,,257.40184199999203,257.60380609999993,1000,257.60380609999993,1000,1000,1000,1000,1,num_2,0.706866299995454,,20,2,2026-03-02_17h19.44.610,2026A_exp2,2022.2.4,59.93364146575193,
1,0,0.0,6.1,1,0,58,58,36,,,,,258.336195699987,258.9869112999877,258.9869112999877,259.4879926999856,45,45,259.4879926999856,259.4879926999856,259.4879926999856,259.4879926999856,259.4879926999856,259.4879926999856,259.4879926999856,259.4879926999856,259.4879926999856,259.83781080000335,259.83781080000335,259.83781080000335,259.83781080000335,259.83781080000335,259.83781080000335,259.83781080000335,259.83781080000335,259.83781080000335,22,0,,,259.83781080000335,260.0381004999799,6.1,260.0381004999799,1,6.1,1,1,1000,num_4,1.2898350000032224,,20,2,2026-03-02_17h19.44.610,2026A_exp2,2022.2.4,59.93364146575193,
1000,1,3.7,4.9,1,0,59,59,44,,,,,261.35585150000406,262.00648509999155,262.00648509999155,262.49112349998904,45,315,262.49112349998904,262.49112349998904,262.49112349998904,262.49112349998904,262.49112349998904,262.49112349998904,262.49112349998904,262.49112349998904,262.49112349998904,262.8574646000052,262.8574646000052,262.8574646000052,262.8574646000052,262.8574646000052,262.8574646000052,262.8574646000052,262.8574646000052,262.8574646000052,23,0,,,262.8574646000052,263.05979099997785,1000,263.05979099997785,1000,1000,1000,1000,0,num_3,2.5236932999978308,,20,2,2026-03-02_17h19.44.610,2026A_exp2,2022.2.4,59.93364146575193,
0,0,0.0,0.0,1,0,60,60,71,,,,,265.6100166999968,266.26102939998964,266.26102939998964,266.76200479999534,315,45,266.76200479999534,266.76200479999534,266.76200479999534,266.76200479999534,266.76200479999534,266.76200479999534,266.76200479999534,266.76200479999534,266.76200479999534,267.12834689999,267.12834689999,267.12834689999,267.12834689999,267.12834689999,267.12834689999,267.12834689999,267.12834689999,267.12834689999,23,0,,,267.12834689999,267.3284861999855,0.0,267.3284861999855,0,0.0,0,1,1000,num_1,1.5111282999860123,,20,2,2026-03-02_17h19.44.610,2026A_exp2,2022.2.4,59.93364146575193,
1,0,4.9,0.0,0,0,61,61,58,,,,,268.8633036999963,269.5141064999916,269.5141064999916,270.01515170000494,315,45,270.01515170000494,270.01515170000494,270.01515170000494,270.01515170000494,270.01515170000494,270.01515170000494,270.01515170000494,270.01515170000494,270.01515170000494,270.38175469997805,270.38175469997805,270.38175469997805,270.38175469997805,270.38175469997805,270.38175469997805,270.38175469997805,270.38175469997805,270.38175469997805,23,0,,,270.38175469997805,270.58173720000195,4.9,270.58173720000195,1,4.9,1,1,1000,num_4,1.4811014999868348,,20,2,2026-03-02_17h19.44.610,2026A_exp2,2022.2.4,59.93364146575193,
1000,1,0.0,0.0,0,0,62,62,64,,,,,272.08344349998515,272.7422828999988,272.7422828999988,273.2485194999899,45,45,273.2485194999899,273.2485194999899,273.2485194999899,273.2485194999899,273.2485194999899,273.2485194999899,273.2485194999899,273.2485194999899,273.2485194999899,273.60166719998233,273.60166719998233,273.60166719998233,273.60166719998233,273.60166719998233,273.60166719998233,273.60166719998233,273.60166719998233,273.60166719998233,23,0,,,273.60166719998233,273.81258139997954,1000,273.81258139997954,1000,1000,1000,1000,0,num_3,1.218315900012385,,20,2,2026-03-02_17h19.44.610,2026A_exp2,2022.2.4,59.93364146575193,
1,0,0.0,0.0,1,0,63,63,6,,,,,275.0529317999899,275.7044684999855,275.7044684999855,276.2047735999804,315,45,276.2047735999804,276.2047735999804,276.2047735999804,276.2047735999804,276.2047735999804,276.2047735999804,276.2047735999804,276.2047735999804,276.2047735999804,276.57123109998065,276.57123109998065,276.57123109998065,276.57123109998065,276.57123109998065,276.57123109998065,276.57123109998065,276.57123109998065,276.57123109998065,23,0,,,276.57123109998065,276.77143510000315,0.0,276.77143510000315,0,0.0,0,1,1000,num_1,2.219279099983396,,20,2,2026-03-02_17h19.44.610,2026A_exp2,2022.2.4,59.93364146575193,
1000,1,4.9,0.0,1,0,64,64,5,,,,,279.0067902999872,279.65753939998103,279.65753939998103,280.1419949999836,45,45,280.1419949999836,280.1419949999836,280.1419949999836,280.1419949999836,280.1419949999836,280.1419949999836,280.1419949999836,280.1419949999836,280.1419949999836,280.5084472000017,280.5084472000017,280.5084472000017,280.5084472000017,280.5084472000017,280.5084472000017,280.5084472000017,280.5084472000017,280.5084472000017,2,3,"[0.0012382999993860722, 0.18362360002356581, 0.2167319000000134]","[0.16644670002278872, 0.19983460000366904, 0.36714990000473335]",280.5084472000017,280.7103959999804,1000,280.7103959999804,1000,1000,1000,1000,0,num_3,0.7049691000138409,,20,2,2026-03-02_17h19.44.610,2026A_exp2,2022.2.4,59.93364146575193,
1,0,0.0,6.1,0,0,65,65,11,,,,,281.4427280999953,282.09330399998,282.09330399998,282.6062194999831,45,45,282.6062194999831,282.6062194999831,282.6062194999831,282.6062194999831,282.6062194999831,282.6062194999831,282.6062194999831,282.6062194999831,282.6062194999831,282.944399400003,282.944399400003,282.944399400003,282.944399400003,282.944399400003,282.944399400003,282.944399400003,282.944399400003,282.944399400003,22,0,,,282.944399400003,283.14439499998116,0.0,283.16107069997815,0,0.0,0,1,1000,num_1,1.1016737000027206,,20,2,2026-03-02_17h19.44.610,2026A_exp2,2022.2.4,59.93364146575193,
1,0,3.7,0.0,0,0,66,66,3,,,,,284.27874249999877,284.9399087000056,284.9399087000056,285.4140514000028,315,315,285.4140514000028,285.4140514000028,285.4140514000028,285.4140514000028,285.4140514000028,285.4140514000028,285.4140514000028,285.4140514000028,285.4140514000028,285.7802734999859,285.7802734999859,285.7802734999859,285.7802734999859,285.7802734999859,285.7802734999859,285.7802734999859,285.7802734999859,285.7802734999859,15,7,"[0.017414200003258884, 0.050223899976117536, 0.11717479999060743, 0.1502856999868527, 0.18362799999886192, 0.2502829000004567, 0.3505052999826148]","[0.03344559998367913, 0.06687169999349862, 0.13356029998976737, 0.16692439999314956, 0.23358859997824766, 0.2670862999802921, 0.367171399993822]",285.7802734999859,285.98052270000335,3.7,285.98052270000335,1,3.7,1,1,1000,num_4,1.6103344000002835,,20,2,2026-03-02_17h19.44.610,2026A_exp2,2022.2.4,59.93364146575193,
1000,1,0.0,0.0,0,0,67,67,18,,,,,287.61539209997864,288.2662333000044,288.2662333000044,288.76044459998957,45,315,288.76044459998957,288.76044459998957,288.76044459998957,288.76044459998957,288.76044459998957,288.76044459998957,288.76044459998957,288.76044459998957,288.76044459998957,289.1170515999838,289.1170515999838,289.1170515999838,289.1170515999838,289.1170515999838,289.1170515999838,289.1170515999838,289.1170515999838,289.1170515999838,23,0,,,289.1170515999838,289.3302974999824,1000,289.3302974999824,1000,1000,1000,1000,0,num_3,3.4206200999906287,,20,2,2026-03-02_17h19.44.610,2026A_exp2,2022.2.4,59.93364146575193,
1000,1,0.0,0.0,0,0,68,68,74,,,,,292.77072539998335,293.423452499992,293.423452499992,293.91147019999335,45,315,293.91147019999335,293.91147019999335,293.91147019999335,293.91147019999335,293.91147019999335,293.91147019999335,293.91147019999335,293.91147019999335,293.91147019999335,294.2722681000014,294.2722681000014,294.2722681000014,294.2722681000014,294.2722681000014,294.2722681000014,294.2722681000014,294.2722681000014,294.2722681000014,23,0,,,294.2722681000014,294.4764617999899,1000,294.4764617999899,1000,1000,1000,1000,0,num_3,0.9548014999891166,,20,2,2026-03-02_17h19.44.610,2026A_exp2,2022.2.4,59.93364146575193,
1000,1,0.0,0.0,1,0,69,69,12,,,,,295.4565459000005,296.10725739999907,296.10725739999907,296.60823650000384,45,315,296.60823650000384,296.60823650000384,296.60823650000384,296.60823650000384,296.60823650000384,296.60823650000384,296.60823650000384,296.60823650000384,296.60823650000384,296.9582814000023,296.9582814000023,296.9582814000023,296.9582814000023,296.9582814000023,296.9582814000023,296.9582814000023,296.9582814000023,296.9582814000023,22,0,,,296.9582814000023,297.1865107000049,1000,297.1865107000049,1000,1000,1000,1000,0,num_3,0.9968747000093572,,20,2,2026-03-02_17h19.44.610,2026A_exp2,2022.2.4,59.93364146575193,
1000,1,0.0,3.7,0,0,70,70,78,,,,,298.2094609999913,298.8599532999797,298.8599532999797,299.34506550000515,315,315,299.34506550000515,299.34506550000515,299.34506550000515,299.34506550000515,299.34506550000515,299.34506550000515,299.34506550000515,299.34506550000515,299.34506550000515,299.7110533999803,299.7110533999803,299.7110533999803,299.7110533999803,299.7110533999803,299.7110533999803,299.7110533999803,299.7110533999803,299.7110533999803,23,0,,,299.7110533999803,299.9268138000043,1000,299.9268138000043,1000,1000,1000,1000,1,num_2,0.6326084999891464,,20,2,2026-03-02_17h19.44.610,2026A_exp2,2022.2.4,59.93364146575193,
1,0,6.1,0.0,0,0,71,71,70,,,,,300.5782957999909,301.22903220000444,301.22903220000444,301.73018869999214,315,45,301.73018869999214,301.73018869999214,301.73018869999214,301.73018869999214,301.73018869999214,301.73018869999214,301.73018869999214,301.73018869999214,301.73018869999214,302.0966707000043,302.0966707000043,302.0966707000043,302.0966707000043,302.0966707000043,302.0966707000043,302.0966707000043,302.0966707000043,302.0966707000043,23,0,,,302.0966707000043,302.29685309997876,6.1,302.29685309997876,1,6.1,1,1,1000,num_4,1.5903725999814924,,20,2,2026-03-02_17h19.44.610,2026A_exp2,2022.2.4,59.93364146575193,
1000,1,0.0,6.1,1,0,72,72,62,,,,,303.91499900000053,304.56592049999745,304.56592049999745,305.05029029998695,315,315,305.05029029998695,305.05029029998695,305.05029029998695,305.05029029998695,305.05029029998695,305.05029029998695,305.05029029998695,305.05029029998695,305.05029029998695,305.4165218999842,305.4165218999842,305.4165218999842,305.4165218999842,305.4165218999842,305.4165218999842,305.4165218999842,305.4165218999842,305.4165218999842,23,0,,,305.4165218999842,305.61869699999806,1000,305.61869699999806,1000,1000,1000,1000,1,num_2,0.8125885000044946,,20,2,2026-03-02_17h19.44.610,2026A_exp2,2022.2.4,59.93364146575193,
1,0,3.7,0.0,1,0,73,73,19,,,,,306.45104649997666,307.1017784999858,307.1017784999858,307.60273699997924,45,315,307.60273699997924,307.60273699997924,307.60273699997924,307.60273699997924,307.60273699997924,307.60273699997924,307.60273699997924,307.60273699997924,307.60273699997924,307.969248599984,307.969248599984,307.969248599984,307.969248599984,307.969248599984,307.969248599984,307.969248599984,307.969248599984,307.969248599984,23,0,,,307.969248599984,308.1693780999922,0.0,308.1693780999922,0,0.0,0,1,1000,num_1,1.2534588999988046,,20,2,2026-03-02_17h19.44.610,2026A_exp2,2022.2.4,59.93364146575193,
1000,1,0.0,0.0,1,0,74,74,33,,,,,309.45362600000226,310.08764129999327,310.08764129999327,310.5894830999896,45,45,310.5894830999896,310.5894830999896,310.5894830999896,310.5894830999896,310.5894830999896,310.5894830999896,310.5894830999896,310.5894830999896,310.5894830999896,310.95541669998784,310.95541669998784,310.95541669998784,310.95541669998784,310.95541669998784,310.95541669998784,310.95541669998784,310.95541669998784,310.95541669998784,23,0,,,310.95541669998784,311.15542579998146,1000,311.15542579998146,1000,1000,1000,1000,0,num_3,2.3075624000048265,,20,2,2026-03-02_17h19.44.610,2026A_exp2,2022.2.4,59.93364146575193,
1,0,0.0,0.0,1,0,75,75,87,,,,,313.4925547000021,314.12531109998235,314.12531109998235,314.6426528999873,315,315,314.6426528999873,314.6426528999873,314.6426528999873,314.6426528999873,314.6426528999873,314.6426528999873,314.6426528999873,314.6426528999873,314.6426528999873,314.99298579999595,314.99298579999595,314.99298579999595,314.99298579999595,314.99298579999595,314.99298579999595,314.99298579999595,314.99298579999595,314.99298579999595,23,0,,,314.99298579999595,315.193136899994,0.0,315.193136899994,0,0.0,0,1,1000,num_1,1.6307457000075374,,20,2,2026-03-02_17h19.44.610,2026A_exp2,2022.2.4,59.93364146575193,
1,0,0.0,0.0,0,0,76,76,63,,,,,316.844637400005,317.49531639998895,317.49531639998895,317.97991259998525,45,315,317.97991259998525,317.97991259998525,317.97991259998525,317.97991259998525,317.97991259998525,317.97991259998525,317.97991259998525,317.97991259998525,317.97991259998525,318.3463134999911,318.3463134999911,318.3463134999911,318.3463134999911,318.3463134999911,318.3463134999911,318.3463134999911,318.3463134999911,318.3463134999911,23,0,,,318.3463134999911,318.5464379999903,0.0,318.5464379999903,0,0.0,0,1,1000,num_1,1.9094337999995332,,20,2,2026-03-02_17h19.44.610,2026A_exp2,2022.2.4,59.93364146575193,
1000,1,4.9,0.0,0,0,77,77,54,,,,,320.4815825999831,321.1322932000039,321.1322932000039,321.6169398999773,315,45,321.6169398999773,321.6169398999773,321.6169398999773,321.6169398999773,321.6169398999773,321.6169398999773,321.6169398999773,321.6169398999773,321.6169398999773,321.98294389998773,321.98294389998773,321.98294389998773,321.98294389998773,321.98294389998773,321.98294389998773,321.98294389998773,321.98294389998773,321.98294389998773,23,0,,,321.98294389998773,322.1850354000053,1000,322.1850354000053,1000,1000,1000,1000,0,num_3,0.7746732000086922,,20,2,2026-03-02_17h19.44.610,2026A_exp2,2022.2.4,59.93364146575193,
1,0,6.1,4.9,0,0,78,78,24,,,,,322.98424550000345,323.634931699984,323.634931699984,324.136061600002,45,315,324.136061600002,324.136061600002,324.136061600002,324.136061600002,324.136061600002,324.136061600002,324.136061600002,324.136061600002,324.136061600002,324.48572979998426,324.48572979998426,324.48572979998426,324.48572979998426,324.48572979998426,324.48572979998426,324.48572979998426,324.48572979998426,324.48572979998426,20,2,"[0.2670656999980565, 0.30049069999950007]","[0.28376909997314215, 0.31719479997991584]",324.48572979998426,324.6858704999904,6.1,324.7026828999806,1,6.1,1,1,1000,num_4,1.136047599982703,,20,2,2026-03-02_17h19.44.610,2026A_exp2,2022.2.4,59.93364146575193,
1000,1,0.0,6.1,1,0,79,79,88,,,,,325.8703009999881,326.52112769999076,326.52112769999076,327.0057084999862,45,315,327.0057084999862,327.0057084999862,327.0057084999862,327.0057084999862,327.0057084999862,327.0057084999862,327.0057084999862,327.0057084999862,327.0057084999862,327.3719508999784,327.3719508999784,327.3719508999784,327.3719508999784,327.3719508999784,327.3719508999784,327.3719508999784,327.3719508999784,327.3719508999784,23,0,,,327.3719508999784,327.57428820000496,1000,327.57428820000496,1000,1000,1000,1000,1,num_2,0.7526162000140175,,20,2,2026-03-02_17h19.44.610,2026A_exp2,2022.2.4,59.93364146575193,
1000,1,0.0,0.0,0,0,80,80,81,,,,,328.3563651999866,329.0070266999828,329.0070266999828,329.4912844999926,315,45,329.4912844999926,329.4912844999926,329.4912844999926,329.4912844999926,329.4912844999926,329.4912844999926,329.4912844999926,329.4912844999926,329.4912844999926,329.85782720000134,329.85782720000134,329.85782720000134,329.85782720000134,329.85782720000134,329.85782720000134,329.85782720000134,329.85782720000134,329.85782720000134,23,0,,,329.85782720000134,330.0579588999972,1000,330.0579588999972,1000,1000,1000,1000,0,num_3,2.9652372999989893,,20,2,2026-03-02_17h19.44.610,2026A_exp2,2022.2.4,59.93364146575193,
1,0,0.0,3.7,0,0,81,81,61,,,,,333.04422290000366,333.69485359999817,333.69485359999817,334.1960426000005,45,45,334.1960426000005,334.1960426000005,334.1960426000005,334.1960426000005,334.1960426000005,334.1960426000005,334.1960426000005,334.1960426000005,334.1960426000005,334.5625732000044,334.5625732000044,334.5625732000044,334.5625732000044,334.5625732000044,334.5625732000044,334.5625732000044,334.5625732000044,334.5625732000044,23,0,,,334.5625732000044,334.76261899998644,0.0,334.76261899998644,0,0.0,0,1,1000,num_1,2.716394199989736,,20,2,2026-03-02_17h19.44.610,2026A_exp2,2022.2.4,59.93364146575193,
1000,1,6.1,0.0,0,0,82,82,14,,,,,337.4985606999835,338.1493228999898,338.1493228999898,338.65008679998573,315,45,338.65008679998573,338.65008679998573,338.65008679998573,338.65008679998573,338.65008679998573,338.65008679998573,338.65008679998573,338.65008679998573,338.65008679998573,339.00033029998303,339.00033029998303,339.00033029998303,339.00033029998303,339.00033029998303,339.00033029998303,339.00033029998303,339.00033029998303,339.00033029998303,23,0,,,339.00033029998303,339.21426280000014,1000,339.21426280000014,1000,1000,1000,1000,0,num_3,0.7129064000037033,,20,2,2026-03-02_17h19.44.610,2026A_exp2,2022.2.4,59.93364146575193,
1000,1,3.7,0.0,0,0,83,83,57,,,,,339.95112799998606,340.61289689998375,340.61289689998375,341.1053009000025,315,315,341.1053009000025,341.1053009000025,341.1053009000025,341.1053009000025,341.1053009000025,341.1053009000025,341.1053009000025,341.1053009000025,341.1053009000025,341.46936049999204,341.46936049999204,341.46936049999204,341.46936049999204,341.46936049999204,341.46936049999204,341.46936049999204,341.46936049999204,341.46936049999204,23,0,,,341.46936049999204,341.6804054999957,1000,341.6804054999957,1000,1000,1000,1000,0,num_3,0.6717720000015106,,20,2,2026-03-02_17h19.44.610,2026A_exp2,2022.2.4,59.93364146575193,
1000,1,6.1,0.0,1,0,84,84,75,,,,,342.3722046999901,343.02100199999404,343.02100199999404,343.5222571999766,315,45,343.5222571999766,343.5222571999766,343.5222571999766,343.5222571999766,343.5222571999766,343.5222571999766,343.5222571999766,343.5222571999766,343.5222571999766,343.8884707999823,343.8884707999823,343.8884707999823,343.8884707999823,343.8884707999823,343.8884707999823,343.8884707999823,343.8884707999823,343.8884707999823,23,0,,,343.8884707999823,344.09054710000055,1000,344.09054710000055,1000,1000,1000,1000,0,num_3,0.772575200011488,,20,2,2026-03-02_17h19.44.610,2026A_exp2,2022.2.4,59.93364146575193,
1000,1,0.0,0.0,1,0,85,85,27,,,,,344.8918743999966,345.5401167999953,345.5401167999953,346.0410528999928,315,315,346.0410528999928,346.0410528999928,346.0410528999928,346.0410528999928,346.0410528999928,346.0410528999928,346.0410528999928,346.0410528999928,346.0410528999928,346.40768889998435,346.40768889998435,346.40768889998435,346.40768889998435,346.40768889998435,346.40768889998435,346.40768889998435,346.40768889998435,346.40768889998435,23,0,,,346.40768889998435,346.6083147999889,1000,346.6083147999889,1000,1000,1000,1000,0,num_3,1.6707420999882743,,20,2,2026-03-02_17h19.44.610,2026A_exp2,2022.2.4,59.93364146575193,
1,0,0.0,6.1,0,0,86,86,60,,,,,348.3094920000003,348.96040959999664,348.96040959999664,349.4612562999828,315,315,349.4612562999828,349.4612562999828,349.4612562999828,349.4612562999828,349.4612562999828,349.4612562999828,349.4612562999828,349.4612562999828,349.4612562999828,349.8276088999992,349.8276088999992,349.8276088999992,349.8276088999992,349.8276088999992,349.8276088999992,349.8276088999992,349.8276088999992,349.8276088999992,23,0,,,349.8276088999992,350.0279713999771,0.0,350.0279713999771,0,0.0,0,1,1000,num_1,1.3316701999865472,,20,2,2026-03-02_17h19.44.610,2026A_exp2,2022.2.4,59.93364146575193,
1000,1,6.1,0.0,1,0,87,87,69,,,,,351.3791385999939,352.0300043000025,352.0300043000025,352.51443029998336,315,315,352.51443029998336,352.51443029998336,352.51443029998336,352.51443029998336,352.51443029998336,352.51443029998336,352.51443029998336,352.51443029998336,352.51443029998336,352.88100439999835,352.88100439999835,352.88100439999835,352.88100439999835,352.88100439999835,352.88100439999835,352.88100439999835,352.88100439999835,352.88100439999835,23,0,,,352.88100439999835,353.0829098999966,1000,353.0829098999966,1000,1000,1000,1000,0,num_3,0.6761976999987382,,20,2,2026-03-02_17h19.44.610,2026A_exp2,2022.2.4,59.93364146575193,
1000,1,3.7,4.9,1,0,88,88,46,,,,,353.78193369999644,354.4323652999883,354.4323652999883,354.9165102999832,315,315,354.9165102999832,354.9165102999832,354.9165102999832,354.9165102999832,354.9165102999832,354.9165102999832,354.9165102999832,354.9165102999832,354.9165102999832,355.28317320000497,355.28317320000497,355.28317320000497,355.28317320000497,355.28317320000497,355.28317320000497,355.28317320000497,355.28317320000497,355.28317320000497,23,0,,,355.28317320000497,355.4918464999937,1000,355.4918464999937,1000,1000,1000,1000,0,num_3,0.979805100010708,,20,2,2026-03-02_17h19.44.610,2026A_exp2,2022.2.4,59.93364146575193,
1000,1,6.1,6.1,1,0,89,89,77,,,,,356.50092579997727,357.15237799999886,357.15237799999886,357.65644029999385,315,45,357.65644029999385,357.65644029999385,357.65644029999385,357.65644029999385,357.65644029999385,357.65644029999385,357.65644029999385,357.65644029999385,357.65644029999385,358.0193597000034,358.0193597000034,358.0193597000034,358.0193597000034,358.0193597000034,358.0193597000034,358.0193597000034,358.0193597000034,358.0193597000034,23,0,,,358.0193597000034,358.22141159998137,1000,358.22141159998137,1000,1000,1000,1000,0,num_3,0.6652744000020903,,20,2,2026-03-02_17h19.44.610,2026A_exp2,2022.2.4,59.93364146575193,
,,,,,,,,,,,,,,,,,,,,,,,,,,,,,,,,,,,,,,,,,,,,,,,,,,,,358.9120730999857,,,,,,,
