validity,detectorcomp,contrastCW,contrastCCW,precueCWorCCW,block_80trials.thisRepN,block_80trials.thisTrialN,block_80trials.thisN,block_80trials.thisIndex,etRecord.started,etRecord.stopped,text.started,text.stopped,text_4.started,text_4.stopped,text_6.started,text_6.stopped,oriCW,oriCCW,roi_2.started,grating_UR.started,grating_UL.started,grating_LR.started,grating_LL.started,noise_UR.started,noise_UL.started,noise_LR.started,noise_LL.started,roi_2.stopped,grating_UR.stopped,grating_UL.stopped,grating_LR.stopped,grating_LL.stopped,noise_UR.stopped,noise_UL.stopped,noise_LR.stopped,noise_LL.stopped,outframe,roi_2.numLooks,roi_2.timesOn,roi_2.timesOff,text_2.started,text_2.stopped,probedcontrast,key_resp.started,respdetect,relevantContrast,correctDetect,TorFdetect,respCWorCCW,key_resp.keys,key_resp.rt,feedback_display_.started,participantNo,blockNo,date,expName,psychopyVersion,frameRate,
1000,1,0.0,0.0,0,0,0,0,7,3.2400013878941536e-05,3.2400013878941536e-05,47.94413359998725,49.94666910008527,49.94666910008527,50.581084500066936,50.581084500066936,51.10395450005308,45,315,51.10395450005308,51.10395450005308,51.10395450005308,51.10395450005308,51.10395450005308,51.10395450005308,51.10395450005308,51.10395450005308,51.10395450005308,51.44851600006223,51.44851600006223,51.44851600006223,51.44851600006223,51.44851600006223,51.44851600006223,51.44851600006223,51.44851600006223,51.44851600006223,0,1,[0.0009171001147478819],[0.36740270000882447],51.44851600006223,51.65563079994172,1000,51.65563079994172,1000,1000,1000,1000,0,num_3,0.5290496998932213,,33,13,2026-03-12_18h22.39.240,2026A_exp2,2022.2.4,59.95725047597206,
1000,1,0.0,0.0,1,0,1,1,3,,,,,52.21614659996703,52.86645109998062,52.86645109998062,53.35082729998976,45,315,53.35082729998976,53.35082729998976,53.35082729998976,53.35082729998976,53.35082729998976,53.35082729998976,53.35082729998976,53.35082729998976,53.35082729998976,53.71747469995171,53.71747469995171,53.71747469995171,53.71747469995171,53.71747469995171,53.71747469995171,53.71747469995171,53.71747469995171,53.71747469995171,0,1,[0.001242700032889843],[0.3670514998957515],53.71747469995171,53.917748800013214,1000,53.917748800013214,1000,1000,1000,1000,1,num_2,0.24230869999155402,,33,13,2026-03-12_18h22.39.240,2026A_exp2,2022.2.4,59.95725047597206,
0,0,3.7,4.9,0,0,2,2,77,,,,,54.184565500123426,54.8352034999989,54.8352034999989,55.33641170011833,45,45,55.33641170011833,55.33641170011833,55.33641170011833,55.33641170011833,55.33641170011833,55.33641170011833,55.33641170011833,55.33641170011833,55.33641170011833,55.70275960001163,55.70275960001163,55.70275960001163,55.70275960001163,55.70275960001163,55.70275960001163,55.70275960001163,55.70275960001163,55.70275960001163,0,1,[0.001238199882209301],[0.367163100047037],55.70275960001163,55.90298709995113,4.9,55.90298709995113,1,4.9,1,1,1000,num_4,0.569608099758625,,33,13,2026-03-12_18h22.39.240,2026A_exp2,2022.2.4,59.95725047597206,
1000,1,0.0,6.1,0,0,3,3,16,,,,,56.50356879993342,57.15439929999411,57.15439929999411,57.63857439998537,315,45,57.63857439998537,57.63857439998537,57.63857439998537,57.63857439998537,57.63857439998537,57.63857439998537,57.63857439998537,57.63857439998537,57.63857439998537,58.00508529995568,58.00508529995568,58.00508529995568,58.00508529995568,58.00508529995568,58.00508529995568,58.00508529995568,58.00508529995568,58.00508529995568,0,1,[0.0012799999676644802],[0.3670594000723213],58.00508529995568,58.20680289994925,1000,58.20680289994925,1000,1000,1000,1000,1,num_2,0.4903529998846352,,33,13,2026-03-12_18h22.39.240,2026A_exp2,2022.2.4,59.95725047597206,
1,0,0.0,6.1,1,0,4,4,46,,,,,58.72240340011194,59.37306510005146,59.37306510005146,59.87406580010429,45,315,59.87406580010429,59.87406580010429,59.87406580010429,59.87406580010429,59.87406580010429,59.87406580010429,59.87406580010429,59.87406580010429,59.87406580010429,60.24031880008988,60.24031880008988,60.24031880008988,60.24031880008988,60.24031880008988,60.24031880008988,60.24031880008988,60.24031880008988,60.24031880008988,7,1,[0.11687040003016591],[0.3669018999207765],60.24031880008988,60.44089980004355,6.1,60.44089980004355,1,6.1,1,1,1000,num_4,0.5353348997887224,,33,13,2026-03-12_18h22.39.240,2026A_exp2,2022.2.4,59.95725047597206,
1000,1,0.0,0.0,0,0,5,5,72,,,,,61.00801660004072,61.65860059997067,61.65860059997067,62.143129399977624,315,45,62.143129399977624,62.143129399977624,62.143129399977624,62.143129399977624,62.143129399977624,62.143129399977624,62.143129399977624,62.143129399977624,62.143129399977624,62.50956630008295,62.50956630008295,62.50956630008295,62.50956630008295,62.50956630008295,62.50956630008295,62.50956630008295,62.50956630008295,62.50956630008295,22,1,[0.03373960009776056],[0.05029699997976422],62.50956630008295,62.7095602999907,1000,62.7095602999907,1000,1000,1000,1000,0,num_3,0.39533989992924035,,33,13,2026-03-12_18h22.39.240,2026A_exp2,2022.2.4,59.95725047597206,
1000,1,6.1,4.9,0,0,6,6,81,,,,,63.129379800055176,63.781516999937594,63.781516999937594,64.27860429999419,45,315,64.27860429999419,64.27860429999419,64.27860429999419,64.27860429999419,64.27860429999419,64.27860429999419,64.27860429999419,64.27860429999419,64.27860429999419,64.6451103000436,64.6451103000436,64.6451103000436,64.6451103000436,64.6451103000436,64.6451103000436,64.6451103000436,64.6451103000436,64.6451103000436,18,1,[0.30035499995574355],[0.3670840999111533],64.6451103000436,64.84505459992215,1000,64.84505459992215,1000,1000,1000,1000,0,num_3,0.20347869978286326,,33,13,2026-03-12_18h22.39.240,2026A_exp2,2022.2.4,59.95725047597206,
1,0,0.0,0.0,1,0,7,7,38,,,,,65.07882519997656,65.72945159999654,65.72945159999654,66.23055099998601,315,45,66.23055099998601,66.23055099998601,66.23055099998601,66.23055099998601,66.23055099998601,66.23055099998601,66.23055099998601,66.23055099998601,66.23055099998601,66.58032279997133,66.58032279997133,66.58032279997133,66.58032279997133,66.58032279997133,66.58032279997133,66.58032279997133,66.58032279997133,66.58032279997133,0,1,[0.0011972000356763601],[0.350689799990505],66.58032279997133,66.78041180013679,0.0,66.78041180013679,1,0.0,0,0,1000,num_4,0.8517193000297993,,33,13,2026-03-12_18h22.39.240,2026A_exp2,2022.2.4,59.95725047597206,
1000,1,0.0,0.0,0,0,8,8,89,,,,,67.64808190008625,68.29867410007864,68.29867410007864,68.78313240013085,315,315,68.78313240013085,68.78313240013085,68.78313240013085,68.78313240013085,68.78313240013085,68.78313240013085,68.78313240013085,68.78313240013085,68.78313240013085,69.14970299997367,69.14970299997367,69.14970299997367,69.14970299997367,69.14970299997367,69.14970299997367,69.14970299997367,69.14970299997367,69.14970299997367,0,1,[0.0012280999217182398],[0.36680789990350604],69.14970299997367,69.35154350008816,1000,69.35154350008816,1000,1000,1000,1000,0,num_3,0.43284719972871244,,33,13,2026-03-12_18h22.39.240,2026A_exp2,2022.2.4,59.95725047597206,
1,0,0.0,4.9,0,0,9,9,32,,,,,69.80011199996807,70.45088970009238,70.45088970009238,70.95208560000174,45,45,70.95208560000174,70.95208560000174,70.95208560000174,70.95208560000174,70.95208560000174,70.95208560000174,70.95208560000174,70.95208560000174,70.95208560000174,71.31819949997589,71.31819949997589,71.31819949997589,71.31819949997589,71.31819949997589,71.31819949997589,71.31819949997589,71.31819949997589,71.31819949997589,15,3,"[0.0012423999141901731, 0.26682420005090535, 0.33340050000697374]","[0.06656510010361671, 0.28327189991250634, 0.36686170008033514]",71.31819949997589,71.51861390005797,0.0,71.51861390005797,0,0.0,0,1,1000,num_1,0.7384375997353345,,33,13,2026-03-12_18h22.39.240,2026A_exp2,2022.2.4,59.95725047597206,
1000,1,0.0,3.7,1,0,10,10,4,,,,,72.28586790012196,72.93659229995683,72.93659229995683,73.42113290005364,315,45,73.42113290005364,73.42113290005364,73.42113290005364,73.42113290005364,73.42113290005364,73.42113290005364,73.42113290005364,73.42113290005364,73.42113290005364,73.78752120002173,73.78752120002173,73.78752120002173,73.78752120002173,73.78752120002173,73.78752120002173,73.78752120002173,73.78752120002173,73.78752120002173,10,3,"[0.0011946000158786774, 0.18361830012872815, 0.2670877000782639]","[0.03325790003873408, 0.25050790002569556, 0.3671375000849366]",73.78752120002173,73.98976060003042,1000,73.98976060003042,1000,1000,1000,1000,0,num_3,0.4349690000526607,,33,13,2026-03-12_18h22.39.240,2026A_exp2,2022.2.4,59.95725047597206,
1000,1,0.0,0.0,1,0,11,11,55,,,,,74.45468330010772,75.10560210002586,75.10560210002586,75.60664219991304,315,315,75.60664219991304,75.60664219991304,75.60664219991304,75.60664219991304,75.60664219991304,75.60664219991304,75.60664219991304,75.60664219991304,75.60664219991304,75.97299759997986,75.97299759997986,75.97299759997986,75.97299759997986,75.97299759997986,75.97299759997986,75.97299759997986,75.97299759997986,75.97299759997986,0,1,[0.0012776001822203398],[0.3669287001248449],75.97299759997986,76.17528460011818,1000,76.17528460011818,1000,1000,1000,1000,1,num_2,1.2335138998460025,,33,13,2026-03-12_18h22.39.240,2026A_exp2,2022.2.4,59.95725047597206,
1000,1,0.0,0.0,0,0,12,12,64,,,,,77.42437570006587,78.07498889998533,78.07498889998533,78.57629230013117,315,45,78.57629230013117,78.57629230013117,78.57629230013117,78.57629230013117,78.57629230013117,78.57629230013117,78.57629230013117,78.57629230013117,78.57629230013117,78.942703000037,78.942703000037,78.942703000037,78.942703000037,78.942703000037,78.942703000037,78.942703000037,78.942703000037,78.942703000037,0,1,[0.0012483999598771334],[0.36762910010293126],78.942703000037,79.14503689995036,1000,79.14503689995036,1000,1000,1000,1000,0,num_3,0.4792118000332266,,33,13,2026-03-12_18h22.39.240,2026A_exp2,2022.2.4,59.95725047597206,
0,0,0.0,3.7,1,0,13,13,53,,,,,79.64348410000093,80.29394889995456,80.29394889995456,80.79513900005259,45,45,80.79513900005259,80.79513900005259,80.79513900005259,80.79513900005259,80.79513900005259,80.79513900005259,80.79513900005259,80.79513900005259,80.79513900005259,81.16144119994715,81.16144119994715,81.16144119994715,81.16144119994715,81.16144119994715,81.16144119994715,81.16144119994715,81.16144119994715,81.16144119994715,0,1,[0.0012066001072525978],[0.3670314000919461],81.16144119994715,81.36146380007267,0.0,81.36146380007267,0,0.0,0,1,1000,num_1,0.6389260997530073,,33,13,2026-03-12_18h22.39.240,2026A_exp2,2022.2.4,59.95725047597206,
1,0,6.1,0.0,0,0,14,14,85,,,,,82.02897599991411,82.67957359994762,82.67957359994762,83.16409470001236,45,315,83.16409470001236,83.16409470001236,83.16409470001236,83.16409470001236,83.16409470001236,83.16409470001236,83.16409470001236,83.16409470001236,83.16409470001236,83.53055800008588,83.53055800008588,83.53055800008588,83.53055800008588,83.53055800008588,83.53055800008588,83.53055800008588,83.53055800008588,83.53055800008588,23,0,,,83.53055800008588,83.7308386999648,6.1,83.7308386999648,1,6.1,1,1,1000,num_4,0.6536592999473214,,33,13,2026-03-12_18h22.39.240,2026A_exp2,2022.2.4,59.95725047597206,
1000,1,4.9,3.7,0,0,15,15,28,,,,,84.41465559997596,85.06541160005145,85.06541160005145,85.54977030004375,45,315,85.54977030004375,85.54977030004375,85.54977030004375,85.54977030004375,85.54977030004375,85.54977030004375,85.54977030004375,85.54977030004375,85.54977030004375,85.91633590008132,85.91633590008132,85.91633590008132,85.91633590008132,85.91633590008132,85.91633590008132,85.91633590008132,85.91633590008132,85.91633590008132,23,0,,,85.91633590008132,86.11835979996249,1000,86.11835979996249,1000,1000,1000,1000,0,num_3,0.40187589987181127,,33,13,2026-03-12_18h22.39.240,2026A_exp2,2022.2.4,59.95725047597206,
1000,1,0.0,0.0,1,0,16,16,29,,,,,86.55015009990893,87.2009358999785,87.2009358999785,87.70197200006805,45,315,87.70197200006805,87.70197200006805,87.70197200006805,87.70197200006805,87.70197200006805,87.70197200006805,87.70197200006805,87.70197200006805,87.70197200006805,88.06841480010189,88.06841480010189,88.06841480010189,88.06841480010189,88.06841480010189,88.06841480010189,88.06841480010189,88.06841480010189,88.06841480010189,0,1,[0.0009675999172031879],[0.3672511000186205],88.06841480010189,88.27018110011704,1000,88.27018110011704,1000,1000,1000,1000,1,num_2,0.2897420998197049,,33,13,2026-03-12_18h22.39.240,2026A_exp2,2022.2.4,59.95725047597206,
1000,1,0.0,3.7,0,0,17,17,21,,,,,88.58551090001129,89.236283400096,89.236283400096,89.73726349999197,45,315,89.73726349999197,89.73726349999197,89.73726349999197,89.73726349999197,89.73726349999197,89.73726349999197,89.73726349999197,89.73726349999197,89.73726349999197,90.10386899998412,90.10386899998412,90.10386899998412,90.10386899998412,90.10386899998412,90.10386899998412,90.10386899998412,90.10386899998412,90.10386899998412,0,1,[0.0012745000422000885],[0.3672178001143038],90.10386899998412,90.30593280005269,1000,90.30593280005269,1000,1000,1000,1000,1,num_2,0.20686989999376237,,33,13,2026-03-12_18h22.39.240,2026A_exp2,2022.2.4,59.95725047597206,
1,0,3.7,0.0,1,0,18,18,30,,,,,90.53738170000724,91.18812409997918,91.18812409997918,91.6891070001293,315,315,91.6891070001293,91.6891070001293,91.6891070001293,91.6891070001293,91.6891070001293,91.6891070001293,91.6891070001293,91.6891070001293,91.6891070001293,92.05548560013995,92.05548560013995,92.05548560013995,92.05548560013995,92.05548560013995,92.05548560013995,92.05548560013995,92.05548560013995,92.05548560013995,0,1,[0.0011935001239180565],[0.36667210003361106],92.05548560013995,92.25578829995357,0.0,92.25578829995357,0,0.0,0,1,1000,num_1,0.5761243999004364,,33,13,2026-03-12_18h22.39.240,2026A_exp2,2022.2.4,59.95725047597206,
1000,1,4.9,0.0,1,0,19,19,12,,,,,92.856697200099,93.5073150000535,93.5073150000535,93.99170439993031,45,45,93.99170439993031,93.99170439993031,93.99170439993031,93.99170439993031,93.99170439993031,93.99170439993031,93.99170439993031,93.99170439993031,93.99170439993031,94.35801759990864,94.35801759990864,94.35801759990864,94.35801759990864,94.35801759990864,94.35801759990864,94.35801759990864,94.35801759990864,94.35801759990864,0,1,[0.0012064999900758266],[0.3673809999600053],94.35801759990864,94.56010750005953,1000,94.56010750005953,1000,1000,1000,1000,0,num_3,0.3124514997471124,,33,13,2026-03-12_18h22.39.240,2026A_exp2,2022.2.4,59.95725047597206,
1000,1,0.0,0.0,1,0,20,20,56,,,,,94.89169230009429,95.54255310003646,95.54255310003646,96.04356799996458,45,45,96.04356799996458,96.04356799996458,96.04356799996458,96.04356799996458,96.04356799996458,96.04356799996458,96.04356799996458,96.04356799996458,96.04356799996458,96.41020629997365,96.41020629997365,96.41020629997365,96.41020629997365,96.41020629997365,96.41020629997365,96.41020629997365,96.41020629997365,96.41020629997365,0,1,[0.001289500156417489],[0.3668915000744164],96.41020629997365,96.61198440007865,1000,96.61198440007865,1000,1000,1000,1000,1,num_2,0.2676748998928815,,33,13,2026-03-12_18h22.39.240,2026A_exp2,2022.2.4,59.95725047597206,
1000,1,6.1,3.7,1,0,21,21,11,,,,,96.91047680005431,97.57160930009559,97.57160930009559,98.06230049999431,45,45,98.06230049999431,98.06230049999431,98.06230049999431,98.06230049999431,98.06230049999431,98.06230049999431,98.06230049999431,98.06230049999431,98.06230049999431,98.41212860005908,98.41212860005908,98.41212860005908,98.41212860005908,98.41212860005908,98.41212860005908,98.41212860005908,98.41212860005908,98.41212860005908,2,3,"[0.0012443999294191599, 0.050165100023150444, 0.26714359992183745]","[0.033584299962967634, 0.2500171000137925, 0.3506672000512481]",98.41212860005908,98.61399940005504,1000,98.61399940005504,1000,1000,1000,1000,0,num_3,0.1710667998995632,,33,13,2026-03-12_18h22.39.240,2026A_exp2,2022.2.4,59.95725047597206,
0,0,3.7,0.0,1,0,22,22,1,,,,,98.81234430009499,99.46321059996262,99.46321059996262,99.96423560008407,315,315,99.96423560008407,99.96423560008407,99.96423560008407,99.96423560008407,99.96423560008407,99.96423560008407,99.96423560008407,99.96423560008407,99.96423560008407,100.31405539996922,100.31405539996922,100.31405539996922,100.31405539996922,100.31405539996922,100.31405539996922,100.31405539996922,100.31405539996922,100.31405539996922,0,1,[0.0011980999261140823],[0.3505056998692453],100.31405539996922,100.51419249991886,3.7,100.51419249991886,1,3.7,1,1,1000,num_4,0.5898344998713583,,33,13,2026-03-12_18h22.39.240,2026A_exp2,2022.2.4,59.95725047597206,
1000,1,0.0,0.0,0,0,23,23,62,,,,,101.13170969998464,101.78214580006897,101.78214580006897,102.26665020012297,45,45,102.26665020012297,102.26665020012297,102.26665020012297,102.26665020012297,102.26665020012297,102.26665020012297,102.26665020012297,102.26665020012297,102.26665020012297,102.63300830009393,102.63300830009393,102.63300830009393,102.63300830009393,102.63300830009393,102.63300830009393,102.63300830009393,102.63300830009393,102.63300830009393,0,1,[0.001088300021365285],[0.3668276001699269],102.63300830009393,102.83486449997872,1000,102.83486449997872,1000,1000,1000,1000,1,num_2,0.33363060001283884,,33,13,2026-03-12_18h22.39.240,2026A_exp2,2022.2.4,59.95725047597206,
1000,1,4.9,0.0,0,0,24,24,50,,,,,103.18347800010815,103.83412060001865,103.83412060001865,104.33525289990939,315,45,104.33525289990939,104.33525289990939,104.33525289990939,104.33525289990939,104.33525289990939,104.33525289990939,104.33525289990939,104.33525289990939,104.33525289990939,104.70174330007285,104.70174330007285,104.70174330007285,104.70174330007285,104.70174330007285,104.70174330007285,104.70174330007285,104.70174330007285,104.70174330007285,0,1,[0.00119420001283288],[0.3672537000384182],104.70174330007285,104.9036004000809,1000,104.9036004000809,1000,1000,1000,1000,0,num_3,0.30487339990213513,,33,13,2026-03-12_18h22.39.240,2026A_exp2,2022.2.4,59.95725047597206,
1000,1,3.7,0.0,0,0,25,25,35,,,,,105.23547710012645,105.88631510012783,105.88631510012783,106.38750130007975,315,315,106.38750130007975,106.38750130007975,106.38750130007975,106.38750130007975,106.38750130007975,106.38750130007975,106.38750130007975,106.38750130007975,106.38750130007975,106.73702610004693,106.73702610004693,106.73702610004693,106.73702610004693,106.73702610004693,106.73702610004693,106.73702610004693,106.73702610004693,106.73702610004693,0,1,[0.0012639998458325863],[0.3505024998448789],106.73702610004693,106.93886799993925,1000,106.95400319993496,1000,1000,1000,1000,0,num_3,0.3502995998132974,,33,13,2026-03-12_18h22.39.240,2026A_exp2,2022.2.4,59.95725047597206,
1000,1,0.0,3.7,0,0,26,26,43,,,,,107.32092950004153,107.97173890005797,107.97173890005797,108.47284780000336,315,315,108.47284780000336,108.47284780000336,108.47284780000336,108.47284780000336,108.47284780000336,108.47284780000336,108.47284780000336,108.47284780000336,108.47284780000336,108.83916179998778,108.83916179998778,108.83916179998778,108.83916179998778,108.83916179998778,108.83916179998778,108.83916179998778,108.83916179998778,108.83916179998778,0,1,[0.0012020000722259283],[0.3672106000594795],108.83916179998778,109.04110480006784,1000,109.04110480006784,1000,1000,1000,1000,1,num_2,0.33550609997473657,,33,13,2026-03-12_18h22.39.240,2026A_exp2,2022.2.4,59.95725047597206,
1000,1,0.0,0.0,0,0,27,27,65,,,,,109.4062785001006,110.04045330011286,110.04045330011286,110.54163150000386,45,45,110.54163150000386,110.54163150000386,110.54163150000386,110.54163150000386,110.54163150000386,110.54163150000386,110.54163150000386,110.54163150000386,110.54163150000386,110.90795859997161,110.90795859997161,110.90795859997161,110.90795859997161,110.90795859997161,110.90795859997161,110.90795859997161,110.90795859997161,110.90795859997161,0,1,[0.0010242999996989965],[0.3677125000394881],110.90795859997161,111.10973650007509,1000,111.10973650007509,1000,1000,1000,1000,1,num_2,0.4506517997942865,,33,13,2026-03-12_18h22.39.240,2026A_exp2,2022.2.4,59.95725047597206,
1,0,0.0,0.0,1,0,28,28,6,,,,,111.59274370013736,112.24251110013574,112.24251110013574,112.72710989997722,45,45,112.72710989997722,112.72710989997722,112.72710989997722,112.72710989997722,112.72710989997722,112.72710989997722,112.72710989997722,112.72710989997722,112.72710989997722,113.09355739993043,113.09355739993043,113.09355739993043,113.09355739993043,113.09355739993043,113.09355739993043,113.09355739993043,113.09355739993043,113.09355739993043,0,1,[0.0011406999547034502],[0.3673159000463784],113.09355739993043,113.29368419991806,0.0,113.29368419991806,0,0.0,0,1,1000,num_1,0.6823549999389797,,33,13,2026-03-12_18h22.39.240,2026A_exp2,2022.2.4,59.95725047597206,
0,0,4.9,0.0,0,0,29,29,40,,,,,113.99419400002807,114.6449301999528,114.6449301999528,115.14618859998882,45,45,115.14618859998882,115.14618859998882,115.14618859998882,115.14618859998882,115.14618859998882,115.14618859998882,115.14618859998882,115.14618859998882,115.14618859998882,115.49593729991466,115.49593729991466,115.49593729991466,115.49593729991466,115.49593729991466,115.49593729991466,115.49593729991466,115.49593729991466,115.49593729991466,0,1,[0.001173499971628189],[0.3506428999826312],115.49593729991466,115.6960165000055,0.0,115.6960165000055,0,0.0,0,1,1000,num_1,1.0244950999040157,,33,13,2026-03-12_18h22.39.240,2026A_exp2,2022.2.4,59.95725047597206,
1000,1,3.7,4.9,1,0,30,30,71,,,,,116.74697370012291,117.39775300002657,117.39775300002657,117.8821392999962,315,315,117.8821392999962,117.8821392999962,117.8821392999962,117.8821392999962,117.8821392999962,117.8821392999962,117.8821392999962,117.8821392999962,117.8821392999962,118.24870559992269,118.24870559992269,118.24870559992269,118.24870559992269,118.24870559992269,118.24870559992269,118.24870559992269,118.24870559992269,118.24870559992269,0,1,[0.0011946999002248049],[0.3672088000457734],118.24870559992269,118.4506938001141,1000,118.4506938001141,1000,1000,1000,1000,1,num_2,0.35809619980864227,,33,13,2026-03-12_18h22.39.240,2026A_exp2,2022.2.4,59.95725047597206,
1000,1,4.9,6.1,1,0,31,31,5,,,,,118.8357554001268,119.48317559994757,119.48317559994757,119.98451080010273,45,315,119.98451080010273,119.98451080010273,119.98451080010273,119.98451080010273,119.98451080010273,119.98451080010273,119.98451080010273,119.98451080010273,119.98451080010273,120.35067149996758,120.35067149996758,120.35067149996758,120.35067149996758,120.35067149996758,120.35067149996758,120.35067149996758,120.35067149996758,120.35067149996758,0,1,[0.0012342999689280987],[0.36700650001876056],120.35067149996758,120.55257609998807,1000,120.55257609998807,1000,1000,1000,1000,1,num_2,0.3122849997598678,,33,13,2026-03-12_18h22.39.240,2026A_exp2,2022.2.4,59.95725047597206,
1000,1,3.7,6.1,0,0,32,32,60,,,,,120.88448329991661,121.5352374999784,121.5352374999784,122.03617210010998,45,45,122.03617210010998,122.03617210010998,122.03617210010998,122.03617210010998,122.03617210010998,122.03617210010998,122.03617210010998,122.03617210010998,122.03617210010998,122.40245770011097,122.40245770011097,122.40245770011097,122.40245770011097,122.40245770011097,122.40245770011097,122.40245770011097,122.40245770011097,122.40245770011097,0,1,[0.0012974999845027924],[0.3668230001349002],122.40245770011097,122.603056400083,1000,122.603056400083,1000,1000,1000,1000,1,num_2,0.15720699983648956,,33,13,2026-03-12_18h22.39.240,2026A_exp2,2022.2.4,59.95725047597206,
1000,1,3.7,0.0,0,0,33,33,86,,,,,122.78646160010248,123.43715599994175,123.43715599994175,123.92172039998695,45,315,123.92172039998695,123.92172039998695,123.92172039998695,123.92172039998695,123.92172039998695,123.92172039998695,123.92172039998695,123.92172039998695,123.92172039998695,124.2880289000459,124.2880289000459,124.2880289000459,124.2880289000459,124.2880289000459,124.2880289000459,124.2880289000459,124.2880289000459,124.2880289000459,0,1,[0.0012105000205338001],[0.367296899901703],124.2880289000459,124.48844130011275,1000,124.48844130011275,1000,1000,1000,1000,0,num_3,0.5767117997165769,,33,13,2026-03-12_18h22.39.240,2026A_exp2,2022.2.4,59.95725047597206,
1,0,0.0,0.0,0,0,34,34,80,,,,,125.08865869999863,125.73952960013412,125.73952960013412,126.24059340008534,45,45,126.24059340008534,126.24059340008534,126.24059340008534,126.24059340008534,126.24059340008534,126.24059340008534,126.24059340008534,126.24059340008534,126.24059340008534,126.60685280011967,126.60685280011967,126.60685280011967,126.60685280011967,126.60685280011967,126.60685280011967,126.60685280011967,126.60685280011967,126.60685280011967,0,1,[0.001195299904793501],[0.36717340000905097],126.60685280011967,126.80705860001035,0.0,126.80705860001035,1,0.0,0,0,1000,num_4,0.8014769000001252,,33,13,2026-03-12_18h22.39.240,2026A_exp2,2022.2.4,59.95725047597206,
1000,1,0.0,6.1,1,0,35,35,42,,,,,127.62457190011628,128.27531030005775,128.27531030005775,128.75977490004152,315,45,128.75977490004152,128.75977490004152,128.75977490004152,128.75977490004152,128.75977490004152,128.75977490004152,128.75977490004152,128.75977490004152,128.75977490004152,129.12622540001757,129.12622540001757,129.12622540001757,129.12622540001757,129.12622540001757,129.12622540001757,129.12622540001757,129.12622540001757,129.12622540001757,6,1,[0.10009490000084043],[0.3671547998674214],129.12622540001757,129.3279554999899,1000,129.3279554999899,1000,1000,1000,1000,1,num_2,0.21585529972799122,,33,13,2026-03-12_18h22.39.240,2026A_exp2,2022.2.4,59.95725047597206,
1000,1,0.0,4.9,1,0,36,36,37,,,,,129.5598248001188,130.21062529995106,130.21062529995106,130.711746300105,315,315,130.711746300105,130.711746300105,130.711746300105,130.711746300105,130.711746300105,130.711746300105,130.711746300105,130.711746300105,130.711746300105,131.07797380001284,131.07797380001284,131.07797380001284,131.07797380001284,131.07797380001284,131.07797380001284,131.07797380001284,131.07797380001284,131.07797380001284,23,0,,,131.07797380001284,131.2791673000902,1000,131.2791673000902,1000,1000,1000,1000,1,num_2,0.4485293999314308,,33,13,2026-03-12_18h22.39.240,2026A_exp2,2022.2.4,59.95725047597206,
1,0,4.9,4.9,1,0,37,37,9,,,,,131.74565090006217,132.3961189999245,132.3961189999245,132.89721149997786,315,315,132.89721149997786,132.89721149997786,132.89721149997786,132.89721149997786,132.89721149997786,132.89721149997786,132.89721149997786,132.89721149997786,132.89721149997786,133.24705230002292,133.24705230002292,133.24705230002292,133.24705230002292,133.24705230002292,133.24705230002292,133.24705230002292,133.24705230002292,133.24705230002292,0,1,[0.0010874001309275627],[0.3538103001192212],133.24705230002292,133.46112470002845,4.9,133.46112470002845,0,4.9,1,0,1000,num_1,0.6840441999956965,,33,13,2026-03-12_18h22.39.240,2026A_exp2,2022.2.4,59.95725047597206,
1000,1,6.1,0.0,0,0,38,38,58,,,,,134.16434250003658,134.81520970002748,134.81520970002748,135.29969010013156,315,315,135.29969010013156,135.29969010013156,135.29969010013156,135.29969010013156,135.29969010013156,135.29969010013156,135.29969010013156,135.29969010013156,135.29969010013156,135.66624499997124,135.66624499997124,135.66624499997124,135.66624499997124,135.66624499997124,135.66624499997124,135.66624499997124,135.66624499997124,135.66624499997124,16,3,"[0.13352730008773506, 0.1836806999053806, 0.26707609998993576]","[0.1503238999284804, 0.2337493000086397, 0.30041539994999766]",135.66624499997124,135.86824380001053,1000,135.86824380001053,1000,1000,1000,1000,0,num_3,0.37284549977630377,,33,13,2026-03-12_18h22.39.240,2026A_exp2,2022.2.4,59.95725047597206,
1,0,0.0,0.0,1,0,39,39,83,,,,,136.26663530012593,136.91735540004447,136.91735540004447,137.41836529993452,315,45,137.41836529993452,137.41836529993452,137.41836529993452,137.41836529993452,137.41836529993452,137.41836529993452,137.41836529993452,137.41836529993452,137.41836529993452,137.76820469996892,137.76820469996892,137.76820469996892,137.76820469996892,137.76820469996892,137.76820469996892,137.76820469996892,137.76820469996892,137.76820469996892,15,4,"[0.050338299944996834, 0.1502978999633342, 0.23371229995973408, 0.3210837000515312]","[0.08363109990023077, 0.16690320009365678, 0.25020170002244413, 0.35326380003243685]",137.76820469996892,137.97195959999226,0.0,137.97195959999226,0,0.0,0,1,1000,num_1,0.8205829998478293,,33,13,2026-03-12_18h22.39.240,2026A_exp2,2022.2.4,59.95725047597206,
1000,1,3.7,0.0,0,0,40,40,39,,,,,138.81896100006998,139.46989460010082,139.46989460010082,139.9710051000584,315,315,139.9710051000584,139.9710051000584,139.9710051000584,139.9710051000584,139.9710051000584,139.9710051000584,139.9710051000584,139.9710051000584,139.9710051000584,140.33730549993925,140.33730549993925,140.33730549993925,140.33730549993925,140.33730549993925,140.33730549993925,140.33730549993925,140.33730549993925,140.33730549993925,15,4,"[0.0011889999732375145, 0.06685440009459853, 0.26705959998071194, 0.33391809999011457]","[0.05018540006130934, 0.08367959992028773, 0.28386280010454357, 0.36735039995983243]",140.33730549993925,140.53922870010138,1000,140.53922870010138,1000,1000,1000,1000,0,num_3,0.29264679993502796,,33,13,2026-03-12_18h22.39.240,2026A_exp2,2022.2.4,59.95725047597206,
1000,1,0.0,3.7,0,0,41,41,63,,,,,140.8544366999995,141.5051226001233,141.5051226001233,142.00635010004044,315,45,142.00635010004044,142.00635010004044,142.00635010004044,142.00635010004044,142.00635010004044,142.00635010004044,142.00635010004044,142.00635010004044,142.00635010004044,142.37263230001554,142.37263230001554,142.37263230001554,142.37263230001554,142.37263230001554,142.37263230001554,142.37263230001554,142.37263230001554,142.37263230001554,6,3,"[0.0669110999442637, 0.1837414000183344, 0.3003839999437332]","[0.1671351999975741, 0.2837448001373559, 0.3672050000168383]",142.37263230001554,142.57521910010837,1000,142.57521910010837,1000,1000,1000,1000,1,num_2,0.30596479983069,,33,13,2026-03-12_18h22.39.240,2026A_exp2,2022.2.4,59.95725047597206,
0,0,6.1,3.7,0,0,42,42,49,,,,,142.90651679993607,143.557189400075,143.557189400075,144.05826950003393,45,315,144.05826950003393,144.05826950003393,144.05826950003393,144.05826950003393,144.05826950003393,144.05826950003393,144.05826950003393,144.05826950003393,144.05826950003393,144.42482820013538,144.42482820013538,144.42482820013538,144.42482820013538,144.42482820013538,144.42482820013538,144.42482820013538,144.42482820013538,144.42482820013538,0,1,[0.0012334000784903765],[0.3671189001761377],144.42482820013538,144.6250400999561,3.7,144.6250400999561,0,3.7,1,0,1000,num_1,0.598845699802041,,33,13,2026-03-12_18h22.39.240,2026A_exp2,2022.2.4,59.95725047597206,
0,0,0.0,0.0,0,0,43,43,15,,,,,145.24209300009534,145.89290779992007,145.89290779992007,146.3774173001293,315,45,146.3774173001293,146.3774173001293,146.3774173001293,146.3774173001293,146.3774173001293,146.3774173001293,146.3774173001293,146.3774173001293,146.3774173001293,146.74379580002278,146.74379580002278,146.74379580002278,146.74379580002278,146.74379580002278,146.74379580002278,146.74379580002278,146.74379580002278,146.74379580002278,2,3,"[0.001286099897697568, 0.13376270001754165, 0.16705589997582138]","[0.11699080001562834, 0.1503247998189181, 0.36722139990888536]",146.74379580002278,146.94395960005932,0.0,146.94395960005932,1,0.0,0,0,1000,num_4,0.8004339998587966,,33,13,2026-03-12_18h22.39.240,2026A_exp2,2022.2.4,59.95725047597206,
1000,1,3.7,0.0,0,0,44,44,69,,,,,147.76135480008088,148.41217710007913,148.41217710007913,148.89639359991997,45,315,148.89639359991997,148.89639359991997,148.89639359991997,148.89639359991997,148.89639359991997,148.89639359991997,148.89639359991997,148.89639359991997,148.89639359991997,149.26299150008708,149.26299150008708,149.26299150008708,149.26299150008708,149.26299150008708,149.26299150008708,149.26299150008708,149.26299150008708,149.26299150008708,0,1,[0.0012238000053912401],[0.3670395999215543],149.26299150008708,149.46512870001607,1000,149.46512870001607,1000,1000,1000,1000,0,num_3,0.44662019982934,,33,13,2026-03-12_18h22.39.240,2026A_exp2,2022.2.4,59.95725047597206,
0,0,6.1,0.0,0,0,45,45,41,,,,,149.9304557000287,150.58098089997657,150.58098089997657,151.08204030012712,45,45,151.08204030012712,151.08204030012712,151.08204030012712,151.08204030012712,151.08204030012712,151.08204030012712,151.08204030012712,151.08204030012712,151.08204030012712,151.4317886000499,151.4317886000499,151.4317886000499,151.4317886000499,151.4317886000499,151.4317886000499,151.4317886000499,151.4317886000499,151.4317886000499,0,1,[0.0012634999584406614],[0.35040230001322925],151.4317886000499,151.63201580010355,0.0,151.648639800027,0,0.0,0,1,1000,num_1,0.5835622998420149,,33,13,2026-03-12_18h22.39.240,2026A_exp2,2022.2.4,59.95725047597206,
1000,1,0.0,0.0,1,0,46,46,2,,,,,152.2492563999258,152.8831257999409,152.8831257999409,153.38423849991523,315,45,153.38423849991523,153.38423849991523,153.38423849991523,153.38423849991523,153.38423849991523,153.38423849991523,153.38423849991523,153.38423849991523,153.38423849991523,153.75076750013977,153.75076750013977,153.75076750013977,153.75076750013977,153.75076750013977,153.75076750013977,153.75076750013977,153.75076750013977,153.75076750013977,0,1,[0.0011838001664727926],[0.3673047001939267],153.75076750013977,153.9529571000021,1000,153.9529571000021,1000,1000,1000,1000,1,num_2,0.4876401999499649,,33,13,2026-03-12_18h22.39.240,2026A_exp2,2022.2.4,59.95725047597206,
1000,1,3.7,3.7,0,0,47,47,59,,,,,154.46807250007987,155.11887610005215,155.11887610005215,155.61985170003027,45,45,155.61985170003027,155.61985170003027,155.61985170003027,155.61985170003027,155.61985170003027,155.61985170003027,155.61985170003027,155.61985170003027,155.61985170003027,155.98643849999644,155.98643849999644,155.98643849999644,155.98643849999644,155.98643849999644,155.98643849999644,155.98643849999644,155.98643849999644,155.98643849999644,9,1,[0.0012197999749332666],[0.2336830000858754],155.98643849999644,156.18866669991985,1000,156.18866669991985,1000,1000,1000,1000,1,num_2,0.27586149983108044,,33,13,2026-03-12_18h22.39.240,2026A_exp2,2022.2.4,59.95725047597206,
1,0,4.9,0.0,0,0,48,48,66,,,,,156.48665350000374,157.13760169991292,157.13760169991292,157.63866599998437,45,45,157.63866599998437,157.63866599998437,157.63866599998437,157.63866599998437,157.63866599998437,157.63866599998437,157.63866599998437,157.63866599998437,157.63866599998437,158.00504760001786,158.00504760001786,158.00504760001786,158.00504760001786,158.00504760001786,158.00504760001786,158.00504760001786,158.00504760001786,158.00504760001786,0,1,[0.0012076999992132187],[0.36728599993512034],158.00504760001786,158.20531550003216,4.9,158.20531550003216,1,4.9,1,1,1000,num_4,0.5949997999705374,,33,13,2026-03-12_18h22.39.240,2026A_exp2,2022.2.4,59.95725047597206,
1,0,4.9,6.1,0,0,49,49,82,,,,,158.8223250999581,159.47302150004543,159.47302150004543,159.95769540010951,45,315,159.95769540010951,159.95769540010951,159.95769540010951,159.95769540010951,159.95769540010951,159.95769540010951,159.95769540010951,159.95769540010951,159.95769540010951,160.32408019993454,160.32408019993454,160.32408019993454,160.32408019993454,160.32408019993454,160.32408019993454,160.32408019993454,160.32408019993454,160.32408019993454,0,1,[0.0012119999155402184],[0.36719939997419715],160.32408019993454,160.52427539997734,4.9,160.52427539997734,0,4.9,1,0,1000,num_1,0.692726599983871,,33,13,2026-03-12_18h22.39.240,2026A_exp2,2022.2.4,59.95725047597206,
1,0,0.0,0.0,0,0,50,50,87,,,,,161.24147789995186,161.89212010009214,161.89212010009214,162.37674829992466,315,45,162.37674829992466,162.37674829992466,162.37674829992466,162.37674829992466,162.37674829992466,162.37674829992466,162.37674829992466,162.37674829992466,162.37674829992466,162.74313509999774,162.74313509999774,162.74313509999774,162.74313509999774,162.74313509999774,162.74313509999774,162.74313509999774,162.74313509999774,162.74313509999774,0,1,[0.0012332000769674778],[0.36707339994609356],162.74313509999774,162.94333050004207,0.0,162.94333050004207,0,0.0,0,1,1000,num_1,0.7285180997569114,,33,13,2026-03-12_18h22.39.240,2026A_exp2,2022.2.4,59.95725047597206,
1000,1,0.0,6.1,1,0,51,51,74,,,,,163.69388759997673,164.34474580013193,164.34474580013193,164.82918850006536,45,315,164.82918850006536,164.82918850006536,164.82918850006536,164.82918850006536,164.82918850006536,164.82918850006536,164.82918850006536,164.82918850006536,164.82918850006536,165.19555400009267,165.19555400009267,165.19555400009267,165.19555400009267,165.19555400009267,165.19555400009267,165.19555400009267,165.19555400009267,165.19555400009267,2,3,"[0.001246000174432993, 0.20031220000237226, 0.3503493000753224]","[0.1835452001541853, 0.33358570002019405, 0.36710690008476377]",165.19555400009267,165.39740330004133,1000,165.39740330004133,1000,1000,1000,1000,1,num_2,0.6505136000923812,,33,13,2026-03-12_18h22.39.240,2026A_exp2,2022.2.4,59.95725047597206,
1,0,6.1,6.1,1,0,52,52,47,,,,,166.06294620013796,166.71379030006938,166.71379030006938,167.21495130006224,45,45,167.21495130006224,167.21495130006224,167.21495130006224,167.21495130006224,167.21495130006224,167.21495130006224,167.21495130006224,167.21495130006224,167.21495130006224,167.58134749997407,167.58134749997407,167.58134749997407,167.58134749997407,167.58134749997407,167.58134749997407,167.58134749997407,167.58134749997407,167.58134749997407,0,1,[0.0012274000328034163],[0.36722090002149343],167.58134749997407,167.7815799000673,6.1,167.7815799000673,1,6.1,1,1,1000,num_4,0.7310158999171108,,33,13,2026-03-12_18h22.39.240,2026A_exp2,2022.2.4,59.95725047597206,
1000,1,4.9,6.1,0,0,53,53,36,,,,,168.5337082000915,169.18296130001545,169.18296130001545,169.68390880012885,45,45,169.68390880012885,169.68390880012885,169.68390880012885,169.68390880012885,169.68390880012885,169.68390880012885,169.68390880012885,169.68390880012885,169.68390880012885,170.05045380000956,170.05045380000956,170.05045380000956,170.05045380000956,170.05045380000956,170.05045380000956,170.05045380000956,170.05045380000956,170.05045380000956,7,2,"[0.0012121000327169895, 0.2174525000154972]","[0.10062190005555749, 0.36770479986444116]",170.05045380000956,170.25088190007955,1000,170.25088190007955,1000,1000,1000,1000,1,num_2,0.46211949991993606,,33,13,2026-03-12_18h22.39.240,2026A_exp2,2022.2.4,59.95725047597206,
1000,1,4.9,0.0,1,0,54,54,67,,,,,170.73432229994796,171.38513080007397,171.38513080007397,171.88626380008645,45,45,171.88626380008645,171.88626380008645,171.88626380008645,171.88626380008645,171.88626380008645,171.88626380008645,171.88626380008645,171.88626380008645,171.88626380008645,172.2522297000978,172.2522297000978,172.2522297000978,172.2522297000978,172.2522297000978,172.2522297000978,172.2522297000978,172.2522297000978,172.2522297000978,0,1,[0.0012545001227408648],[0.3671362001914531],172.2522297000978,172.45574690005742,1000,172.45574690005742,1000,1000,1000,1000,0,num_3,0.2093139998614788,,33,13,2026-03-12_18h22.39.240,2026A_exp2,2022.2.4,59.95725047597206,
1000,1,0.0,0.0,1,0,55,55,73,,,,,172.68995400005952,173.33705729991198,173.33705729991198,173.83815880003385,315,315,173.83815880003385,173.83815880003385,173.83815880003385,173.83815880003385,173.83815880003385,173.83815880003385,173.83815880003385,173.83815880003385,173.83815880003385,174.20445289998315,174.20445289998315,174.20445289998315,174.20445289998315,174.20445289998315,174.20445289998315,174.20445289998315,174.20445289998315,174.20445289998315,0,1,[0.0014726000372320414],[0.36697639990597963],174.20445289998315,174.40636319993064,1000,174.40636319993064,1000,1000,1000,1000,0,num_3,0.545491199940443,,33,13,2026-03-12_18h22.39.240,2026A_exp2,2022.2.4,59.95725047597206,
1,0,0.0,6.1,0,0,56,56,24,,,,,174.97183970012702,175.6226504999213,175.6226504999213,176.123759200098,315,45,176.123759200098,176.123759200098,176.123759200098,176.123759200098,176.123759200098,176.123759200098,176.123759200098,176.123759200098,176.123759200098,176.49016049993224,176.49016049993224,176.49016049993224,176.49016049993224,176.49016049993224,176.49016049993224,176.49016049993224,176.49016049993224,176.49016049993224,0,1,[0.00120749999769032],[0.36706770001910627],176.49016049993224,176.69049459998496,0.0,176.69049459998496,0,0.0,0,1,1000,num_1,0.6136163999326527,,33,13,2026-03-12_18h22.39.240,2026A_exp2,2022.2.4,59.95725047597206,
1000,1,6.1,0.0,0,0,57,57,27,,,,,177.32423539995216,177.97505369991995,177.97505369991995,178.45936480001546,45,315,178.45936480001546,178.45936480001546,178.45936480001546,178.45936480001546,178.45936480001546,178.45936480001546,178.45936480001546,178.45936480001546,178.45936480001546,178.8257279000245,178.8257279000245,178.8257279000245,178.8257279000245,178.8257279000245,178.8257279000245,178.8257279000245,178.8257279000245,178.8257279000245,0,1,[0.0012085000053048134],[0.36742010014131665],178.8257279000245,179.02807769994251,1000,179.02807769994251,1000,1000,1000,1000,0,num_3,0.2446599998511374,,33,13,2026-03-12_18h22.39.240,2026A_exp2,2022.2.4,59.95725047597206,
1,0,3.7,6.1,1,0,58,58,68,,,,,179.2927336001303,179.94365700008348,179.94365700008348,180.4447137999814,45,45,180.4447137999814,180.4447137999814,180.4447137999814,180.4447137999814,180.4447137999814,180.4447137999814,180.4447137999814,180.4447137999814,180.4447137999814,180.81133399996907,180.81133399996907,180.81133399996907,180.81133399996907,180.81133399996907,180.81133399996907,180.81133399996907,180.81133399996907,180.81133399996907,0,1,[0.00123740010894835],[0.36709839990362525],180.81133399996907,181.0114770999644,6.1,181.0114770999644,0,6.1,1,0,1000,num_1,0.5804394998122007,,33,13,2026-03-12_18h22.39.240,2026A_exp2,2022.2.4,59.95725047597206,
1000,1,4.9,0.0,1,0,59,59,48,,,,,181.6117990000639,182.24573100009002,182.24573100009002,182.74694099999033,45,315,182.74694099999033,182.74694099999033,182.74694099999033,182.74694099999033,182.74694099999033,182.74694099999033,182.74694099999033,182.74694099999033,182.74694099999033,183.113391000079,183.113391000079,183.113391000079,183.113391000079,183.113391000079,183.113391000079,183.113391000079,183.113391000079,183.113391000079,0,1,[0.0007283000741153955],[0.3679227000102401],183.113391000079,183.31537960004061,1000,183.31537960004061,1000,1000,1000,1000,0,num_3,0.27700559981167316,,33,13,2026-03-12_18h22.39.240,2026A_exp2,2022.2.4,59.95725047597206,
1000,1,0.0,3.7,0,0,60,60,23,,,,,183.61411849991418,184.26455319998786,184.26455319998786,184.74916839995421,45,45,184.74916839995421,184.74916839995421,184.74916839995421,184.74916839995421,184.74916839995421,184.74916839995421,184.74916839995421,184.74916839995421,184.74916839995421,185.11542010004632,185.11542010004632,185.11542010004632,185.11542010004632,185.11542010004632,185.11542010004632,185.11542010004632,185.11542010004632,185.11542010004632,0,1,[0.0011972999200224876],[0.36714389990083873],185.11542010004632,185.31761200004257,1000,185.31761200004257,1000,1000,1000,1000,1,num_2,0.3147853999398649,,33,13,2026-03-12_18h22.39.240,2026A_exp2,2022.2.4,59.95725047597206,
1,0,4.9,0.0,1,0,61,61,34,,,,,185.64938820013776,186.3000831999816,186.3000831999816,186.80110220005736,45,45,186.80110220005736,186.80110220005736,186.80110220005736,186.80110220005736,186.80110220005736,186.80110220005736,186.80110220005736,186.80110220005736,186.80110220005736,187.16753250011243,187.16753250011243,187.16753250011243,187.16753250011243,187.16753250011243,187.16753250011243,187.16753250011243,187.16753250011243,187.16753250011243,0,1,[0.001204000087454915],[0.3673080999869853],187.16753250011243,187.36763929994777,0.0,187.36763929994777,0,0.0,0,1,1000,num_1,0.4481610998045653,,33,13,2026-03-12_18h22.39.240,2026A_exp2,2022.2.4,59.95725047597206,
1000,1,0.0,4.9,0,0,62,62,8,,,,,187.83471260010265,188.48539069993421,188.48539069993421,188.96989820012823,45,45,188.96989820012823,188.96989820012823,188.96989820012823,188.96989820012823,188.96989820012823,188.96989820012823,188.96989820012823,188.96989820012823,188.96989820012823,189.3363978001289,189.3363978001289,189.3363978001289,189.3363978001289,189.3363978001289,189.3363978001289,189.3363978001289,189.3363978001289,189.3363978001289,0,1,[0.0012338999658823013],[0.3671558001078665],189.3363978001289,189.53816960006952,1000,189.53816960006952,1000,1000,1000,1000,1,num_2,0.5581632000394166,,33,13,2026-03-12_18h22.39.240,2026A_exp2,2022.2.4,59.95725047597206,
1,0,0.0,6.1,1,0,63,63,19,,,,,190.12035889993422,190.77117369999178,190.77117369999178,191.27233100007288,315,45,191.27233100007288,191.27233100007288,191.27233100007288,191.27233100007288,191.27233100007288,191.27233100007288,191.27233100007288,191.27233100007288,191.27233100007288,191.63869219995104,191.63869219995104,191.63869219995104,191.63869219995104,191.63869219995104,191.63869219995104,191.63869219995104,191.63869219995104,191.63869219995104,0,1,[0.0012054000981152058],[0.3671299999114126],191.63869219995104,191.8389036001172,6.1,191.8389036001172,1,6.1,1,1,1000,num_4,0.673979900078848,,33,13,2026-03-12_18h22.39.240,2026A_exp2,2022.2.4,59.95725047597206,
0,0,0.0,0.0,1,0,64,64,44,,,,,192.53942100005224,193.19029669999145,193.19029669999145,193.67470260011032,315,315,193.67470260011032,193.67470260011032,193.67470260011032,193.67470260011032,193.67470260011032,193.67470260011032,193.67470260011032,193.67470260011032,193.67470260011032,194.04105510003865,194.04105510003865,194.04105510003865,194.04105510003865,194.04105510003865,194.04105510003865,194.04105510003865,194.04105510003865,194.04105510003865,0,1,[0.0012156001757830381],[0.367261900100857],194.04105510003865,194.24132189992815,0.0,194.24132189992815,1,0.0,0,0,1000,num_4,0.9904208998195827,,33,13,2026-03-12_18h22.39.240,2026A_exp2,2022.2.4,59.95725047597206,
1,0,3.7,0.0,0,0,65,65,26,,,,,195.2587773001287,195.8928084000945,195.8928084000945,196.39410690008663,45,45,196.39410690008663,196.39410690008663,196.39410690008663,196.39410690008663,196.39410690008663,196.39410690008663,196.39410690008663,196.39410690008663,196.39410690008663,196.7604650000576,196.7604650000576,196.7604650000576,196.7604650000576,196.7604650000576,196.7604650000576,196.7604650000576,196.7604650000576,196.7604650000576,0,1,[0.0012350999750196934],[0.36700710002332926],196.7604650000576,196.96070079994388,3.7,196.96070079994388,1,3.7,1,1,1000,num_4,0.5911513997707516,,33,13,2026-03-12_18h22.39.240,2026A_exp2,2022.2.4,59.95725047597206,
1,0,0.0,0.0,1,0,66,66,33,,,,,197.57785040000454,198.22842500009574,198.22842500009574,198.71285480004735,315,45,198.71285480004735,198.71285480004735,198.71285480004735,198.71285480004735,198.71285480004735,198.71285480004735,198.71285480004735,198.71285480004735,198.71285480004735,199.07947310013697,199.07947310013697,199.07947310013697,199.07947310013697,199.07947310013697,199.07947310013697,199.07947310013697,199.07947310013697,199.07947310013697,0,1,[0.0008387998677790165],[0.3674488998949528],199.07947310013697,199.27976280008443,0.0,199.27976280008443,1,0.0,0,0,1000,num_4,0.7132627998944372,,33,13,2026-03-12_18h22.39.240,2026A_exp2,2022.2.4,59.95725047597206,
1000,1,0.0,6.1,1,0,67,67,13,,,,,200.01355429994874,200.66441299999133,200.66441299999133,201.1488626000937,45,45,201.1488626000937,201.1488626000937,201.1488626000937,201.1488626000937,201.1488626000937,201.1488626000937,201.1488626000937,201.1488626000937,201.1488626000937,201.5152189999353,201.5152189999353,201.5152189999353,201.5152189999353,201.5152189999353,201.5152189999353,201.5152189999353,201.5152189999353,201.5152189999353,0,1,[0.0011968000326305628],[0.36710540018975735],201.5152189999353,201.7174736999441,1000,201.7174736999441,1000,1000,1000,1000,1,num_2,0.8982565999031067,,33,13,2026-03-12_18h22.39.240,2026A_exp2,2022.2.4,59.95725047597206,
0,0,6.1,0.0,1,0,68,68,52,,,,,202.63289340003394,203.28357450012118,203.28357450012118,203.78472559992224,45,315,203.78472559992224,203.78472559992224,203.78472559992224,203.78472559992224,203.78472559992224,203.78472559992224,203.78472559992224,203.78472559992224,203.78472559992224,204.15120620001107,204.15120620001107,204.15120620001107,204.15120620001107,204.15120620001107,204.15120620001107,204.15120620001107,204.15120620001107,204.15120620001107,0,1,[0.0012343998532742262],[0.36716039991006255],204.15120620001107,204.35142359999008,6.1,204.35142359999008,1,6.1,1,1,1000,num_4,0.5296495999209583,,33,13,2026-03-12_18h22.39.240,2026A_exp2,2022.2.4,59.95725047597206,
0,0,4.9,0.0,0,0,69,69,84,,,,,204.90181050007232,205.55254720011726,205.55254720011726,206.03692480013706,315,315,206.03692480013706,206.03692480013706,206.03692480013706,206.03692480013706,206.03692480013706,206.03692480013706,206.03692480013706,206.03692480013706,206.03692480013706,206.40329880011268,206.40329880011268,206.40329880011268,206.40329880011268,206.40329880011268,206.40329880011268,206.40329880011268,206.40329880011268,206.40329880011268,0,1,[0.0012553001288324594],[0.36715509998612106],206.40329880011268,206.60368840000592,0.0,206.60368840000592,0,0.0,0,1,1000,num_1,0.6202746001072228,,33,13,2026-03-12_18h22.39.240,2026A_exp2,2022.2.4,59.95725047597206,
1000,1,6.1,0.0,1,0,70,70,79,,,,,207.2541513000615,207.90485840011388,207.90485840011388,208.3892914999742,315,45,208.3892914999742,208.3892914999742,208.3892914999742,208.3892914999742,208.3892914999742,208.3892914999742,208.3892914999742,208.3892914999742,208.3892914999742,208.75581969995983,208.75581969995983,208.75581969995983,208.75581969995983,208.75581969995983,208.75581969995983,208.75581969995983,208.75581969995983,208.75581969995983,0,1,[0.0012125000357627869],[0.3671754999086261],208.75581969995983,208.95602910011075,1000,208.95602910011075,1000,1000,1000,1000,0,num_3,0.28425309993326664,,33,13,2026-03-12_18h22.39.240,2026A_exp2,2022.2.4,59.95725047597206,
1000,1,6.1,6.1,1,0,71,71,22,,,,,209.25619270000607,209.906890100101,209.906890100101,210.40808379999362,315,45,210.40808379999362,210.40808379999362,210.40808379999362,210.40808379999362,210.40808379999362,210.40808379999362,210.40808379999362,210.40808379999362,210.40808379999362,210.77442390006036,210.77442390006036,210.77442390006036,210.77442390006036,210.77442390006036,210.77442390006036,210.77442390006036,210.77442390006036,210.77442390006036,0,1,[0.001230600057169795],[0.36718209995888174],210.77442390006036,210.97491370001808,1000,210.97491370001808,1000,1000,1000,1000,1,num_2,0.5367837999947369,,33,13,2026-03-12_18h22.39.240,2026A_exp2,2022.2.4,59.95725047597206,
1,0,6.1,0.0,1,0,72,72,17,,,,,211.5418054999318,212.19223490008153,212.19223490008153,212.69353980012238,45,45,212.69353980012238,212.69353980012238,212.69353980012238,212.69353980012238,212.69353980012238,212.69353980012238,212.69353980012238,212.69353980012238,212.69353980012238,213.06001639994793,213.06001639994793,213.06001639994793,213.06001639994793,213.06001639994793,213.06001639994793,213.06001639994793,213.06001639994793,213.06001639994793,0,1,[0.0007863000500947237],[0.36721340008080006],213.06001639994793,213.2603664000053,0.0,213.2603664000053,0,0.0,0,1,1000,num_1,0.6040247997734696,,33,13,2026-03-12_18h22.39.240,2026A_exp2,2022.2.4,59.95725047597206,
1000,1,0.0,3.7,1,0,73,73,88,,,,,213.8943813999649,214.52811590000056,214.52811590000056,215.02919590007514,45,45,215.02919590007514,215.02919590007514,215.02919590007514,215.02919590007514,215.02919590007514,215.02919590007514,215.02919590007514,215.02919590007514,215.02919590007514,215.39577580010518,215.39577580010518,215.39577580010518,215.39577580010518,215.39577580010518,215.39577580010518,215.39577580010518,215.39577580010518,215.39577580010518,13,1,[0.21703199995681643],[0.3672521999105811],215.39577580010518,215.5979424000252,1000,215.5979424000252,1000,1000,1000,1000,1,num_2,0.40198549977503717,,33,13,2026-03-12_18h22.39.240,2026A_exp2,2022.2.4,59.95725047597206,
1000,1,0.0,0.0,0,0,74,74,57,,,,,216.0298786999192,216.68046490009874,216.68046490009874,217.181496999925,315,45,217.181496999925,217.181496999925,217.181496999925,217.181496999925,217.181496999925,217.181496999925,217.181496999925,217.181496999925,217.181496999925,217.53111899993382,217.53111899993382,217.53111899993382,217.53111899993382,217.53111899993382,217.53111899993382,217.53111899993382,217.53111899993382,217.53111899993382,0,1,[0.0012327998410910368],[0.3504201998002827],217.53111899993382,217.73304280010052,1000,217.74825510010123,1000,1000,1000,1000,1,num_2,0.507968399906531,,33,13,2026-03-12_18h22.39.240,2026A_exp2,2022.2.4,59.95725047597206,
1000,1,0.0,0.0,0,0,75,75,45,,,,,218.28412960004061,218.94074050011113,218.94074050011113,219.4336663999129,315,315,219.4336663999129,219.4336663999129,219.4336663999129,219.4336663999129,219.4336663999129,219.4336663999129,219.4336663999129,219.4336663999129,219.4336663999129,219.8000799000729,219.8000799000729,219.8000799000729,219.8000799000729,219.8000799000729,219.8000799000729,219.8000799000729,219.8000799000729,219.8000799000729,0,1,[0.0010469998233020306],[0.3672710999380797],219.8000799000729,220.00211360002868,1000,220.00211360002868,1000,1000,1000,1000,0,num_3,0.6379442999605089,,33,13,2026-03-12_18h22.39.240,2026A_exp2,2022.2.4,59.95725047597206,
0,0,3.7,0.0,0,0,76,76,18,,,,,220.66778489993885,221.3181972000748,221.3181972000748,221.8193711999338,315,45,221.8193711999338,221.8193711999338,221.8193711999338,221.8193711999338,221.8193711999338,221.8193711999338,221.8193711999338,221.8193711999338,221.8193711999338,222.16944500012323,222.16944500012323,222.16944500012323,222.16944500012323,222.16944500012323,222.16944500012323,222.16944500012323,222.16944500012323,222.16944500012323,0,1,[0.0012264000251889229],[0.3503495000768453],222.16944500012323,222.36941029992886,0.0,222.38602400012314,0,0.0,0,1,1000,num_1,0.6231476997490972,,33,13,2026-03-12_18h22.39.240,2026A_exp2,2022.2.4,59.95725047597206,
1000,1,3.7,6.1,1,0,77,77,75,,,,,223.03700040001422,223.68742180010304,223.68742180010304,224.1715084000025,315,315,224.1715084000025,224.1715084000025,224.1715084000025,224.1715084000025,224.1715084000025,224.1715084000025,224.1715084000025,224.1715084000025,224.1715084000025,224.5381835999433,224.5381835999433,224.5381835999433,224.5381835999433,224.5381835999433,224.5381835999433,224.5381835999433,224.5381835999433,224.5381835999433,4,1,[0.06702649989165366],[0.36771790008060634],224.5381835999433,224.74026919994503,1000,224.74026919994503,1000,1000,1000,1000,1,num_2,0.42061929986812174,,33,13,2026-03-12_18h22.39.240,2026A_exp2,2022.2.4,59.95725047597206,
1,0,0.0,4.9,1,0,78,78,54,,,,,225.18898009997793,225.83955830009654,225.83955830009654,226.3408158000093,45,315,226.3408158000093,226.3408158000093,226.3408158000093,226.3408158000093,226.3408158000093,226.3408158000093,226.3408158000093,226.3408158000093,226.3408158000093,226.69034480000846,226.69034480000846,226.69034480000846,226.69034480000846,226.69034480000846,226.69034480000846,226.69034480000846,226.69034480000846,226.69034480000846,13,2,"[0.0011982000432908535, 0.3341179999988526]","[0.1337739999871701, 0.3507693000137806]",226.69034480000846,226.890594500117,4.9,226.890594500117,1,4.9,1,1,1000,num_4,0.6065497999079525,,33,13,2026-03-12_18h22.39.240,2026A_exp2,2022.2.4,59.95725047597206,
1,0,0.0,0.0,1,0,79,79,31,,,,,227.52462249994278,228.17523459997028,228.17523459997028,228.6595479999669,315,315,228.6595479999669,228.6595479999669,228.6595479999669,228.6595479999669,228.6595479999669,228.6595479999669,228.6595479999669,228.6595479999669,228.6595479999669,229.02606060006656,229.02606060006656,229.02606060006656,229.02606060006656,229.02606060006656,229.02606060006656,229.02606060006656,229.02606060006656,229.02606060006656,0,1,[0.0012684999965131283],[0.3672468999866396],229.02606060006656,229.2261020001024,0.0,229.2261020001024,1,0.0,0,0,1000,num_4,0.7986333998851478,,33,13,2026-03-12_18h22.39.240,2026A_exp2,2022.2.4,59.95725047597206,
1,0,0.0,4.9,0,0,80,80,70,,,,,230.04372110008262,230.6944150000345,230.6944150000345,231.17865190003067,45,45,231.17865190003067,231.17865190003067,231.17865190003067,231.17865190003067,231.17865190003067,231.17865190003067,231.17865190003067,231.17865190003067,231.17865190003067,231.54528219997883,231.54528219997883,231.54528219997883,231.54528219997883,231.54528219997883,231.54528219997883,231.54528219997883,231.54528219997883,231.54528219997883,0,1,[0.0011895999778062105],[0.36713450006209314],231.54528219997883,231.74534219992347,0.0,231.74534219992347,0,0.0,0,1,1000,num_1,0.5594335999339819,,33,13,2026-03-12_18h22.39.240,2026A_exp2,2022.2.4,59.95725047597206,
1000,1,6.1,4.9,0,0,81,81,51,,,,,232.3293894000817,232.98766839993186,232.98766839993186,233.46442470001057,45,315,233.46442470001057,233.46442470001057,233.46442470001057,233.46442470001057,233.46442470001057,233.46442470001057,233.46442470001057,233.46442470001057,233.46442470001057,233.83086819993332,233.83086819993332,233.83086819993332,233.83086819993332,233.83086819993332,233.83086819993332,233.83086819993332,233.83086819993332,233.83086819993332,0,1,[0.0011106000747531652],[0.3673739000223577],233.83086819993332,234.03265610011294,1000,234.03265610011294,1000,1000,1000,1000,0,num_3,0.21561829978600144,,33,13,2026-03-12_18h22.39.240,2026A_exp2,2022.2.4,59.95725047597206,
1000,1,0.0,4.9,0,0,82,82,0,,,,,234.26472109998576,234.9153521999251,234.9153521999251,235.41645759996027,45,315,235.41645759996027,235.41645759996027,235.41645759996027,235.41645759996027,235.41645759996027,235.41645759996027,235.41645759996027,235.41645759996027,235.41645759996027,235.76622380013578,235.76622380013578,235.76622380013578,235.76622380013578,235.76622380013578,235.76622380013578,235.76622380013578,235.76622380013578,235.76622380013578,0,1,[0.0011978999245911837],[0.3505485998466611],235.76622380013578,235.96815939992666,1000,235.9833392999135,1000,1000,1000,1000,1,num_2,0.34516469994559884,,33,13,2026-03-12_18h22.39.240,2026A_exp2,2022.2.4,59.95725047597206,
1000,1,0.0,6.1,0,0,83,83,61,,,,,236.3501067000907,237.00068000005558,237.00068000005558,237.50181249994785,45,315,237.50181249994785,237.50181249994785,237.50181249994785,237.50181249994785,237.50181249994785,237.50181249994785,237.50181249994785,237.50181249994785,237.50181249994785,237.85145850013942,237.85145850013942,237.85145850013942,237.85145850013942,237.85145850013942,237.85145850013942,237.85145850013942,237.85145850013942,237.85145850013942,0,1,[0.0012333998456597328],[0.35076819988898933],237.85145850013942,238.0534208000172,1000,238.06854579993524,1000,1000,1000,1000,1,num_2,0.3402456999756396,,33,13,2026-03-12_18h22.39.240,2026A_exp2,2022.2.4,59.95725047597206,
1000,1,0.0,6.1,0,0,84,84,20,,,,,238.43561280006543,239.0861498999875,239.0861498999875,239.58719089999795,315,315,239.58719089999795,239.58719089999795,239.58719089999795,239.58719089999795,239.58719089999795,239.58719089999795,239.58719089999795,239.58719089999795,239.58719089999795,239.9368793000467,239.9368793000467,239.9368793000467,239.9368793000467,239.9368793000467,239.9368793000467,239.9368793000467,239.9368793000467,239.9368793000467,3,2,"[0.03370579984039068, 0.3511854999233037]","[0.33448540000244975, 0.3511896999552846]",239.9368793000467,240.138521600049,1000,240.15390980010852,1000,1000,1000,1000,1,num_2,0.06196909979917109,,33,13,2026-03-12_18h22.39.240,2026A_exp2,2022.2.4,59.95725047597206,
0,0,6.1,0.0,1,0,85,85,25,,,,,240.23731909994967,240.8879458999727,240.8879458999727,241.38898769998923,315,45,241.38898769998923,241.38898769998923,241.38898769998923,241.38898769998923,241.38898769998923,241.38898769998923,241.38898769998923,241.38898769998923,241.38898769998923,241.75546630006284,241.75546630006284,241.75546630006284,241.75546630006284,241.75546630006284,241.75546630006284,241.75546630006284,241.75546630006284,241.75546630006284,10,6,"[0.05019950005225837, 0.08352200011722744, 0.1333741000853479, 0.23334069992415607, 0.30024580005556345, 0.3504973000381142]","[0.06675929995253682, 0.10021200007759035, 0.19987439992837608, 0.2835423999931663, 0.33363509993068874, 0.3671848999802023]",241.75546630006284,241.95562099991366,6.1,241.95562099991366,1,6.1,1,1,1000,num_4,0.6363019999116659,,33,13,2026-03-12_18h22.39.240,2026A_exp2,2022.2.4,59.95725047597206,
1,0,3.7,0.0,0,0,86,86,10,,,,,242.6227007000707,243.2736625999678,243.2736625999678,243.75800690008327,315,315,243.75800690008327,243.75800690008327,243.75800690008327,243.75800690008327,243.75800690008327,243.75800690008327,243.75800690008327,243.75800690008327,243.75800690008327,244.124460299965,244.124460299965,244.124460299965,244.124460299965,244.124460299965,244.124460299965,244.124460299965,244.124460299965,244.124460299965,21,2,"[0.017430099891498685, 0.3671684998553246]","[0.03362959995865822, 0.3671724998857826]",244.124460299965,244.32474700012244,3.7,244.32474700012244,1,3.7,1,1,1000,num_4,0.7637034999206662,,33,13,2026-03-12_18h22.39.240,2026A_exp2,2022.2.4,59.95725047597206,
1000,1,0.0,3.7,0,0,87,87,76,,,,,245.1088723000139,245.7593970000744,245.7593970000744,246.24382099998184,45,315,246.24382099998184,246.24382099998184,246.24382099998184,246.24382099998184,246.24382099998184,246.24382099998184,246.24382099998184,246.24382099998184,246.24382099998184,246.61033389996737,246.61033389996737,246.61033389996737,246.61033389996737,246.61033389996737,246.61033389996737,246.61033389996737,246.61033389996737,246.61033389996737,20,3,"[0.0499032000079751, 0.16654539993032813, 0.23323679994791746]","[0.06620200001634657, 0.18321499996818602, 0.25007690000347793]",246.61033389996737,246.81237459997647,1000,246.81237459997647,1000,1000,1000,1000,1,num_2,0.4445710997097194,,33,13,2026-03-12_18h22.39.240,2026A_exp2,2022.2.4,59.95725047597206,
1,0,0.0,4.9,0,0,88,88,14,,,,,247.27771260007285,247.92825300013646,247.92825300013646,248.429373400053,315,315,248.429373400053,248.429373400053,248.429373400053,248.429373400053,248.429373400053,248.429373400053,248.429373400053,248.429373400053,248.429373400053,248.7956260999199,248.7956260999199,248.7956260999199,248.7956260999199,248.7956260999199,248.7956260999199,248.7956260999199,248.7956260999199,248.7956260999199,23,0,,,248.7956260999199,248.9960521000903,0.0,248.9960521000903,0,0.0,0,1,1000,num_1,0.63556919968687,,33,13,2026-03-12_18h22.39.240,2026A_exp2,2022.2.4,59.95725047597206,
1000,1,4.9,3.7,1,0,89,89,78,,,,,249.66325530014,250.31397480005398,250.31397480005398,250.7983645000495,315,45,250.7983645000495,250.7983645000495,250.7983645000495,250.7983645000495,250.7983645000495,250.7983645000495,250.7983645000495,250.7983645000495,250.7983645000495,251.1648488000501,251.1648488000501,251.1648488000501,251.1648488000501,251.1648488000501,251.1648488000501,251.1648488000501,251.1648488000501,251.1648488000501,14,4,"[0.017205399926751852, 0.11689670011401176, 0.20027199992910028, 0.2502224000636488]","[0.05010850005783141, 0.16680849995464087, 0.2171012000180781, 0.3001135000959039]",251.1648488000501,251.36667410004884,1000,251.36667410004884,1000,1000,1000,1000,0,num_3,0.513659699819982,,33,13,2026-03-12_18h22.39.240,2026A_exp2,2022.2.4,59.95725047597206,
,,,,,,,,,,,,,,,,,,,,,,,,,,,,,,,,,,,,,,,,,,,,,,,,,,,,251.90828679990955,,,,,,,
