validity,detectorcomp,contrastCW,contrastCCW,precueCWorCCW,block_80trials.thisRepN,block_80trials.thisTrialN,block_80trials.thisN,block_80trials.thisIndex,etRecord.started,etRecord.stopped,text.started,text.stopped,text_4.started,text_4.stopped,text_6.started,text_6.stopped,oriCW,oriCCW,roi_2.started,grating_UR.started,grating_UL.started,grating_LR.started,grating_LL.started,noise_UR.started,noise_UL.started,noise_LR.started,noise_LL.started,roi_2.stopped,grating_UR.stopped,grating_UL.stopped,grating_LR.stopped,grating_LL.stopped,noise_UR.stopped,noise_UL.stopped,noise_LR.stopped,noise_LL.stopped,outframe,roi_2.numLooks,roi_2.timesOn,roi_2.timesOff,text_2.started,text_2.stopped,probedcontrast,key_resp.started,respdetect,relevantContrast,correctDetect,TorFdetect,respCWorCCW,key_resp.keys,key_resp.rt,feedback_display_.started,participantNo,blockNo,date,expName,psychopyVersion,frameRate,
0,0,3.7,3.7,0,0,0,0,63,6.059999577701092e-05,6.059999577701092e-05,52.94741369999247,54.95031009998638,54.95031009998638,55.59516030002851,55.59516030002851,56.10650120000355,315,45,56.10650120000355,56.10650120000355,56.10650120000355,56.10650120000355,56.10650120000355,56.10650120000355,56.10650120000355,56.10650120000355,56.10650120000355,56.45193290000316,56.45193290000316,56.45193290000316,56.45193290000316,56.45193290000316,56.45193290000316,56.45193290000316,56.45193290000316,56.45193290000316,0,1,[0.0010030000121332705],[0.3680752000072971],56.45193290000316,56.652083900000434,3.7,56.652083900000434,1,3.7,1,1,1000,num_4,1.0442404999630526,,23,8,2026-03-04_13h57.03.614,2026A_exp2,2022.2.4,59.8564761426528,
1,0,0.0,6.1,0,0,1,1,57,,,,,57.71997709997231,58.370522500015795,58.370522500015795,58.871521199995186,45,45,58.871521199995186,58.871521199995186,58.871521199995186,58.871521199995186,58.871521199995186,58.871521199995186,58.871521199995186,58.871521199995186,58.871521199995186,59.22132970002713,59.22132970002713,59.22132970002713,59.22132970002713,59.22132970002713,59.22132970002713,59.22132970002713,59.22132970002713,59.22132970002713,0,1,[0.0012520999880507588],[0.3504596999846399],59.22132970002713,59.42161899997154,0.0,59.42161899997154,0,0.0,0,1,1000,num_1,0.8019676000112668,,23,8,2026-03-04_13h57.03.614,2026A_exp2,2022.2.4,59.8564761426528,
1000,1,4.9,3.7,1,0,2,2,14,,,,,60.255371399980504,60.9063742000144,60.9063742000144,61.390757900022436,315,315,61.390757900022436,61.390757900022436,61.390757900022436,61.390757900022436,61.390757900022436,61.390757900022436,61.390757900022436,61.390757900022436,61.390757900022436,61.75717669998994,61.75717669998994,61.75717669998994,61.75717669998994,61.75717669998994,61.75717669998994,61.75717669998994,61.75717669998994,61.75717669998994,18,2,"[0.0012202999787405133, 0.3505363999865949]","[0.033555999980308115, 0.36729470000136644]",61.75717669998994,61.96217399998568,1000,61.96217399998568,1000,1000,1000,1000,1,num_2,0.5012658999767154,,23,8,2026-03-04_13h57.03.614,2026A_exp2,2022.2.4,59.8564761426528,
1000,1,4.9,4.9,0,0,3,3,34,,,,,62.49138670001412,63.14200900000287,63.14200900000287,63.64294789999258,45,315,63.64294789999258,63.64294789999258,63.64294789999258,63.64294789999258,63.64294789999258,63.64294789999258,63.64294789999258,63.64294789999258,63.64294789999258,64.00942169997143,64.00942169997143,64.00942169997143,64.00942169997143,64.00942169997143,64.00942169997143,64.00942169997143,64.00942169997143,64.00942169997143,0,1,[0.0012572999694384634],[0.36720639996929094],64.00942169997143,64.2117371999775,1000,64.2117371999775,1000,1000,1000,1000,1,num_2,0.46026300004450604,,23,8,2026-03-04_13h57.03.614,2026A_exp2,2022.2.4,59.8564761426528,
1000,1,3.7,4.9,0,0,4,4,13,,,,,64.69359290000284,65.34408850001637,65.34408850001637,65.84517440001946,45,315,65.84517440001946,65.84517440001946,65.84517440001946,65.84517440001946,65.84517440001946,65.84517440001946,65.84517440001946,65.84517440001946,65.84517440001946,66.21166390000144,66.21166390000144,66.21166390000144,66.21166390000144,66.21166390000144,66.21166390000144,66.21166390000144,66.21166390000144,66.21166390000144,0,1,[0.0012263000244274735],[0.36713630001759157],66.21166390000144,66.41354909999063,1000,66.41354909999063,1000,1000,1000,1000,1,num_2,0.40198620001319796,,23,8,2026-03-04_13h57.03.614,2026A_exp2,2022.2.4,59.8564761426528,
1000,1,0.0,0.0,1,0,5,5,39,,,,,66.84568600001512,67.49638510000659,67.49638510000659,67.99745189998066,315,45,67.99745189998066,67.99745189998066,67.99745189998066,67.99745189998066,67.99745189998066,67.99745189998066,67.99745189998066,67.99745189998066,67.99745189998066,68.36396310001146,68.36396310001146,68.36396310001146,68.36396310001146,68.36396310001146,68.36396310001146,68.36396310001146,68.36396310001146,68.36396310001146,0,1,[0.0012116999714635313],[0.3668451000121422],68.36396310001146,68.565832399996,1000,68.565832399996,1000,1000,1000,1000,1,num_2,0.35404649999691173,,23,8,2026-03-04_13h57.03.614,2026A_exp2,2022.2.4,59.8564761426528,
1,0,0.0,6.1,0,0,6,6,72,,,,,68.94769619998988,69.59827860002406,69.59827860002406,70.09945420001168,315,45,70.09945420001168,70.09945420001168,70.09945420001168,70.09945420001168,70.09945420001168,70.09945420001168,70.09945420001168,70.09945420001168,70.09945420001168,70.4660212000017,70.4660212000017,70.4660212000017,70.4660212000017,70.4660212000017,70.4660212000017,70.4660212000017,70.4660212000017,70.4660212000017,0,1,[0.001242100028321147],[0.36769620003178716],70.4660212000017,70.66596519999439,0.0,70.66596519999439,0,0.0,0,1,1000,num_1,0.7817563000135124,,23,8,2026-03-04_13h57.03.614,2026A_exp2,2022.2.4,59.8564761426528,
1000,1,0.0,3.7,0,0,7,7,32,,,,,71.4668353999732,72.11761090002256,72.11761090002256,72.6186048000236,45,45,72.6186048000236,72.6186048000236,72.6186048000236,72.6186048000236,72.6186048000236,72.6186048000236,72.6186048000236,72.6186048000236,72.6186048000236,72.98511220002547,72.98511220002547,72.98511220002547,72.98511220002547,72.98511220002547,72.98511220002547,72.98511220002547,72.98511220002547,72.98511220002547,0,1,[0.0014568999758921564],[0.3671332999947481],72.98511220002547,73.18688579997979,1000,73.18688579997979,1000,1000,1000,1000,1,num_2,0.41307519999099895,,23,8,2026-03-04_13h57.03.614,2026A_exp2,2022.2.4,59.8564761426528,
1000,1,0.0,0.0,1,0,8,8,42,,,,,73.61909809999634,74.2698099000263,74.2698099000263,74.77073599997675,45,315,74.77073599997675,74.77073599997675,74.77073599997675,74.77073599997675,74.77073599997675,74.77073599997675,74.77073599997675,74.77073599997675,74.77073599997675,75.13732480001636,75.13732480001636,75.13732480001636,75.13732480001636,75.13732480001636,75.13732480001636,75.13732480001636,75.13732480001636,75.13732480001636,0,1,[0.0008918000385165215],[0.36785400001099333],75.13732480001636,75.34127249999437,1000,75.34127249999437,1000,1000,1000,1000,1,num_2,0.7305989000014961,,23,8,2026-03-04_13h57.03.614,2026A_exp2,2022.2.4,59.8564761426528,
1000,1,3.7,3.7,1,0,9,9,46,,,,,76.08818909997353,76.738813199976,76.738813199976,77.24004150001565,45,45,77.24004150001565,77.24004150001565,77.24004150001565,77.24004150001565,77.24004150001565,77.24004150001565,77.24004150001565,77.24004150001565,77.24004150001565,77.60642780002672,77.60642780002672,77.60642780002672,77.60642780002672,77.60642780002672,77.60642780002672,77.60642780002672,77.60642780002672,77.60642780002672,0,1,[0.001229700050316751],[0.3671541000367142],77.60642780002672,77.80852359998971,1000,77.80852359998971,1000,1000,1000,1000,1,num_2,0.46261069999309257,,23,8,2026-03-04_13h57.03.614,2026A_exp2,2022.2.4,59.8564761426528,
1,0,6.1,0.0,0,0,10,10,24,,,,,78.2903356999741,78.94113410002319,78.94113410002319,79.44227990001673,45,315,79.44227990001673,79.44227990001673,79.44227990001673,79.44227990001673,79.44227990001673,79.44227990001673,79.44227990001673,79.44227990001673,79.44227990001673,79.80845810001483,79.80845810001483,79.80845810001483,79.80845810001483,79.80845810001483,79.80845810001483,79.80845810001483,79.80845810001483,79.80845810001483,23,0,,,79.80845810001483,80.00885069998913,6.1,80.00885069998913,1,6.1,1,1,1000,num_4,0.5670994999818504,,23,8,2026-03-04_13h57.03.614,2026A_exp2,2022.2.4,59.8564761426528,
0,0,0.0,0.0,0,0,11,11,67,,,,,80.59263640001882,81.24334849999286,81.24334849999286,81.72785129997646,45,45,81.72785129997646,81.72785129997646,81.72785129997646,81.72785129997646,81.72785129997646,81.72785129997646,81.72785129997646,81.72785129997646,81.72785129997646,82.09423310001148,82.09423310001148,82.09423310001148,82.09423310001148,82.09423310001148,82.09423310001148,82.09423310001148,82.09423310001148,82.09423310001148,0,1,[0.0012170999543741345],[0.3671222999691963],82.09423310001148,82.29437979997601,0.0,82.29437979997601,0,0.0,0,1,1000,num_1,0.7764915999723598,,23,8,2026-03-04_13h57.03.614,2026A_exp2,2022.2.4,59.8564761426528,
1000,1,0.0,4.9,0,0,12,12,9,,,,,83.09522790001938,83.74021120002726,83.74021120002726,84.2346846999717,315,45,84.2346846999717,84.2346846999717,84.2346846999717,84.2346846999717,84.2346846999717,84.2346846999717,84.2346846999717,84.2346846999717,84.2346846999717,84.59664810000686,84.59664810000686,84.59664810000686,84.59664810000686,84.59664810000686,84.59664810000686,84.59664810000686,84.59664810000686,84.59664810000686,12,1,[0.20077409996883944],[0.36582459998317063],84.59664810000686,84.81083259999286,1000,84.81083259999286,1000,1000,1000,1000,1,num_2,0.42836129997158423,,23,8,2026-03-04_13h57.03.614,2026A_exp2,2022.2.4,59.8564761426528,
1000,1,0.0,0.0,1,0,13,13,71,,,,,85.26402000000235,85.9147815000033,85.9147815000033,86.41586519998964,45,315,86.41586519998964,86.41586519998964,86.41586519998964,86.41586519998964,86.41586519998964,86.41586519998964,86.41586519998964,86.41586519998964,86.41586519998964,86.78227969998261,86.78227969998261,86.78227969998261,86.78227969998261,86.78227969998261,86.78227969998261,86.78227969998261,86.78227969998261,86.78227969998261,22,1,[0.001209600013680756],[0.017399000003933907],86.78227969998261,86.98495900002308,1000,86.98495900002308,1000,1000,1000,1000,0,num_3,0.7186509000021033,,23,8,2026-03-04_13h57.03.614,2026A_exp2,2022.2.4,59.8564761426528,
1,0,6.1,0.0,1,0,14,14,38,,,,,87.73309629998403,88.38381819997448,88.38381819997448,88.88501069997437,45,45,88.88501069997437,88.88501069997437,88.88501069997437,88.88501069997437,88.88501069997437,88.88501069997437,88.88501069997437,88.88501069997437,88.88501069997437,89.25126589997672,89.25126589997672,89.25126589997672,89.25126589997672,89.25126589997672,89.25126589997672,89.25126589997672,89.25126589997672,89.25126589997672,0,1,[0.0014281000476330519],[0.3670443000155501],89.25126589997672,89.45149389997823,0.0,89.45149389997823,0,0.0,0,1,1000,num_1,0.6449007000192069,,23,8,2026-03-04_13h57.03.614,2026A_exp2,2022.2.4,59.8564761426528,
1000,1,6.1,6.1,0,0,15,15,56,,,,,90.11882600001991,90.76957150001545,90.76957150001545,91.27071030001389,45,315,91.27071030001389,91.27071030001389,91.27071030001389,91.27071030001389,91.27071030001389,91.27071030001389,91.27071030001389,91.27071030001389,91.27071030001389,91.63717790000373,91.63717790000373,91.63717790000373,91.63717790000373,91.63717790000373,91.63717790000373,91.63717790000373,91.63717790000373,91.63717790000373,0,1,[0.0014081000117585063],[0.36691159999463707],91.63717790000373,91.83901950001018,1000,91.83901950001018,1000,1000,1000,1000,0,num_3,0.9678316000499763,,23,8,2026-03-04_13h57.03.614,2026A_exp2,2022.2.4,59.8564761426528,
1000,1,3.7,0.0,1,0,16,16,44,,,,,92.8383350999793,93.4888462999952,93.4888462999952,93.99015670001972,315,315,93.99015670001972,93.99015670001972,93.99015670001972,93.99015670001972,93.99015670001972,93.99015670001972,93.99015670001972,93.99015670001972,93.99015670001972,94.33985829999438,94.33985829999438,94.33985829999438,94.33985829999438,94.33985829999438,94.33985829999438,94.33985829999438,94.33985829999438,94.33985829999438,22,0,,,94.33985829999438,94.5420274999924,1000,94.5420274999924,1000,1000,1000,1000,0,num_3,0.7058791000163183,,23,8,2026-03-04_13h57.03.614,2026A_exp2,2022.2.4,59.8564761426528,
1000,1,0.0,0.0,0,0,17,17,47,,,,,95.27410460001556,95.92468719999306,95.92468719999306,96.42586090002442,315,315,96.42586090002442,96.42586090002442,96.42586090002442,96.42586090002442,96.42586090002442,96.42586090002442,96.42586090002442,96.42586090002442,96.42586090002442,96.79219900001772,96.79219900001772,96.79219900001772,96.79219900001772,96.79219900001772,96.79219900001772,96.79219900001772,96.79219900001772,96.79219900001772,23,0,,,96.79219900001772,96.99422509997385,1000,96.99422509997385,1000,1000,1000,1000,1,num_2,0.6370622999966145,,23,8,2026-03-04_13h57.03.614,2026A_exp2,2022.2.4,59.8564761426528,
1,0,3.7,4.9,0,0,18,18,31,,,,,97.65969170001335,98.31041989999358,98.31041989999358,98.81145300000207,315,315,98.81145300000207,98.81145300000207,98.81145300000207,98.81145300000207,98.81145300000207,98.81145300000207,98.81145300000207,98.81145300000207,98.81145300000207,99.17793439998059,99.17793439998059,99.17793439998059,99.17793439998059,99.17793439998059,99.17793439998059,99.17793439998059,99.17793439998059,99.17793439998059,6,2,"[0.0666007999680005, 0.18365540000377223]","[0.13379689998691902, 0.36727499996777624]",99.17793439998059,99.37808469997253,3.7,99.37808469997253,0,3.7,1,0,1000,num_1,0.8450190000003204,,23,8,2026-03-04_13h57.03.614,2026A_exp2,2022.2.4,59.8564761426528,
1000,1,4.9,6.1,1,0,19,19,18,,,,,100.24555200000759,100.89627859997563,100.89627859997563,101.38082880002912,315,45,101.38082880002912,101.38082880002912,101.38082880002912,101.38082880002912,101.38082880002912,101.38082880002912,101.38082880002912,101.38082880002912,101.38082880002912,101.74711599998409,101.74711599998409,101.74711599998409,101.74711599998409,101.74711599998409,101.74711599998409,101.74711599998409,101.74711599998409,101.74711599998409,23,0,,,101.74711599998409,101.95861089997925,1000,101.95861089997925,1000,1000,1000,1000,1,num_2,0.6413749000057578,,23,8,2026-03-04_13h57.03.614,2026A_exp2,2022.2.4,59.8564761426528,
1000,1,6.1,3.7,1,0,20,20,45,,,,,102.63150690001203,103.28228520002449,103.28228520002449,103.78300090000266,45,45,103.78300090000266,103.78300090000266,103.78300090000266,103.78300090000266,103.78300090000266,103.78300090000266,103.78300090000266,103.78300090000266,103.78300090000266,104.14966990001267,104.14966990001267,104.14966990001267,104.14966990001267,104.14966990001267,104.14966990001267,104.14966990001267,104.14966990001267,104.14966990001267,23,0,,,104.14966990001267,104.35164180002175,1000,104.35164180002175,1000,1000,1000,1000,0,num_3,0.463306299992837,,23,8,2026-03-04_13h57.03.614,2026A_exp2,2022.2.4,59.8564761426528,
1000,1,4.9,0.0,0,0,21,21,78,,,,,104.83351319999201,105.48449589998927,105.48449589998927,105.98532540001906,315,315,105.98532540001906,105.98532540001906,105.98532540001906,105.98532540001906,105.98532540001906,105.98532540001906,105.98532540001906,105.98532540001906,105.98532540001906,106.35184750001645,106.35184750001645,106.35184750001645,106.35184750001645,106.35184750001645,106.35184750001645,106.35184750001645,106.35184750001645,106.35184750001645,4,3,"[0.017453000007662922, 0.06726040004286915, 0.28417500003706664]","[0.05061310000019148, 0.25074300001142547, 0.3675189000205137]",106.35184750001645,106.55361419997644,1000,106.55361419997644,1000,1000,1000,1000,1,num_2,0.534266899980139,,23,8,2026-03-04_13h57.03.614,2026A_exp2,2022.2.4,59.8564761426528,
0,0,0.0,0.0,0,0,22,22,4,,,,,107.11928079999052,107.76995170000009,107.76995170000009,108.27108259999659,315,315,108.27108259999659,108.27108259999659,108.27108259999659,108.27108259999659,108.27108259999659,108.27108259999659,108.27108259999659,108.27108259999659,108.27108259999659,108.62061779998476,108.62061779998476,108.62061779998476,108.62061779998476,108.62061779998476,108.62061779998476,108.62061779998476,108.62061779998476,108.62061779998476,6,2,"[0.0012117999722249806, 0.1503196000121534]","[0.05027930001961067, 0.35060239996528253]",108.62061779998476,108.83295489999,0.0,108.83295489999,0,0.0,0,1,1000,num_1,0.9587638999801129,,23,8,2026-03-04_13h57.03.614,2026A_exp2,2022.2.4,59.8564761426528,
0,0,3.7,6.1,1,0,23,23,17,,,,,109.82170640002005,110.47269450000022,110.47269450000022,110.95709149999311,315,315,110.95709149999311,110.95709149999311,110.95709149999311,110.95709149999311,110.95709149999311,110.95709149999311,110.95709149999311,110.95709149999311,110.95709149999311,111.32349959999556,111.32349959999556,111.32349959999556,111.32349959999556,111.32349959999556,111.32349959999556,111.32349959999556,111.32349959999556,111.32349959999556,0,1,[0.0012017999542877078],[0.3671254999935627],111.32349959999556,111.52350110001862,3.7,111.52350110001862,0,3.7,1,0,1000,num_1,0.7075467000249773,,23,8,2026-03-04_13h57.03.614,2026A_exp2,2022.2.4,59.8564761426528,
1000,1,3.7,6.1,0,0,24,24,81,,,,,112.25772930000676,112.90833780000685,112.90833780000685,113.3927903000149,315,45,113.3927903000149,113.3927903000149,113.3927903000149,113.3927903000149,113.3927903000149,113.3927903000149,113.3927903000149,113.3927903000149,113.3927903000149,113.75913550000405,113.75913550000405,113.75913550000405,113.75913550000405,113.75913550000405,113.75913550000405,113.75913550000405,113.75913550000405,113.75913550000405,22,1,[0.001243000035174191],[0.017408500018063933],113.75913550000405,113.96730650000973,1000,113.96730650000973,1000,1000,1000,1000,1,num_2,0.5362436000141315,,23,8,2026-03-04_13h57.03.614,2026A_exp2,2022.2.4,59.8564761426528,
1000,1,0.0,6.1,0,0,25,25,83,,,,,114.52658830001019,115.17697740002768,115.17697740002768,115.67824229999678,315,45,115.67824229999678,115.67824229999678,115.67824229999678,115.67824229999678,115.67824229999678,115.67824229999678,115.67824229999678,115.67824229999678,115.67824229999678,116.04450820002239,116.04450820002239,116.04450820002239,116.04450820002239,116.04450820002239,116.04450820002239,116.04450820002239,116.04450820002239,116.04450820002239,13,2,"[0.18369249999523163, 0.23386300000129268]","[0.2004688000306487, 0.367292599985376]",116.04450820002239,116.246907200024,1000,116.246907200024,1000,1000,1000,1000,1,num_2,0.40072249999502674,,23,8,2026-03-04_13h57.03.614,2026A_exp2,2022.2.4,59.8564761426528,
1000,1,6.1,0.0,0,0,26,26,80,,,,,116.67873380001402,117.3295418000198,117.3295418000198,117.83060069999192,315,45,117.83060069999192,117.83060069999192,117.83060069999192,117.83060069999192,117.83060069999192,117.83060069999192,117.83060069999192,117.83060069999192,117.83060069999192,118.19665719999466,118.19665719999466,118.19665719999466,118.19665719999466,118.19665719999466,118.19665719999466,118.19665719999466,118.19665719999466,118.19665719999466,23,0,,,118.19665719999466,118.39868450001813,1000,118.39868450001813,1000,1000,1000,1000,0,num_3,0.4965958999819122,,23,8,2026-03-04_13h57.03.614,2026A_exp2,2022.2.4,59.8564761426528,
1000,1,0.0,0.0,1,0,27,27,70,,,,,118.91428899997845,119.5649623000063,119.5649623000063,120.0660479000071,45,45,120.0660479000071,120.0660479000071,120.0660479000071,120.0660479000071,120.0660479000071,120.0660479000071,120.0660479000071,120.0660479000071,120.0660479000071,120.4323635000037,120.4323635000037,120.4323635000037,120.4323635000037,120.4323635000037,120.4323635000037,120.4323635000037,120.4323635000037,120.4323635000037,8,1,[0.0014547000173479319],[0.2503759000101127],120.4323635000037,120.63448230002541,1000,120.63448230002541,1000,1000,1000,1000,1,num_2,0.5572484000003897,,23,8,2026-03-04_13h57.03.614,2026A_exp2,2022.2.4,59.8564761426528,
1,0,3.7,6.1,1,0,28,28,6,,,,,121.21660380001413,121.8678087000153,121.8678087000153,122.36841870000353,45,315,122.36841870000353,122.36841870000353,122.36841870000353,122.36841870000353,122.36841870000353,122.36841870000353,122.36841870000353,122.36841870000353,122.36841870000353,122.73492020001868,122.73492020001868,122.73492020001868,122.73492020001868,122.73492020001868,122.73492020001868,122.73492020001868,122.73492020001868,122.73492020001868,23,0,,,122.73492020001868,122.93491750000976,6.1,122.93491750000976,1,6.1,1,1,1000,num_4,0.625344000000041,,23,8,2026-03-04_13h57.03.614,2026A_exp2,2022.2.4,59.8564761426528,
1000,1,6.1,4.9,1,0,29,29,76,,,,,123.585614599986,124.23631659999955,124.23631659999955,124.72085600002902,315,315,124.72085600002902,124.72085600002902,124.72085600002902,124.72085600002902,124.72085600002902,124.72085600002902,124.72085600002902,124.72085600002902,124.72085600002902,125.08717349998187,125.08717349998187,125.08717349998187,125.08717349998187,125.08717349998187,125.08717349998187,125.08717349998187,125.08717349998187,125.08717349998187,20,2,"[0.31720520003000274, 0.36716409999644384]","[0.3505681000533514, 0.3671693000360392]",125.08717349998187,125.28934570000274,1000,125.28934570000274,1000,1000,1000,1000,1,num_2,0.8464585000183433,,23,8,2026-03-04_13h57.03.614,2026A_exp2,2022.2.4,59.8564761426528,
1,0,6.1,6.1,0,0,30,30,51,,,,,126.15482990001328,126.80568270001095,126.80568270001095,127.30674650002038,45,45,127.30674650002038,127.30674650002038,127.30674650002038,127.30674650002038,127.30674650002038,127.30674650002038,127.30674650002038,127.30674650002038,127.30674650002038,127.67296850000275,127.67296850000275,127.67296850000275,127.67296850000275,127.67296850000275,127.67296850000275,127.67296850000275,127.67296850000275,127.67296850000275,11,2,"[0.001202500017825514, 0.23384609998902306]","[0.03363389999140054, 0.36736500001279637]",127.67296850000275,127.87340500002028,6.1,127.87340500002028,1,6.1,1,1,1000,num_4,1.1109550000401214,,23,8,2026-03-04_13h57.03.614,2026A_exp2,2022.2.4,59.8564761426528,
1,0,0.0,0.0,0,0,31,31,66,,,,,129.00767080002697,129.65839320002124,129.65839320002124,130.14290729997447,45,315,130.14290729997447,130.14290729997447,130.14290729997447,130.14290729997447,130.14290729997447,130.14290729997447,130.14290729997447,130.14290729997447,130.14290729997447,130.50976699998137,130.50976699998137,130.50976699998137,130.50976699998137,130.50976699998137,130.50976699998137,130.50976699998137,130.50976699998137,130.50976699998137,20,1,[0.0012407000176608562],[0.050170800008345395],130.50976699998137,130.70918080001138,0.0,130.70918080001138,1,0.0,0,0,1000,num_4,0.8264196999953128,,23,8,2026-03-04_13h57.03.614,2026A_exp2,2022.2.4,59.8564761426528,
1000,1,6.1,3.7,0,0,32,32,61,,,,,131.56026120000752,132.21099629998207,132.21099629998207,132.69538240000838,45,315,132.69538240000838,132.69538240000838,132.69538240000838,132.69538240000838,132.69538240000838,132.69538240000838,132.69538240000838,132.69538240000838,132.69538240000838,133.0616888999939,133.0616888999939,133.0616888999939,133.0616888999939,133.0616888999939,133.0616888999939,133.0616888999939,133.0616888999939,133.0616888999939,23,0,,,133.0616888999939,133.2639652999933,1000,133.2639652999933,1000,1000,1000,1000,0,num_3,1.0159317000070587,,23,8,2026-03-04_13h57.03.614,2026A_exp2,2022.2.4,59.8564761426528,
1000,1,6.1,0.0,1,0,33,33,52,,,,,134.29629279999062,134.9472358999774,134.9472358999774,135.4482278000214,45,315,135.4482278000214,135.4482278000214,135.4482278000214,135.4482278000214,135.4482278000214,135.4482278000214,135.4482278000214,135.4482278000214,135.4482278000214,135.8143970000092,135.8143970000092,135.8143970000092,135.8143970000092,135.8143970000092,135.8143970000092,135.8143970000092,135.8143970000092,135.8143970000092,23,0,,,135.8143970000092,136.01643939997302,1000,136.01643939997302,1000,1000,1000,1000,0,num_3,0.43938260001596063,,23,8,2026-03-04_13h57.03.614,2026A_exp2,2022.2.4,59.8564761426528,
1000,1,4.9,0.0,1,0,34,34,7,,,,,136.48191989999032,137.13255989999743,137.13255989999743,137.63376350002363,45,45,137.63376350002363,137.63376350002363,137.63376350002363,137.63376350002363,137.63376350002363,137.63376350002363,137.63376350002363,137.63376350002363,137.63376350002363,138.0001357999863,138.0001357999863,138.0001357999863,138.0001357999863,138.0001357999863,138.0001357999863,138.0001357999863,138.0001357999863,138.0001357999863,23,0,,,138.0001357999863,138.20199119998142,1000,138.20199119998142,1000,1000,1000,1000,0,num_3,0.4699356000055559,,23,8,2026-03-04_13h57.03.614,2026A_exp2,2022.2.4,59.8564761426528,
1000,1,6.1,0.0,0,0,35,35,8,,,,,138.700800599996,139.35150029999204,139.35150029999204,139.85264170001028,45,45,139.85264170001028,139.85264170001028,139.85264170001028,139.85264170001028,139.85264170001028,139.85264170001028,139.85264170001028,139.85264170001028,139.85264170001028,140.21903350000503,140.21903350000503,140.21903350000503,140.21903350000503,140.21903350000503,140.21903350000503,140.21903350000503,140.21903350000503,140.21903350000503,17,2,"[0.1336824999889359, 0.31716630002483726]","[0.21717620000708848, 0.3339164000353776]",140.21903350000503,140.42117430001963,1000,140.42117430001963,1000,1000,1000,1000,0,num_3,0.43402489996515214,,23,8,2026-03-04_13h57.03.614,2026A_exp2,2022.2.4,59.8564761426528,
1,0,6.1,6.1,1,0,36,36,89,,,,,140.88638360000914,141.53691730002174,141.53691730002174,142.03817030001665,45,45,142.03817030001665,142.03817030001665,142.03817030001665,142.03817030001665,142.03817030001665,142.03817030001665,142.03817030001665,142.03817030001665,142.03817030001665,142.38785340002505,142.38785340002505,142.38785340002505,142.38785340002505,142.38785340002505,142.38785340002505,142.38785340002505,142.38785340002505,142.38785340002505,22,0,,,142.38785340002505,142.5879394999938,6.1,142.5879394999938,0,6.1,1,0,1000,num_1,1.2989711000118405,,23,8,2026-03-04_13h57.03.614,2026A_exp2,2022.2.4,59.8564761426528,
1,0,0.0,0.0,0,0,37,37,19,,,,,143.905991800013,144.55667979997816,144.55667979997816,145.04105280002113,45,45,145.04105280002113,145.04105280002113,145.04105280002113,145.04105280002113,145.04105280002113,145.04105280002113,145.04105280002113,145.04105280002113,145.04105280002113,145.40737949998584,145.40737949998584,145.40737949998584,145.40737949998584,145.40737949998584,145.40737949998584,145.40737949998584,145.40737949998584,145.40737949998584,23,0,,,145.40737949998584,145.60779099998763,0.0,145.60779099998763,1,0.0,0,0,1000,num_4,0.5923112999880686,,23,8,2026-03-04_13h57.03.614,2026A_exp2,2022.2.4,59.8564761426528,
1,0,6.1,6.1,0,0,38,38,11,,,,,146.22485419997247,146.87562669999897,146.87562669999897,147.3598138000234,315,315,147.3598138000234,147.3598138000234,147.3598138000234,147.3598138000234,147.3598138000234,147.3598138000234,147.3598138000234,147.3598138000234,147.3598138000234,147.72650569997495,147.72650569997495,147.72650569997495,147.72650569997495,147.72650569997495,147.72650569997495,147.72650569997495,147.72650569997495,147.72650569997495,23,0,,,147.72650569997495,147.92680640000617,6.1,147.92680640000617,1,6.1,1,1,1000,num_4,0.7843779000104405,,23,8,2026-03-04_13h57.03.614,2026A_exp2,2022.2.4,59.8564761426528,
1000,1,0.0,3.7,1,0,39,39,75,,,,,148.7274378000293,149.37816590000875,149.37816590000875,149.86259660002543,315,45,149.86259660002543,149.86259660002543,149.86259660002543,149.86259660002543,149.86259660002543,149.86259660002543,149.86259660002543,149.86259660002543,149.86259660002543,150.22902780002914,150.22902780002914,150.22902780002914,150.22902780002914,150.22902780002914,150.22902780002914,150.22902780002914,150.22902780002914,150.22902780002914,23,0,,,150.22902780002914,150.43167800002266,1000,150.43167800002266,1000,1000,1000,1000,0,num_3,0.6005508999805897,,23,8,2026-03-04_13h57.03.614,2026A_exp2,2022.2.4,59.8564761426528,
1,0,3.7,0.0,1,0,40,40,59,,,,,151.06326099997386,151.71369539998705,151.71369539998705,152.19818429998122,45,315,152.19818429998122,152.19818429998122,152.19818429998122,152.19818429998122,152.19818429998122,152.19818429998122,152.19818429998122,152.19818429998122,152.19818429998122,152.5647507000249,152.5647507000249,152.5647507000249,152.5647507000249,152.5647507000249,152.5647507000249,152.5647507000249,152.5647507000249,152.5647507000249,23,0,,,152.5647507000249,152.7648695000098,0.0,152.7648695000098,0,0.0,0,1,1000,num_1,1.2594412000034936,,23,8,2026-03-04_13h57.03.614,2026A_exp2,2022.2.4,59.8564761426528,
1000,1,4.9,0.0,0,0,41,41,20,,,,,154.04935159999877,154.70008759998018,154.70008759998018,155.18468160001794,315,315,155.18468160001794,155.18468160001794,155.18468160001794,155.18468160001794,155.18468160001794,155.18468160001794,155.18468160001794,155.18468160001794,155.18468160001794,155.55096740002045,155.55096740002045,155.55096740002045,155.55096740002045,155.55096740002045,155.55096740002045,155.55096740002045,155.55096740002045,155.55096740002045,23,0,,,155.55096740002045,155.7533227999811,1000,155.7533227999811,1000,1000,1000,1000,0,num_3,0.5417334000230767,,23,8,2026-03-04_13h57.03.614,2026A_exp2,2022.2.4,59.8564761426528,
1,0,0.0,3.7,0,0,42,42,1,,,,,156.31836600002134,156.96920529997442,156.96920529997442,157.47020239999983,315,45,157.47020239999983,157.47020239999983,157.47020239999983,157.47020239999983,157.47020239999983,157.47020239999983,157.47020239999983,157.47020239999983,157.47020239999983,157.83662239997648,157.83662239997648,157.83662239997648,157.83662239997648,157.83662239997648,157.83662239997648,157.83662239997648,157.83662239997648,157.83662239997648,23,0,,,157.83662239997648,158.0367500000284,0.0,158.0367500000284,1,0.0,0,0,1000,num_4,0.6505935000022873,,23,8,2026-03-04_13h57.03.614,2026A_exp2,2022.2.4,59.8564761426528,
1000,1,0.0,0.0,0,0,43,43,5,,,,,158.70400710002286,159.35479200002737,159.35479200002737,159.8392157999915,315,45,159.8392157999915,159.8392157999915,159.8392157999915,159.8392157999915,159.8392157999915,159.8392157999915,159.8392157999915,159.8392157999915,159.8392157999915,160.20571529999143,160.20571529999143,160.20571529999143,160.20571529999143,160.20571529999143,160.20571529999143,160.20571529999143,160.20571529999143,160.20571529999143,18,2,"[0.2005267000058666, 0.28427350003039464]","[0.2675522000063211, 0.30090530001325533]",160.20571529999143,160.40769520000322,1000,160.40769520000322,1000,1000,1000,1000,1,num_2,0.49605720001272857,,23,8,2026-03-04_13h57.03.614,2026A_exp2,2022.2.4,59.8564761426528,
1000,1,4.9,4.9,1,0,44,44,26,,,,,160.92355659999885,161.57373639999423,161.57373639999423,162.07468459999654,315,45,162.07468459999654,162.07468459999654,162.07468459999654,162.07468459999654,162.07468459999654,162.07468459999654,162.07468459999654,162.07468459999654,162.07468459999654,162.44120000000112,162.44120000000112,162.44120000000112,162.44120000000112,162.44120000000112,162.44120000000112,162.44120000000112,162.44120000000112,162.44120000000112,23,0,,,162.44120000000112,162.64355979999527,1000,162.64355979999527,1000,1000,1000,1000,1,num_2,0.604332200018689,,23,8,2026-03-04_13h57.03.614,2026A_exp2,2022.2.4,59.8564761426528,
1,0,4.9,0.0,0,0,45,45,87,,,,,163.27526159997797,163.9258955999976,163.9258955999976,164.42724190000445,315,315,164.42724190000445,164.42724190000445,164.42724190000445,164.42724190000445,164.42724190000445,164.42724190000445,164.42724190000445,164.42724190000445,164.42724190000445,164.79346570000052,164.79346570000052,164.79346570000052,164.79346570000052,164.79346570000052,164.79346570000052,164.79346570000052,164.79346570000052,164.79346570000052,23,0,,,164.79346570000052,164.99380260001635,4.9,164.99380260001635,1,4.9,1,1,1000,num_4,0.637112700031139,,23,8,2026-03-04_13h57.03.614,2026A_exp2,2022.2.4,59.8564761426528,
1,0,0.0,0.0,0,0,46,46,29,,,,,165.66096000000834,166.3117048999993,166.3117048999993,166.79616939998232,315,45,166.79616939998232,166.79616939998232,166.79616939998232,166.79616939998232,166.79616939998232,166.79616939998232,166.79616939998232,166.79616939998232,166.79616939998232,167.16263129998697,167.16263129998697,167.16263129998697,167.16263129998697,167.16263129998697,167.16263129998697,167.16263129998697,167.16263129998697,167.16263129998697,23,0,,,167.16263129998697,167.36288500000956,0.0,167.36288500000956,1,0.0,0,0,1000,num_4,0.8679475000244565,,23,8,2026-03-04_13h57.03.614,2026A_exp2,2022.2.4,59.8564761426528,
1,0,3.7,4.9,0,0,47,47,84,,,,,168.24696499999845,168.8975467000273,168.8975467000273,169.3820476999972,45,315,169.3820476999972,169.3820476999972,169.3820476999972,169.3820476999972,169.3820476999972,169.3820476999972,169.3820476999972,169.3820476999972,169.3820476999972,169.74862179998308,169.74862179998308,169.74862179998308,169.74862179998308,169.74862179998308,169.74862179998308,169.74862179998308,169.74862179998308,169.74862179998308,23,0,,,169.74862179998308,169.9486352999811,3.7,169.9486352999811,1,3.7,1,1,1000,num_4,1.8192476999829523,,23,8,2026-03-04_13h57.03.614,2026A_exp2,2022.2.4,59.8564761426528,
1,0,3.7,3.7,1,0,48,48,64,,,,,171.78383169998415,172.43456770002376,172.43456770002376,172.91902550001396,315,45,172.91902550001396,172.91902550001396,172.91902550001396,172.91902550001396,172.91902550001396,172.91902550001396,172.91902550001396,172.91902550001396,172.91902550001396,173.2852962000179,173.2852962000179,173.2852962000179,173.2852962000179,173.2852962000179,173.2852962000179,173.2852962000179,173.2852962000179,173.2852962000179,8,4,"[0.0012663999805226922, 0.13383949996205047, 0.2507255999953486, 0.3174536000005901]","[0.10068339999997988, 0.21735219995025545, 0.3007165999733843, 0.33409759995993227]",173.2852962000179,173.48555959999794,3.7,173.48555959999794,1,3.7,1,1,1000,num_4,0.6654646000242792,,23,8,2026-03-04_13h57.03.614,2026A_exp2,2022.2.4,59.8564761426528,
1,0,3.7,6.1,0,0,49,49,55,,,,,174.16940090002026,174.82033229997614,174.82033229997614,175.30462960002478,315,45,175.30462960002478,175.30462960002478,175.30462960002478,175.30462960002478,175.30462960002478,175.30462960002478,175.30462960002478,175.30462960002478,175.30462960002478,175.67119909997564,175.67119909997564,175.67119909997564,175.67119909997564,175.67119909997564,175.67119909997564,175.67119909997564,175.67119909997564,175.67119909997564,0,1,[0.0012466000043787062],[0.36731240001972765],175.67119909997564,175.87129460001597,3.7,175.87129460001597,0,3.7,1,0,1000,num_1,1.1275950000272132,,23,8,2026-03-04_13h57.03.614,2026A_exp2,2022.2.4,59.8564761426528,
1000,1,0.0,0.0,0,0,50,50,41,,,,,177.02331560000312,177.67367190000368,177.67367190000368,178.15877029998228,45,315,178.15877029998228,178.15877029998228,178.15877029998228,178.15877029998228,178.15877029998228,178.15877029998228,178.15877029998228,178.15877029998228,178.15877029998228,178.5249601000105,178.5249601000105,178.5249601000105,178.5249601000105,178.5249601000105,178.5249601000105,178.5249601000105,178.5249601000105,178.5249601000105,23,0,,,178.5249601000105,178.7256153000053,1000,178.7256153000053,1000,1000,1000,1000,1,num_2,0.4974439000361599,,23,8,2026-03-04_13h57.03.614,2026A_exp2,2022.2.4,59.8564761426528,
1,0,0.0,3.7,0,0,51,51,22,,,,,179.24184149998473,179.89161420002347,179.89161420002347,180.39277360000415,45,315,180.39277360000415,180.39277360000415,180.39277360000415,180.39277360000415,180.39277360000415,180.39277360000415,180.39277360000415,180.39277360000415,180.39277360000415,180.75908039999194,180.75908039999194,180.75908039999194,180.75908039999194,180.75908039999194,180.75908039999194,180.75908039999194,180.75908039999194,180.75908039999194,23,0,,,180.75908039999194,180.95936809998238,0.0,180.95936809998238,1,0.0,0,0,1000,num_4,0.687358100025449,,23,8,2026-03-04_13h57.03.614,2026A_exp2,2022.2.4,59.8564761426528,
1,0,6.1,3.7,0,0,52,52,86,,,,,181.67693140002666,182.31106360000558,182.31106360000558,182.81203859997913,45,45,182.81203859997913,182.81203859997913,182.81203859997913,182.81203859997913,182.81203859997913,182.81203859997913,182.81203859997913,182.81203859997913,182.81203859997913,183.17852810001932,183.17852810001932,183.17852810001932,183.17852810001932,183.17852810001932,183.17852810001932,183.17852810001932,183.17852810001932,183.17852810001932,23,0,,,183.17852810001932,183.37886420002906,6.1,183.37886420002906,1,6.1,1,1,1000,num_4,0.7967095000203699,,23,8,2026-03-04_13h57.03.614,2026A_exp2,2022.2.4,59.8564761426528,
1000,1,0.0,0.0,1,0,53,53,62,,,,,184.1962794000283,184.84687170002144,184.84687170002144,185.33142549998593,45,45,185.33142549998593,185.33142549998593,185.33142549998593,185.33142549998593,185.33142549998593,185.33142549998593,185.33142549998593,185.33142549998593,185.33142549998593,185.69783489999827,185.69783489999827,185.69783489999827,185.69783489999827,185.69783489999827,185.69783489999827,185.69783489999827,185.69783489999827,185.69783489999827,23,0,,,185.69783489999827,185.90019670000765,1000,185.90019670000765,1000,1000,1000,1000,0,num_3,0.859538100019563,,23,8,2026-03-04_13h57.03.614,2026A_exp2,2022.2.4,59.8564761426528,
1000,1,3.7,0.0,0,0,54,54,37,,,,,186.78215619997354,187.43297079997137,187.43297079997137,187.917205500009,315,45,187.917205500009,187.917205500009,187.917205500009,187.917205500009,187.917205500009,187.917205500009,187.917205500009,187.917205500009,187.917205500009,188.2837374000228,188.2837374000228,188.2837374000228,188.2837374000228,188.2837374000228,188.2837374000228,188.2837374000228,188.2837374000228,188.2837374000228,19,1,[0.0012788999592885375],[0.06713129999116063],188.2837374000228,188.4854129999876,1000,188.4854129999876,1000,1000,1000,1000,1,num_2,0.43390539998654276,,23,8,2026-03-04_13h57.03.614,2026A_exp2,2022.2.4,59.8564761426528,
1,0,0.0,4.9,1,0,55,55,65,,,,,188.9343521000119,189.58505280001555,189.58505280001555,190.0861013000249,45,45,190.0861013000249,190.0861013000249,190.0861013000249,190.0861013000249,190.0861013000249,190.0861013000249,190.0861013000249,190.0861013000249,190.0861013000249,190.4524574999814,190.4524574999814,190.4524574999814,190.4524574999814,190.4524574999814,190.4524574999814,190.4524574999814,190.4524574999814,190.4524574999814,23,0,,,190.4524574999814,190.652744800027,4.9,190.652744800027,1,4.9,1,1,1000,num_4,0.6665655000251718,,23,8,2026-03-04_13h57.03.614,2026A_exp2,2022.2.4,59.8564761426528,
1,0,0.0,4.9,0,0,56,56,35,,,,,191.33661270001903,191.9875188000151,191.9875188000151,192.47177850001026,315,45,192.47177850001026,192.47177850001026,192.47177850001026,192.47177850001026,192.47177850001026,192.47177850001026,192.47177850001026,192.47177850001026,192.47177850001026,192.8383157000062,192.8383157000062,192.8383157000062,192.8383157000062,192.8383157000062,192.8383157000062,192.8383157000062,192.8383157000062,192.8383157000062,23,0,,,192.8383157000062,193.0384624999715,0.0,193.0384624999715,1,0.0,0,0,1000,num_4,0.5452534999931231,,23,8,2026-03-04_13h57.03.614,2026A_exp2,2022.2.4,59.8564761426528,
1000,1,6.1,0.0,0,0,57,57,58,,,,,193.6056628000224,194.25642839999637,194.25642839999637,194.74070830002893,315,45,194.74070830002893,194.74070830002893,194.74070830002893,194.74070830002893,194.74070830002893,194.74070830002893,194.74070830002893,194.74070830002893,194.74070830002893,195.1072599000181,195.1072599000181,195.1072599000181,195.1072599000181,195.1072599000181,195.1072599000181,195.1072599000181,195.1072599000181,195.1072599000181,23,0,,,195.1072599000181,195.30917710001813,1000,195.30917710001813,1000,1000,1000,1000,0,num_3,0.6817004999611527,,23,8,2026-03-04_13h57.03.614,2026A_exp2,2022.2.4,59.8564761426528,
1,0,0.0,3.7,1,0,58,58,10,,,,,196.00805599999148,196.65882609999971,196.65882609999971,197.15994119999232,45,45,197.15994119999232,197.15994119999232,197.15994119999232,197.15994119999232,197.15994119999232,197.15994119999232,197.15994119999232,197.15994119999232,197.15994119999232,197.5263438000111,197.5263438000111,197.5263438000111,197.5263438000111,197.5263438000111,197.5263438000111,197.5263438000111,197.5263438000111,197.5263438000111,23,0,,,197.5263438000111,197.72650859999703,3.7,197.72650859999703,1,3.7,1,1,1000,num_4,0.5765251999837346,,23,8,2026-03-04_13h57.03.614,2026A_exp2,2022.2.4,59.8564761426528,
1000,1,0.0,0.0,1,0,59,59,40,,,,,198.32702680001967,198.97764729999471,198.97764729999471,199.46224859997164,45,315,199.46224859997164,199.46224859997164,199.46224859997164,199.46224859997164,199.46224859997164,199.46224859997164,199.46224859997164,199.46224859997164,199.46224859997164,199.82863010000437,199.82863010000437,199.82863010000437,199.82863010000437,199.82863010000437,199.82863010000437,199.82863010000437,199.82863010000437,199.82863010000437,16,2,"[0.25101349997567013, 0.2844626000151038]","[0.26760929997544736, 0.36767319997306913]",199.82863010000437,200.03106020000996,1000,200.03106020000996,1000,1000,1000,1000,1,num_2,0.5439808999653906,,23,8,2026-03-04_13h57.03.614,2026A_exp2,2022.2.4,59.8564761426528,
1000,1,3.7,0.0,1,0,60,60,21,,,,,200.59585430001607,201.24672830000054,201.24672830000054,201.74780349998036,45,315,201.74780349998036,201.74780349998036,201.74780349998036,201.74780349998036,201.74780349998036,201.74780349998036,201.74780349998036,201.74780349998036,201.74780349998036,202.114202799974,202.114202799974,202.114202799974,202.114202799974,202.114202799974,202.114202799974,202.114202799974,202.114202799974,202.114202799974,23,0,,,202.114202799974,202.3166601000121,1000,202.3166601000121,1000,1000,1000,1000,1,num_2,0.5303989999811165,,23,8,2026-03-04_13h57.03.614,2026A_exp2,2022.2.4,59.8564761426528,
1000,1,6.1,6.1,0,0,61,61,50,,,,,202.86511339998106,203.51552810001886,203.51552810001886,204.00007810001262,315,45,204.00007810001262,204.00007810001262,204.00007810001262,204.00007810001262,204.00007810001262,204.00007810001262,204.00007810001262,204.00007810001262,204.00007810001262,204.36651939997682,204.36651939997682,204.36651939997682,204.36651939997682,204.36651939997682,204.36651939997682,204.36651939997682,204.36651939997682,204.36651939997682,21,2,"[0.0007707999902777374, 0.11732719995779917]","[0.017296999983955175, 0.13399989996105433]",204.36651939997682,204.56865580001613,1000,204.56865580001613,1000,1000,1000,1000,1,num_2,0.6070151999592781,,23,8,2026-03-04_13h57.03.614,2026A_exp2,2022.2.4,59.8564761426528,
1,0,0.0,3.7,1,0,62,62,25,,,,,205.20058619999327,205.8513231999823,205.8513231999823,206.3523578000022,45,45,206.3523578000022,206.3523578000022,206.3523578000022,206.3523578000022,206.3523578000022,206.3523578000022,206.3523578000022,206.3523578000022,206.3523578000022,206.71889030002058,206.71889030002058,206.71889030002058,206.71889030002058,206.71889030002058,206.71889030002058,206.71889030002058,206.71889030002058,206.71889030002058,0,1,[0.001200400001835078],[0.3669520999537781],206.71889030002058,206.91898650000803,3.7,206.91898650000803,1,3.7,1,1,1000,num_4,0.464478199952282,,23,8,2026-03-04_13h57.03.614,2026A_exp2,2022.2.4,59.8564761426528,
1000,1,0.0,4.9,0,0,63,63,27,,,,,207.40262050001184,208.05359189998126,208.05359189998126,208.53785080002854,315,45,208.53785080002854,208.53785080002854,208.53785080002854,208.53785080002854,208.53785080002854,208.53785080002854,208.53785080002854,208.53785080002854,208.53785080002854,208.9043894999777,208.9043894999777,208.9043894999777,208.9043894999777,208.9043894999777,208.9043894999777,208.9043894999777,208.9043894999777,208.9043894999777,7,2,"[0.0012530999956652522, 0.36679020000156015]","[0.2503982000052929, 0.366793500026688]",208.9043894999777,209.1063339000102,1000,209.1063339000102,1000,1000,1000,1000,0,num_3,0.6844673000159673,,23,8,2026-03-04_13h57.03.614,2026A_exp2,2022.2.4,59.8564761426528,
1000,1,6.1,0.0,0,0,64,64,68,,,,,209.82181110000238,210.47263859998202,210.47263859998202,210.97377390001202,45,45,210.97377390001202,210.97377390001202,210.97377390001202,210.97377390001202,210.97377390001202,210.97377390001202,210.97377390001202,210.97377390001202,210.97377390001202,211.34014759998536,211.34014759998536,211.34014759998536,211.34014759998536,211.34014759998536,211.34014759998536,211.34014759998536,211.34014759998536,211.34014759998536,0,1,[0.0012246000114828348],[0.36735489999409765],211.34014759998536,211.54223660001298,1000,211.54223660001298,1000,1000,1000,1000,0,num_3,0.4977328000240959,,23,8,2026-03-04_13h57.03.614,2026A_exp2,2022.2.4,59.8564761426528,
1000,1,4.9,0.0,1,0,65,65,28,,,,,212.0575065999874,212.70816699997522,212.70816699997522,213.2147985000047,45,45,213.2147985000047,213.2147985000047,213.2147985000047,213.2147985000047,213.2147985000047,213.2147985000047,213.2147985000047,213.2147985000047,213.2147985000047,213.57574010000098,213.57574010000098,213.57574010000098,213.57574010000098,213.57574010000098,213.57574010000098,213.57574010000098,213.57574010000098,213.57574010000098,17,3,"[0.036125299986451864, 0.08332530001644045, 0.15023480000672862]","[0.06687480001710355, 0.10040830000070855, 0.20006290002493188]",213.57574010000098,213.79010659997584,1000,213.79010659997584,1000,1000,1000,1000,0,num_3,0.44123399996897206,,23,8,2026-03-04_13h57.03.614,2026A_exp2,2022.2.4,59.8564761426528,
1,0,4.9,0.0,1,0,66,66,48,,,,,214.25982709997334,214.91044669999974,214.91044669999974,215.41146199998911,45,45,215.41146199998911,215.41146199998911,215.41146199998911,215.41146199998911,215.41146199998911,215.41146199998911,215.41146199998911,215.41146199998911,215.41146199998911,215.7778469999903,215.7778469999903,215.7778469999903,215.7778469999903,215.7778469999903,215.7778469999903,215.7778469999903,215.7778469999903,215.7778469999903,23,0,,,215.7778469999903,215.97805839998182,0.0,215.97805839998182,1,0.0,0,0,1000,num_4,0.6129932000185363,,23,8,2026-03-04_13h57.03.614,2026A_exp2,2022.2.4,59.8564761426528,
1000,1,3.7,0.0,1,0,67,67,33,,,,,216.61187750002136,217.26275629998418,217.26275629998418,217.74702760000946,315,45,217.74702760000946,217.74702760000946,217.74702760000946,217.74702760000946,217.74702760000946,217.74702760000946,217.74702760000946,217.74702760000946,217.74702760000946,218.11357530002715,218.11357530002715,218.11357530002715,218.11357530002715,218.11357530002715,218.11357530002715,218.11357530002715,218.11357530002715,218.11357530002715,0,1,[0.0012379999971017241],[0.367252100026235],218.11357530002715,218.3156007999787,1000,218.3156007999787,1000,1000,1000,1000,0,num_3,0.7319905000040308,,23,8,2026-03-04_13h57.03.614,2026A_exp2,2022.2.4,59.8564761426528,
1000,1,0.0,3.7,1,0,68,68,43,,,,,219.06448719999753,219.71512880001683,219.71512880001683,220.2162695999723,45,45,220.2162695999723,220.2162695999723,220.2162695999723,220.2162695999723,220.2162695999723,220.2162695999723,220.2162695999723,220.2162695999723,220.2162695999723,220.58254099998157,220.58254099998157,220.58254099998157,220.58254099998157,220.58254099998157,220.58254099998157,220.58254099998157,220.58254099998157,220.58254099998157,23,0,,,220.58254099998157,220.7849661000073,1000,220.7849661000073,1000,1000,1000,1000,1,num_2,0.46993510000174865,,23,8,2026-03-04_13h57.03.614,2026A_exp2,2022.2.4,59.8564761426528,
1,0,0.0,3.7,0,0,69,69,2,,,,,221.28329330001725,221.93396860000212,221.93396860000212,222.43501850002212,45,45,222.43501850002212,222.43501850002212,222.43501850002212,222.43501850002212,222.43501850002212,222.43501850002212,222.43501850002212,222.43501850002212,222.43501850002212,222.80155759997433,222.80155759997433,222.80155759997433,222.80155759997433,222.80155759997433,222.80155759997433,222.80155759997433,222.80155759997433,222.80155759997433,16,2,"[0.0008069999748840928, 0.2846758000086993]","[0.0181686999858357, 0.368003299983684]",222.80155759997433,223.0018046000041,0.0,223.0018046000041,1,0.0,0,0,1000,num_4,0.7811923999688588,,23,8,2026-03-04_13h57.03.614,2026A_exp2,2022.2.4,59.8564761426528,
1,0,0.0,0.0,1,0,70,70,82,,,,,223.80246739997528,224.45307599997614,224.45307599997614,224.9375996000017,45,315,224.9375996000017,224.9375996000017,224.9375996000017,224.9375996000017,224.9375996000017,224.9375996000017,224.9375996000017,224.9375996000017,224.9375996000017,225.3041278999881,225.3041278999881,225.3041278999881,225.3041278999881,225.3041278999881,225.3041278999881,225.3041278999881,225.3041278999881,225.3041278999881,18,2,"[0.26700870000058785, 0.3503783000051044]","[0.3003237000084482, 0.3670407999888994]",225.3041278999881,225.5042624999769,0.0,225.5042624999769,1,0.0,0,0,1000,num_4,0.6147283000173047,,23,8,2026-03-04_13h57.03.614,2026A_exp2,2022.2.4,59.8564761426528,
1,0,0.0,0.0,0,0,71,71,49,,,,,226.13834000000497,226.77219659998082,226.77219659998082,227.27337970002554,45,45,227.27337970002554,227.27337970002554,227.27337970002554,227.27337970002554,227.27337970002554,227.27337970002554,227.27337970002554,227.27337970002554,227.27337970002554,227.63975460000802,227.63975460000802,227.63975460000802,227.63975460000802,227.63975460000802,227.63975460000802,227.63975460000802,227.63975460000802,227.63975460000802,23,0,,,227.63975460000802,227.84003020002274,0.0,227.84003020002274,1,0.0,0,0,1000,num_4,0.7348544999840669,,23,8,2026-03-04_13h57.03.614,2026A_exp2,2022.2.4,59.8564761426528,
1000,1,4.9,4.9,1,0,72,72,85,,,,,228.5906554000103,229.24125209997874,229.24125209997874,229.7257497999817,45,315,229.7257497999817,229.7257497999817,229.7257497999817,229.7257497999817,229.7257497999817,229.7257497999817,229.7257497999817,229.7257497999817,229.7257497999817,230.092254600022,230.092254600022,230.092254600022,230.092254600022,230.092254600022,230.092254600022,230.092254600022,230.092254600022,230.092254600022,23,0,,,230.092254600022,230.29257849999703,1000,230.29257849999703,1000,1000,1000,1000,1,num_2,0.5310808999929577,,23,8,2026-03-04_13h57.03.614,2026A_exp2,2022.2.4,59.8564761426528,
1000,1,6.1,4.9,0,0,73,73,77,,,,,230.84287749999203,231.49365279998165,231.49365279998165,231.99461140000494,315,315,231.99461140000494,231.99461140000494,231.99461140000494,231.99461140000494,231.99461140000494,231.99461140000494,231.99461140000494,231.99461140000494,231.99461140000494,232.3611839999794,232.3611839999794,232.3611839999794,232.3611839999794,232.3611839999794,232.3611839999794,232.3611839999794,232.3611839999794,232.3611839999794,23,0,,,232.3611839999794,232.5631442000158,1000,232.5631442000158,1000,1000,1000,1000,0,num_3,0.8997389999567531,,23,8,2026-03-04_13h57.03.614,2026A_exp2,2022.2.4,59.8564761426528,
1,0,0.0,0.0,0,0,74,74,0,,,,,233.47889279999072,234.12945569999283,234.12945569999283,234.63060829997994,45,45,234.63060829997994,234.63060829997994,234.63060829997994,234.63060829997994,234.63060829997994,234.63060829997994,234.63060829997994,234.63060829997994,234.63060829997994,234.99677119997796,234.99677119997796,234.99677119997796,234.99677119997796,234.99677119997796,234.99677119997796,234.99677119997796,234.99677119997796,234.99677119997796,21,2,"[0.0012517999857664108, 0.3497198999975808]","[0.017281899985391647, 0.36673959996551275]",234.99677119997796,235.19720940000843,0.0,235.19720940000843,1,0.0,0,0,1000,num_4,0.5542178999749012,,23,8,2026-03-04_13h57.03.614,2026A_exp2,2022.2.4,59.8564761426528,
1000,1,3.7,3.7,0,0,75,75,16,,,,,235.781298100017,236.41495319997193,236.41495319997193,236.9163534999825,315,45,236.9163534999825,236.9163534999825,236.9163534999825,236.9163534999825,236.9163534999825,236.9163534999825,236.9163534999825,236.9163534999825,236.9163534999825,237.28263480000896,237.28263480000896,237.28263480000896,237.28263480000896,237.28263480000896,237.28263480000896,237.28263480000896,237.28263480000896,237.28263480000896,23,0,,,237.28263480000896,237.48506069998257,1000,237.48506069998257,1000,1000,1000,1000,0,num_3,0.5232221999904141,,23,8,2026-03-04_13h57.03.614,2026A_exp2,2022.2.4,59.8564761426528,
1,0,0.0,4.9,1,0,76,76,36,,,,,238.0333438999951,238.6839397000149,238.6839397000149,239.18518269999186,45,45,239.18518269999186,239.18518269999186,239.18518269999186,239.18518269999186,239.18518269999186,239.18518269999186,239.18518269999186,239.18518269999186,239.18518269999186,239.55186200002208,239.55186200002208,239.55186200002208,239.55186200002208,239.55186200002208,239.55186200002208,239.55186200002208,239.55186200002208,239.55186200002208,23,0,,,239.55186200002208,239.75161380000645,4.9,239.75161380000645,1,4.9,1,1,1000,num_4,0.5032716999994591,,23,8,2026-03-04_13h57.03.614,2026A_exp2,2022.2.4,59.8564761426528,
1,0,0.0,3.7,1,0,77,77,12,,,,,240.28562949999468,240.93630200001644,240.93630200001644,241.42074560001493,315,45,241.42074560001493,241.42074560001493,241.42074560001493,241.42074560001493,241.42074560001493,241.42074560001493,241.42074560001493,241.42074560001493,241.42074560001493,241.78715869999724,241.78715869999724,241.78715869999724,241.78715869999724,241.78715869999724,241.78715869999724,241.78715869999724,241.78715869999724,241.78715869999724,21,1,[0.11701029998948798],[0.15049830003408715],241.78715869999724,241.98735760001,3.7,241.98735760001,1,3.7,1,1,1000,num_4,0.6762166999978945,,23,8,2026-03-04_13h57.03.614,2026A_exp2,2022.2.4,59.8564761426528,
1000,1,4.9,4.9,1,0,78,78,60,,,,,242.68812649999745,243.32206779997796,243.32206779997796,243.823299199983,45,45,243.823299199983,243.823299199983,243.823299199983,243.823299199983,243.823299199983,243.823299199983,243.823299199983,243.823299199983,243.823299199983,244.18963440001244,244.18963440001244,244.18963440001244,244.18963440001244,244.18963440001244,244.18963440001244,244.18963440001244,244.18963440001244,244.18963440001244,23,0,,,244.18963440001244,244.3919835999841,1000,244.3919835999841,1000,1000,1000,1000,1,num_2,0.5114698000252247,,23,8,2026-03-04_13h57.03.614,2026A_exp2,2022.2.4,59.8564761426528,
1,0,6.1,0.0,1,0,79,79,54,,,,,244.92363089998253,245.57447320001666,245.57447320001666,246.08092739997664,315,45,246.08092739997664,246.08092739997664,246.08092739997664,246.08092739997664,246.08092739997664,246.08092739997664,246.08092739997664,246.08092739997664,246.08092739997664,246.44190400000662,246.44190400000662,246.44190400000662,246.44190400000662,246.44190400000662,246.44190400000662,246.44190400000662,246.44190400000662,246.44190400000662,23,0,,,246.44190400000662,246.64208399999188,0.0,246.64208399999188,0,0.0,0,1,1000,num_1,1.2295365000027232,,23,8,2026-03-04_13h57.03.614,2026A_exp2,2022.2.4,59.8564761426528,
1000,1,6.1,6.1,0,0,80,80,74,,,,,247.89316709997365,248.54404160002014,248.54404160002014,249.02829059999203,45,45,249.02829059999203,249.02829059999203,249.02829059999203,249.02829059999203,249.02829059999203,249.02829059999203,249.02829059999203,249.02829059999203,249.02829059999203,249.39480299997376,249.39480299997376,249.39480299997376,249.39480299997376,249.39480299997376,249.39480299997376,249.39480299997376,249.39480299997376,249.39480299997376,8,2,"[0.0012132999836467206, 0.31700689997524023]","[0.20019739994313568, 0.3670962999458425]",249.39480299997376,249.59525910002412,1000,249.59525910002412,1000,1000,1000,1000,0,num_3,0.5006129000103101,,23,8,2026-03-04_13h57.03.614,2026A_exp2,2022.2.4,59.8564761426528,
1,0,6.1,4.9,0,0,81,81,30,,,,,250.11214420001488,250.76283479999984,250.76283479999984,251.2640790999867,45,45,251.2640790999867,251.2640790999867,251.2640790999867,251.2640790999867,251.2640790999867,251.2640790999867,251.2640790999867,251.2640790999867,251.2640790999867,251.6304581000004,251.6304581000004,251.6304581000004,251.6304581000004,251.6304581000004,251.6304581000004,251.6304581000004,251.6304581000004,251.6304581000004,0,1,[0.0012470000074245036],[0.36700910003855824],251.6304581000004,251.83056460000807,6.1,251.83056460000807,1,6.1,1,1,1000,num_4,0.6249031000188552,,23,8,2026-03-04_13h57.03.614,2026A_exp2,2022.2.4,59.8564761426528,
1,0,0.0,0.0,1,0,82,82,53,,,,,252.4813973000273,253.1319180999999,253.1319180999999,253.61618150002323,45,45,253.61618150002323,253.61618150002323,253.61618150002323,253.61618150002323,253.61618150002323,253.61618150002323,253.61618150002323,253.61618150002323,253.61618150002323,253.98280410002917,253.98280410002917,253.98280410002917,253.98280410002917,253.98280410002917,253.98280410002917,253.98280410002917,253.98280410002917,253.98280410002917,21,1,[0.0012379999971017241],[0.033348000026308],253.98280410002917,254.1830330999801,0.0,254.1830330999801,0,0.0,0,1,1000,num_1,0.7774052000022493,,23,8,2026-03-04_13h57.03.614,2026A_exp2,2022.2.4,59.8564761426528,
1,0,4.9,0.0,0,0,83,83,23,,,,,254.9836937999935,255.63445200002752,255.63445200002752,256.13539190002484,315,45,256.13539190002484,256.13539190002484,256.13539190002484,256.13539190002484,256.13539190002484,256.13539190002484,256.13539190002484,256.13539190002484,256.13539190002484,256.48531740001636,256.48531740001636,256.48531740001636,256.48531740001636,256.48531740001636,256.48531740001636,256.48531740001636,256.48531740001636,256.48531740001636,1,2,"[0.0012725000269711018, 0.1501066000200808]","[0.133537299989257, 0.3502536999876611]",256.48531740001636,256.68544919998385,4.9,256.68544919998385,1,4.9,1,1,1000,num_4,0.5295980999944732,,23,8,2026-03-04_13h57.03.614,2026A_exp2,2022.2.4,59.8564761426528,
1000,1,3.7,3.7,1,0,84,84,88,,,,,257.2357565999846,257.88672399998177,257.88672399998177,258.3710616999888,315,45,258.3710616999888,258.3710616999888,258.3710616999888,258.3710616999888,258.3710616999888,258.3710616999888,258.3710616999888,258.3710616999888,258.3710616999888,258.73748529999284,258.73748529999284,258.73748529999284,258.73748529999284,258.73748529999284,258.73748529999284,258.73748529999284,258.73748529999284,258.73748529999284,9,4,"[0.06719610001891851, 0.10030079999705777, 0.23348390002502128, 0.2835678000119515]","[0.08371910004643723, 0.19999779999488965, 0.26674680004362017, 0.3672668000217527]",258.73748529999284,258.9394460999756,1000,258.9394460999756,1000,1000,1000,1000,0,num_3,0.6928208000026643,,23,8,2026-03-04_13h57.03.614,2026A_exp2,2022.2.4,59.8564761426528,
1,0,4.9,0.0,1,0,85,85,15,,,,,259.65507630002685,260.3058129000128,260.3058129000128,260.8068621000275,45,315,260.8068621000275,260.8068621000275,260.8068621000275,260.8068621000275,260.8068621000275,260.8068621000275,260.8068621000275,260.8068621000275,260.8068621000275,261.17325280001387,261.17325280001387,261.17325280001387,261.17325280001387,261.17325280001387,261.17325280001387,261.17325280001387,261.17325280001387,261.17325280001387,0,1,[0.00121189997298643],[0.3672435999615118],261.17325280001387,261.3733737000148,0.0,261.3733737000148,0,0.0,0,1,1000,num_1,0.8587773999897763,,23,8,2026-03-04_13h57.03.614,2026A_exp2,2022.2.4,59.8564761426528,
0,0,0.0,0.0,0,0,86,86,69,,,,,262.2577182999812,262.9083821999957,262.9083821999957,263.4097937999759,315,315,263.4097937999759,263.4097937999759,263.4097937999759,263.4097937999759,263.4097937999759,263.4097937999759,263.4097937999759,263.4097937999759,263.4097937999759,263.759261899977,263.759261899977,263.759261899977,263.759261899977,263.759261899977,263.759261899977,263.759261899977,263.759261899977,263.759261899977,15,4,"[0.050266999984160066, 0.08381599996937439, 0.18393810000270605, 0.26744939998025075]","[0.06708109995815903, 0.1506286999792792, 0.20074319996638224, 0.28429009998217225]",263.759261899977,263.9594463999965,0.0,263.9594463999965,0,0.0,0,1,1000,num_1,0.8798505000304431,,23,8,2026-03-04_13h57.03.614,2026A_exp2,2022.2.4,59.8564761426528,
1000,1,0.0,4.9,1,0,87,87,73,,,,,264.86015909997514,265.5108232999919,265.5108232999919,265.99543439998524,315,315,265.99543439998524,265.99543439998524,265.99543439998524,265.99543439998524,265.99543439998524,265.99543439998524,265.99543439998524,265.99543439998524,265.99543439998524,266.36186429997906,266.36186429997906,266.36186429997906,266.36186429997906,266.36186429997906,266.36186429997906,266.36186429997906,266.36186429997906,266.36186429997906,22,1,[0.0012037000269629061],[0.017455800028983504],266.36186429997906,266.56392240000423,1000,266.56392240000423,1000,1000,1000,1000,1,num_2,0.7470154999755323,,23,8,2026-03-04_13h57.03.614,2026A_exp2,2022.2.4,59.8564761426528,
1000,1,6.1,0.0,1,0,88,88,79,,,,,267.3292949000024,267.98018529999536,267.98018529999536,268.4812209000229,45,45,268.4812209000229,268.4812209000229,268.4812209000229,268.4812209000229,268.4812209000229,268.4812209000229,268.4812209000229,268.4812209000229,268.4812209000229,268.84761140000774,268.84761140000774,268.84761140000774,268.84761140000774,268.84761140000774,268.84761140000774,268.84761140000774,268.84761140000774,268.84761140000774,23,0,,,268.84761140000774,269.0499743000255,1000,269.0499743000255,1000,1000,1000,1000,0,num_3,0.4370192000060342,,23,8,2026-03-04_13h57.03.614,2026A_exp2,2022.2.4,59.8564761426528,
1000,1,0.0,6.1,1,0,89,89,3,,,,,269.514829199994,270.16568739997456,270.16568739997456,270.6667693000054,315,315,270.6667693000054,270.6667693000054,270.6667693000054,270.6667693000054,270.6667693000054,270.6667693000054,270.6667693000054,270.6667693000054,270.6667693000054,271.0330728000263,271.0330728000263,271.0330728000263,271.0330728000263,271.0330728000263,271.0330728000263,271.0330728000263,271.0330728000263,271.0330728000263,9,4,"[0.0012962999753654003, 0.05010910000419244, 0.1334583000279963, 0.26711680000880733]","[0.0335837000166066, 0.06684179999865592, 0.20021869998890907, 0.3672624999890104]",271.0330728000263,271.2349832999753,1000,271.2349832999753,1000,1000,1000,1000,1,num_2,0.6930695000337437,,23,8,2026-03-04_13h57.03.614,2026A_exp2,2022.2.4,59.8564761426528,
,,,,,,,,,,,,,,,,,,,,,,,,,,,,,,,,,,,,,,,,,,,,,,,,,,,,271.9594548000023,,,,,,,
