validity,detectorcomp,contrastCW,contrastCCW,precueCWorCCW,block_80trials.thisRepN,block_80trials.thisTrialN,block_80trials.thisN,block_80trials.thisIndex,etRecord.started,etRecord.stopped,text.started,text.stopped,text_4.started,text_4.stopped,text_6.started,text_6.stopped,oriCW,oriCCW,roi_2.started,grating_UR.started,grating_UL.started,grating_LR.started,grating_LL.started,noise_UR.started,noise_UL.started,noise_LR.started,noise_LL.started,roi_2.stopped,grating_UR.stopped,grating_UL.stopped,grating_LR.stopped,grating_LL.stopped,noise_UR.stopped,noise_UL.stopped,noise_LR.stopped,noise_LL.stopped,outframe,roi_2.numLooks,roi_2.timesOn,roi_2.timesOff,text_2.started,text_2.stopped,probedcontrast,key_resp.started,respdetect,relevantContrast,correctDetect,TorFdetect,respCWorCCW,key_resp.keys,key_resp.rt,feedback_display_.started,participantNo,blockNo,date,expName,psychopyVersion,frameRate,
1,0,0.0,0.0,1,0,0,0,66,3.4400029107928276e-05,3.4400029107928276e-05,48.46780930017121,50.478448800044134,50.478448800044134,51.105360800167546,51.105360800167546,51.62404700019397,315,45,51.62404700019397,51.62404700019397,51.62404700019397,51.62404700019397,51.62404700019397,51.62404700019397,51.62404700019397,51.62404700019397,51.62404700019397,51.9729779001791,51.9729779001791,51.9729779001791,51.9729779001791,51.9729779001791,51.9729779001791,51.9729779001791,51.9729779001791,51.9729779001791,0,1,[0.0009326001163572073],[0.3679599000606686],51.9729779001791,52.173314000014216,0.0,52.173314000014216,0,0.0,0,1,1000,num_1,0.5608424998354167,,34,7,2026-03-13_10h42.30.987,2026A_exp2,2022.2.4,59.86375009872193,
1000,1,3.7,0.0,1,0,1,1,38,,,,,52.75714880018495,53.391204999992624,53.391204999992624,53.89216840011068,45,315,53.89216840011068,53.89216840011068,53.89216840011068,53.89216840011068,53.89216840011068,53.89216840011068,53.89216840011068,53.89216840011068,53.89216840011068,54.25853470014408,54.25853470014408,54.25853470014408,54.25853470014408,54.25853470014408,54.25853470014408,54.25853470014408,54.25853470014408,54.25853470014408,0,1,[0.001199800055474043],[0.36732210009358823],54.25853470014408,54.463701100088656,1000,54.463701100088656,1000,1000,1000,1000,1,num_2,0.5514371998142451,,34,7,2026-03-13_10h42.30.987,2026A_exp2,2022.2.4,59.86375009872193,
1,0,6.1,3.7,1,0,2,2,16,,,,,55.04290240001865,55.693365200189874,55.693365200189874,56.194527600193396,315,315,56.194527600193396,56.194527600193396,56.194527600193396,56.194527600193396,56.194527600193396,56.194527600193396,56.194527600193396,56.194527600193396,56.194527600193396,56.56107240007259,56.56107240007259,56.56107240007259,56.56107240007259,56.56107240007259,56.56107240007259,56.56107240007259,56.56107240007259,56.56107240007259,0,1,[0.0012199999764561653],[0.36720079998485744],56.56107240007259,56.761104200035334,3.7,56.761104200035334,1,3.7,1,1,1000,num_4,0.9013337998185307,,34,7,2026-03-13_10h42.30.987,2026A_exp2,2022.2.4,59.86375009872193,
1000,1,0.0,3.7,0,0,3,3,50,,,,,57.67897880007513,58.32928519998677,58.32928519998677,58.8137885001488,315,45,58.8137885001488,58.8137885001488,58.8137885001488,58.8137885001488,58.8137885001488,58.8137885001488,58.8137885001488,58.8137885001488,58.8137885001488,59.18027580017224,59.18027580017224,59.18027580017224,59.18027580017224,59.18027580017224,59.18027580017224,59.18027580017224,59.18027580017224,59.18027580017224,0,1,[0.0007201000116765499],[0.3676656000316143],59.18027580017224,59.382041700184345,1000,59.382041700184345,1000,1000,1000,1000,1,num_2,0.5208675998728722,,34,7,2026-03-13_10h42.30.987,2026A_exp2,2022.2.4,59.86375009872193,
1,0,4.9,0.0,0,0,4,4,47,,,,,59.931089100195095,60.581787100061774,60.581787100061774,61.082822600146756,45,45,61.082822600146756,61.082822600146756,61.082822600146756,61.082822600146756,61.082822600146756,61.082822600146756,61.082822600146756,61.082822600146756,61.082822600146756,61.449127400061116,61.449127400061116,61.449127400061116,61.449127400061116,61.449127400061116,61.449127400061116,61.449127400061116,61.449127400061116,61.449127400061116,0,1,[0.0010609000455588102],[0.3673272000160068],61.449127400061116,61.64939540019259,4.9,61.64939540019259,0,4.9,1,0,1000,num_1,0.5089661998208612,,34,7,2026-03-13_10h42.30.987,2026A_exp2,2022.2.4,59.86375009872193,
1000,1,0.0,0.0,0,0,5,5,24,,,,,62.183302600169554,62.83393680001609,62.83393680001609,63.31817109999247,45,45,63.31817109999247,63.31817109999247,63.31817109999247,63.31817109999247,63.31817109999247,63.31817109999247,63.31817109999247,63.31817109999247,63.31817109999247,63.68468499998562,63.68468499998562,63.68468499998562,63.68468499998562,63.68468499998562,63.68468499998562,63.68468499998562,63.68468499998562,63.68468499998562,0,1,[0.001223200000822544],[0.3668740999419242],63.68468499998562,63.88537380006164,1000,63.88537380006164,1000,1000,1000,1000,1,num_2,0.4973332998342812,,34,7,2026-03-13_10h42.30.987,2026A_exp2,2022.2.4,59.86375009872193,
1,0,0.0,0.0,1,0,6,6,4,,,,,64.40294830012135,65.05273510003462,65.05273510003462,65.55473500001244,45,45,65.55473500001244,65.55473500001244,65.55473500001244,65.55473500001244,65.55473500001244,65.55473500001244,65.55473500001244,65.55473500001244,65.55473500001244,65.92022760002874,65.92022760002874,65.92022760002874,65.92022760002874,65.92022760002874,65.92022760002874,65.92022760002874,65.92022760002874,65.92022760002874,0,1,[0.0007385001517832279],[0.3664902001619339],65.92022760002874,66.12083570007235,0.0,66.12083570007235,0,0.0,0,1,1000,num_1,0.6136636999435723,,34,7,2026-03-13_10h42.30.987,2026A_exp2,2022.2.4,59.86375009872193,
1,0,0.0,4.9,1,0,7,7,73,,,,,66.75525360018946,67.38866860000417,67.38866860000417,67.889385699993,315,45,67.889385699993,67.889385699993,67.889385699993,67.889385699993,67.889385699993,67.889385699993,67.889385699993,67.889385699993,67.889385699993,68.25640730001032,68.25640730001032,68.25640730001032,68.25640730001032,68.25640730001032,68.25640730001032,68.25640730001032,68.25640730001032,68.25640730001032,0,1,[0.0007408000528812408],[0.3684095998760313],68.25640730001032,68.45627150009386,4.9,68.45627150009386,1,4.9,1,1,1000,num_4,0.42181849968619645,,34,7,2026-03-13_10h42.30.987,2026A_exp2,2022.2.4,59.86375009872193,
1000,1,0.0,0.0,1,0,8,8,34,,,,,68.90754040004686,69.54026350006461,69.54026350006461,70.04147389996797,45,315,70.04147389996797,70.04147389996797,70.04147389996797,70.04147389996797,70.04147389996797,70.04147389996797,70.04147389996797,70.04147389996797,70.04147389996797,70.40804810007103,70.40804810007103,70.40804810007103,70.40804810007103,70.40804810007103,70.40804810007103,70.40804810007103,70.40804810007103,70.40804810007103,0,1,[0.0007340000011026859],[0.3667675999458879],70.40804810007103,70.61057490017265,1000,70.61057490017265,1000,1000,1000,1000,0,num_3,0.7161421997006983,,34,7,2026-03-13_10h42.30.987,2026A_exp2,2022.2.4,59.86375009872193,
0,0,0.0,4.9,0,0,9,9,65,,,,,71.34246610011905,71.99326050002128,71.99326050002128,72.47741260007024,45,45,72.47741260007024,72.47741260007024,72.47741260007024,72.47741260007024,72.47741260007024,72.47741260007024,72.47741260007024,72.47741260007024,72.47741260007024,72.84396540001035,72.84396540001035,72.84396540001035,72.84396540001035,72.84396540001035,72.84396540001035,72.84396540001035,72.84396540001035,72.84396540001035,0,1,[0.0012586999218910933],[0.3671086998656392],72.84396540001035,73.04408819996752,4.9,73.04408819996752,1,4.9,1,1,1000,num_4,0.9229264997411519,,34,7,2026-03-13_10h42.30.987,2026A_exp2,2022.2.4,59.86375009872193,
1,0,0.0,3.7,1,0,10,10,30,,,,,73.99495050008409,74.62910849996842,74.62910849996842,75.13019900000654,45,315,75.13019900000654,75.13019900000654,75.13019900000654,75.13019900000654,75.13019900000654,75.13019900000654,75.13019900000654,75.13019900000654,75.13019900000654,75.49662089999765,75.49662089999765,75.49662089999765,75.49662089999765,75.49662089999765,75.49662089999765,75.49662089999765,75.49662089999765,75.49662089999765,0,1,[0.0012668000999838114],[0.3672893000766635],75.49662089999765,75.69708289997652,3.7,75.69708289997652,0,3.7,1,0,1000,num_1,0.6852284998167306,,34,7,2026-03-13_10h42.30.987,2026A_exp2,2022.2.4,59.86375009872193,
1000,1,4.9,0.0,0,0,11,11,37,,,,,76.41415269998834,77.06478450004943,77.06478450004943,77.54936230019666,315,45,77.54936230019666,77.54936230019666,77.54936230019666,77.54936230019666,77.54936230019666,77.54936230019666,77.54936230019666,77.54936230019666,77.54936230019666,77.91556110000238,77.91556110000238,77.91556110000238,77.91556110000238,77.91556110000238,77.91556110000238,77.91556110000238,77.91556110000238,77.91556110000238,0,1,[0.0007883000653237104],[0.3674731000792235],77.91556110000238,78.11747599998489,1000,78.11747599998489,1000,1000,1000,1000,0,num_3,0.6327549999114126,,34,7,2026-03-13_10h42.30.987,2026A_exp2,2022.2.4,59.86375009872193,
1,0,0.0,4.9,1,0,12,12,41,,,,,78.76675150007941,79.41675740014762,79.41675740014762,79.90129040018655,45,315,79.90129040018655,79.90129040018655,79.90129040018655,79.90129040018655,79.90129040018655,79.90129040018655,79.90129040018655,79.90129040018655,79.90129040018655,80.26753409998491,80.26753409998491,80.26753409998491,80.26753409998491,80.26753409998491,80.26753409998491,80.26753409998491,80.26753409998491,80.26753409998491,2,1,[0.0008354000747203827],[0.35046360013075173],80.26753409998491,80.4680155001115,4.9,80.4680155001115,1,4.9,1,1,1000,num_4,0.5387629999313504,,34,7,2026-03-13_10h42.30.987,2026A_exp2,2022.2.4,59.86375009872193,
1000,1,6.1,6.1,1,0,13,13,53,,,,,81.03519830014557,81.66947360010818,81.66947360010818,82.17049679998308,45,315,82.17049679998308,82.17049679998308,82.17049679998308,82.17049679998308,82.17049679998308,82.17049679998308,82.17049679998308,82.17049679998308,82.17049679998308,82.53699779999442,82.53699779999442,82.53699779999442,82.53699779999442,82.53699779999442,82.53699779999442,82.53699779999442,82.53699779999442,82.53699779999442,0,1,[0.0012437000405043364],[0.3670992001425475],82.53699779999442,82.7388469001744,1000,82.7388469001744,1000,1000,1000,1000,0,num_3,0.6041570997331291,,34,7,2026-03-13_10h42.30.987,2026A_exp2,2022.2.4,59.86375009872193,
1,0,6.1,0.0,0,0,14,14,77,,,,,83.37094890000299,84.02186830015853,84.02186830015853,84.52276990003884,315,45,84.52276990003884,84.52276990003884,84.52276990003884,84.52276990003884,84.52276990003884,84.52276990003884,84.52276990003884,84.52276990003884,84.52276990003884,84.8893738000188,84.8893738000188,84.8893738000188,84.8893738000188,84.8893738000188,84.8893738000188,84.8893738000188,84.8893738000188,84.8893738000188,0,1,[0.0012456001713871956],[0.36710660019889474],84.8893738000188,85.08947480004281,6.1,85.08947480004281,1,6.1,1,1,1000,num_4,0.5089290998876095,,34,7,2026-03-13_10h42.30.987,2026A_exp2,2022.2.4,59.86375009872193,
1,0,0.0,0.0,0,0,15,15,39,,,,,85.62329130014405,86.27402340015396,86.27402340015396,86.75832550018094,315,315,86.75832550018094,86.75832550018094,86.75832550018094,86.75832550018094,86.75832550018094,86.75832550018094,86.75832550018094,86.75832550018094,86.75832550018094,87.12483220011927,87.12483220011927,87.12483220011927,87.12483220011927,87.12483220011927,87.12483220011927,87.12483220011927,87.12483220011927,87.12483220011927,23,0,,,87.12483220011927,87.32500860001892,0.0,87.32500860001892,0,0.0,0,1,1000,num_1,0.6104641000274569,,34,7,2026-03-13_10h42.30.987,2026A_exp2,2022.2.4,59.86375009872193,
1,0,0.0,3.7,0,0,16,16,76,,,,,87.95894880010746,88.60972030018456,88.60972030018456,89.0941455999855,45,45,89.0941455999855,89.0941455999855,89.0941455999855,89.0941455999855,89.0941455999855,89.0941455999855,89.0941455999855,89.0941455999855,89.0941455999855,89.46053929999471,89.46053929999471,89.46053929999471,89.46053929999471,89.46053929999471,89.46053929999471,89.46053929999471,89.46053929999471,89.46053929999471,23,0,,,89.46053929999471,89.66076570004225,0.0,89.66076570004225,0,0.0,0,1,1000,num_1,0.3856778999324888,,34,7,2026-03-13_10h42.30.987,2026A_exp2,2022.2.4,59.86375009872193,
1000,1,0.0,0.0,1,0,17,17,63,,,,,90.07766160019673,90.728347199969,90.728347199969,91.21262530004606,315,45,91.21262530004606,91.21262530004606,91.21262530004606,91.21262530004606,91.21262530004606,91.21262530004606,91.21262530004606,91.21262530004606,91.21262530004606,91.5794065000955,91.5794065000955,91.5794065000955,91.5794065000955,91.5794065000955,91.5794065000955,91.5794065000955,91.5794065000955,91.5794065000955,23,0,,,91.5794065000955,91.78113590017892,1000,91.78113590017892,1000,1000,1000,1000,1,num_2,0.7450778000056744,,34,7,2026-03-13_10h42.30.987,2026A_exp2,2022.2.4,59.86375009872193,
1,0,4.9,4.9,0,0,18,18,28,,,,,92.54673409997486,93.19763100007549,93.19763100007549,93.69865230005234,45,315,93.69865230005234,93.69865230005234,93.69865230005234,93.69865230005234,93.69865230005234,93.69865230005234,93.69865230005234,93.69865230005234,93.69865230005234,94.0480613000691,94.0480613000691,94.0480613000691,94.0480613000691,94.0480613000691,94.0480613000691,94.0480613000691,94.0480613000691,94.0480613000691,19,3,"[0.06689279992133379, 0.2169935000129044, 0.333250799914822]","[0.08343290002085268, 0.23365730000659823, 0.35021799989044666]",94.0480613000691,94.24871430010535,4.9,94.26539100008085,0,4.9,1,0,1000,num_1,0.4128266000188887,,34,7,2026-03-13_10h42.30.987,2026A_exp2,2022.2.4,59.86375009872193,
1,0,4.9,4.9,1,0,19,19,18,,,,,94.69921320001595,95.34971930016764,95.34971930016764,95.83422360010445,45,45,95.83422360010445,95.83422360010445,95.83422360010445,95.83422360010445,95.83422360010445,95.83422360010445,95.83422360010445,95.83422360010445,95.83422360010445,96.20058730011806,96.20058730011806,96.20058730011806,96.20058730011806,96.20058730011806,96.20058730011806,96.20058730011806,96.20058730011806,96.20058730011806,5,2,"[0.001276100054383278, 0.2002385000232607]","[0.18357700016349554, 0.3169234001543373]",96.20058730011806,96.40088370000012,4.9,96.40088370000012,1,4.9,1,1,1000,num_4,0.6856368998996913,,34,7,2026-03-13_10h42.30.987,2026A_exp2,2022.2.4,59.86375009872193,
0,0,0.0,0.0,1,0,20,20,14,,,,,97.11812470015138,97.75219970010221,97.75219970010221,98.25314130005427,315,45,98.25314130005427,98.25314130005427,98.25314130005427,98.25314130005427,98.25314130005427,98.25314130005427,98.25314130005427,98.25314130005427,98.25314130005427,98.61953440005891,98.61953440005891,98.61953440005891,98.61953440005891,98.61953440005891,98.61953440005891,98.61953440005891,98.61953440005891,98.61953440005891,22,1,[0.1337913000024855],[0.1505422000773251],98.61953440005891,98.81992810009979,0.0,98.81992810009979,0,0.0,0,1,1000,num_1,0.4435418997891247,,34,7,2026-03-13_10h42.30.987,2026A_exp2,2022.2.4,59.86375009872193,
0,0,4.9,0.0,1,0,21,21,26,,,,,99.28680450003594,99.93769660010003,99.93769660010003,100.4222145001404,315,315,100.4222145001404,100.4222145001404,100.4222145001404,100.4222145001404,100.4222145001404,100.4222145001404,100.4222145001404,100.4222145001404,100.4222145001404,100.78850130015053,100.78850130015053,100.78850130015053,100.78850130015053,100.78850130015053,100.78850130015053,100.78850130015053,100.78850130015053,100.78850130015053,23,0,,,100.78850130015053,100.9886872000061,4.9,100.9886872000061,1,4.9,1,1,1000,num_4,0.9698701999150217,,34,7,2026-03-13_10h42.30.987,2026A_exp2,2022.2.4,59.86375009872193,
0,0,0.0,6.1,1,0,22,22,46,,,,,101.99095230014063,102.62385080009699,102.62385080009699,103.12483330001123,45,45,103.12483330001123,103.12483330001123,103.12483330001123,103.12483330001123,103.12483330001123,103.12483330001123,103.12483330001123,103.12483330001123,103.12483330001123,103.49128970014863,103.49128970014863,103.49128970014863,103.49128970014863,103.49128970014863,103.49128970014863,103.49128970014863,103.49128970014863,103.49128970014863,0,1,[0.0012951998505741358],[0.36701079993508756],103.49128970014863,103.69137640018016,0.0,103.69137640018016,0,0.0,0,1,1000,num_1,0.5717078999150544,,34,7,2026-03-13_10h42.30.987,2026A_exp2,2022.2.4,59.86375009872193,
1,0,0.0,0.0,0,0,23,23,85,,,,,104.2920234000776,104.94267230015248,104.94267230015248,105.42698970017955,315,45,105.42698970017955,105.42698970017955,105.42698970017955,105.42698970017955,105.42698970017955,105.42698970017955,105.42698970017955,105.42698970017955,105.42698970017955,105.79354970017448,105.79354970017448,105.79354970017448,105.79354970017448,105.79354970017448,105.79354970017448,105.79354970017448,105.79354970017448,105.79354970017448,0,1,[0.00121779995970428],[0.3672100999392569],105.79354970017448,105.99365360010415,0.0,105.99365360010415,0,0.0,0,1,1000,num_1,0.6445289999246597,,34,7,2026-03-13_10h42.30.987,2026A_exp2,2022.2.4,59.86375009872193,
0,0,0.0,0.0,1,0,24,24,80,,,,,106.66098010004498,107.31178069999442,107.31178069999442,107.7961413001176,45,45,107.7961413001176,107.7961413001176,107.7961413001176,107.7961413001176,107.7961413001176,107.7961413001176,107.7961413001176,107.7961413001176,107.7961413001176,108.16261390014552,108.16261390014552,108.16261390014552,108.16261390014552,108.16261390014552,108.16261390014552,108.16261390014552,108.16261390014552,108.16261390014552,0,1,[0.0012372001074254513],[0.36720750015228987],108.16261390014552,108.36271200003102,0.0,108.36271200003102,0,0.0,0,1,1000,num_1,0.6046091997995973,,34,7,2026-03-13_10h42.30.987,2026A_exp2,2022.2.4,59.86375009872193,
1000,1,4.9,3.7,0,0,25,25,40,,,,,108.99674640013836,109.63074559997767,109.63074559997767,110.13178479997441,315,315,110.13178479997441,110.13178479997441,110.13178479997441,110.13178479997441,110.13178479997441,110.13178479997441,110.13178479997441,110.13178479997441,110.13178479997441,110.49828459997661,110.49828459997661,110.49828459997661,110.49828459997661,110.49828459997661,110.49828459997661,110.49828459997661,110.49828459997661,110.49828459997661,0,1,[0.0014529000036418438],[0.3670650999993086],110.49828459997661,110.69840009999461,1000,110.69840009999461,1000,1000,1000,1000,0,num_3,0.5480674998834729,,34,7,2026-03-13_10h42.30.987,2026A_exp2,2022.2.4,59.86375009872193,
1000,1,0.0,0.0,1,0,26,26,35,,,,,111.2655505000148,111.9163846001029,111.9163846001029,112.41748940013349,45,315,112.41748940013349,112.41748940013349,112.41748940013349,112.41748940013349,112.41748940013349,112.41748940013349,112.41748940013349,112.41748940013349,112.41748940013349,112.7839773001615,112.7839773001615,112.7839773001615,112.7839773001615,112.7839773001615,112.7839773001615,112.7839773001615,112.7839773001615,112.7839773001615,22,1,[0.001295400084927678],[0.01755880005657673],112.7839773001615,112.98599270009436,1000,112.98599270009436,1000,1000,1000,1000,0,num_3,0.7089968998916447,,34,7,2026-03-13_10h42.30.987,2026A_exp2,2022.2.4,59.86375009872193,
1000,1,4.9,0.0,1,0,27,27,56,,,,,113.71806020010263,114.36874429997988,114.36874429997988,114.86979230004363,45,315,114.86979230004363,114.86979230004363,114.86979230004363,114.86979230004363,114.86979230004363,114.86979230004363,114.86979230004363,114.86979230004363,114.86979230004363,115.2195826000534,115.2195826000534,115.2195826000534,115.2195826000534,115.2195826000534,115.2195826000534,115.2195826000534,115.2195826000534,115.2195826000534,22,0,,,115.2195826000534,115.42177200014703,1000,115.42177200014703,1000,1000,1000,1000,0,num_3,0.7447566997725517,,34,7,2026-03-13_10h42.30.987,2026A_exp2,2022.2.4,59.86375009872193,
1,0,3.7,0.0,0,0,28,28,3,,,,,116.18755799997598,116.8211120001506,116.8211120001506,117.32238400005735,315,315,117.32238400005735,117.32238400005735,117.32238400005735,117.32238400005735,117.32238400005735,117.32238400005735,117.32238400005735,117.32238400005735,117.32238400005735,117.68876740010455,117.68876740010455,117.68876740010455,117.68876740010455,117.68876740010455,117.68876740010455,117.68876740010455,117.68876740010455,117.68876740010455,16,2,"[0.001193600008264184, 0.10024490021169186]","[0.08363380003720522, 0.13364800019189715]",117.68876740010455,117.8889508000575,3.7,117.8889508000575,0,3.7,1,0,1000,num_1,0.6302020996809006,,34,7,2026-03-13_10h42.30.987,2026A_exp2,2022.2.4,59.86375009872193,
1,0,0.0,3.7,0,0,29,29,31,,,,,118.53951800009236,119.19032600009814,119.19032600009814,119.6745997001417,45,315,119.6745997001417,119.6745997001417,119.6745997001417,119.6745997001417,119.6745997001417,119.6745997001417,119.6745997001417,119.6745997001417,119.6745997001417,120.0410617000889,120.0410617000889,120.0410617000889,120.0410617000889,120.0410617000889,120.0410617000889,120.0410617000889,120.0410617000889,120.0410617000889,1,1,[0.0012113999109715223],[0.36707749986089766],120.0410617000889,120.24127750005573,0.0,120.24127750005573,0,0.0,0,1,1000,num_1,0.5410132997203618,,34,7,2026-03-13_10h42.30.987,2026A_exp2,2022.2.4,59.86375009872193,
1000,1,0.0,4.9,1,0,30,30,72,,,,,120.80846010008827,121.45918240002356,121.45918240002356,121.94353689998388,45,45,121.94353689998388,121.94353689998388,121.94353689998388,121.94353689998388,121.94353689998388,121.94353689998388,121.94353689998388,121.94353689998388,121.94353689998388,122.3096543001011,122.3096543001011,122.3096543001011,122.3096543001011,122.3096543001011,122.3096543001011,122.3096543001011,122.3096543001011,122.3096543001011,23,0,,,122.3096543001011,122.51195499999449,1000,122.51195499999449,1000,1000,1000,1000,1,num_2,0.4704257999546826,,34,7,2026-03-13_10h42.30.987,2026A_exp2,2022.2.4,59.86375009872193,
1,0,6.1,3.7,1,0,31,31,83,,,,,123.01071720011532,123.66136130015366,123.66136130015366,124.16250069998205,45,315,124.16250069998205,124.16250069998205,124.16250069998205,124.16250069998205,124.16250069998205,124.16250069998205,124.16250069998205,124.16250069998205,124.16250069998205,124.51226010010578,124.51226010010578,124.51226010010578,124.51226010010578,124.51226010010578,124.51226010010578,124.51226010010578,124.51226010010578,124.51226010010578,8,2,"[0.0011952000204473734, 0.21677129995077848]","[0.2001833999529481, 0.25034949998371303]",124.51226010010578,124.71243300009519,3.7,124.71243300009519,1,3.7,1,1,1000,num_4,0.8382135999854654,,34,7,2026-03-13_10h42.30.987,2026A_exp2,2022.2.4,59.86375009872193,
0,0,0.0,4.9,1,0,32,32,0,,,,,125.57981110014953,126.23071390017867,126.23071390017867,126.7315883000847,315,315,126.7315883000847,126.7315883000847,126.7315883000847,126.7315883000847,126.7315883000847,126.7315883000847,126.7315883000847,126.7315883000847,126.7315883000847,127.08148030005395,127.08148030005395,127.08148030005395,127.08148030005395,127.08148030005395,127.08148030005395,127.08148030005395,127.08148030005395,127.08148030005395,22,0,,,127.08148030005395,127.28156290017068,0.0,127.28156290017068,0,0.0,0,1,1000,num_1,0.6046197998803109,,34,7,2026-03-13_10h42.30.987,2026A_exp2,2022.2.4,59.86375009872193,
1000,1,0.0,0.0,0,0,33,33,13,,,,,127.91556270001456,128.56632230011746,128.56632230011746,129.050745600136,45,45,129.050745600136,129.050745600136,129.050745600136,129.050745600136,129.050745600136,129.050745600136,129.050745600136,129.050745600136,129.050745600136,129.41722630010918,129.41722630010918,129.41722630010918,129.41722630010918,129.41722630010918,129.41722630010918,129.41722630010918,129.41722630010918,129.41722630010918,12,1,[0.0013741999864578247],[0.18386180000379682],129.41722630010918,129.6199056999758,1000,129.6199056999758,1000,1000,1000,1000,1,num_2,0.49853939982131124,,34,7,2026-03-13_10h42.30.987,2026A_exp2,2022.2.4,59.86375009872193,
1,0,4.9,6.1,0,0,34,34,29,,,,,130.13451050012372,130.78521860018373,130.78521860018373,131.28633980010636,315,45,131.28633980010636,131.28633980010636,131.28633980010636,131.28633980010636,131.28633980010636,131.28633980010636,131.28633980010636,131.28633980010636,131.28633980010636,131.65271600009874,131.65271600009874,131.65271600009874,131.65271600009874,131.65271600009874,131.65271600009874,131.65271600009874,131.65271600009874,131.65271600009874,23,0,,,131.65271600009874,131.8527695001103,4.9,131.8527695001103,0,4.9,1,0,1000,num_1,0.5221384998876601,,34,7,2026-03-13_10h42.30.987,2026A_exp2,2022.2.4,59.86375009872193,
1,0,3.7,3.7,0,0,35,35,60,,,,,132.40368560003117,133.0374561001081,133.0374561001081,133.53860830003396,45,45,133.53860830003396,133.53860830003396,133.53860830003396,133.53860830003396,133.53860830003396,133.53860830003396,133.53860830003396,133.53860830003396,133.53860830003396,133.90489490004256,133.90489490004256,133.90489490004256,133.90489490004256,133.90489490004256,133.90489490004256,133.90489490004256,133.90489490004256,133.90489490004256,23,0,,,133.90489490004256,134.1052077000495,3.7,134.1052077000495,0,3.7,1,0,1000,num_1,0.6370834999252111,,34,7,2026-03-13_10h42.30.987,2026A_exp2,2022.2.4,59.86375009872193,
1000,1,4.9,0.0,0,0,36,36,12,,,,,134.77255120011978,135.406436300138,135.406436300138,135.9074997000862,45,45,135.9074997000862,135.9074997000862,135.9074997000862,135.9074997000862,135.9074997000862,135.9074997000862,135.9074997000862,135.9074997000862,135.9074997000862,136.27404040005058,136.27404040005058,136.27404040005058,136.27404040005058,136.27404040005058,136.27404040005058,136.27404040005058,136.27404040005058,136.27404040005058,21,1,[0.21693750005215406],[0.2503460000734776],136.27404040005058,136.4759597000666,1000,136.4759597000666,1000,1000,1000,1000,0,num_3,0.5064032999798656,,34,7,2026-03-13_10h42.30.987,2026A_exp2,2022.2.4,59.86375009872193,
1,0,0.0,6.1,1,0,37,37,5,,,,,137.00794750009663,137.65856030001305,137.65856030001305,138.15999240009114,45,45,138.15999240009114,138.15999240009114,138.15999240009114,138.15999240009114,138.15999240009114,138.15999240009114,138.15999240009114,138.15999240009114,138.15999240009114,138.5095926001668,138.5095926001668,138.5095926001668,138.5095926001668,138.5095926001668,138.5095926001668,138.5095926001668,138.5095926001668,138.5095926001668,22,0,,,138.5095926001668,138.70969659998082,6.1,138.70969659998082,1,6.1,1,1,1000,num_4,0.47250869986601174,,34,7,2026-03-13_10h42.30.987,2026A_exp2,2022.2.4,59.86375009872193,
1000,1,4.9,0.0,1,0,38,38,84,,,,,139.21010090014897,139.8609220001381,139.8609220001381,140.34522900008596,315,45,140.34522900008596,140.34522900008596,140.34522900008596,140.34522900008596,140.34522900008596,140.34522900008596,140.34522900008596,140.34522900008596,140.34522900008596,140.71182610001415,140.71182610001415,140.71182610001415,140.71182610001415,140.71182610001415,140.71182610001415,140.71182610001415,140.71182610001415,140.71182610001415,23,0,,,140.71182610001415,140.91426540003158,1000,140.91426540003158,1000,1000,1000,1000,0,num_3,0.43719729990698397,,34,7,2026-03-13_10h42.30.987,2026A_exp2,2022.2.4,59.86375009872193,
1000,1,0.0,4.9,1,0,39,39,57,,,,,141.37904460006393,142.02978099999018,142.02978099999018,142.53087340015918,45,45,142.53087340015918,142.53087340015918,142.53087340015918,142.53087340015918,142.53087340015918,142.53087340015918,142.53087340015918,142.53087340015918,142.53087340015918,142.8973605001811,142.8973605001811,142.8973605001811,142.8973605001811,142.8973605001811,142.8973605001811,142.8973605001811,142.8973605001811,142.8973605001811,22,1,[0.06678039999678731],[0.08344439999200404],142.8973605001811,143.09954770002514,1000,143.09954770002514,1000,1000,1000,1000,1,num_2,0.46728029986843467,,34,7,2026-03-13_10h42.30.987,2026A_exp2,2022.2.4,59.86375009872193,
1,0,0.0,0.0,0,0,40,40,32,,,,,143.59793699998409,144.24866040004417,144.24866040004417,144.7498073000461,45,315,144.7498073000461,144.7498073000461,144.7498073000461,144.7498073000461,144.7498073000461,144.7498073000461,144.7498073000461,144.7498073000461,144.7498073000461,145.11614990001544,145.11614990001544,145.11614990001544,145.11614990001544,145.11614990001544,145.11614990001544,145.11614990001544,145.11614990001544,145.11614990001544,0,1,[0.0012170998379588127],[0.3671970998402685],145.11614990001544,145.31635630014353,0.0,145.31635630014353,0,0.0,0,1,1000,num_1,0.5619173997547477,,34,7,2026-03-13_10h42.30.987,2026A_exp2,2022.2.4,59.86375009872193,
1000,1,6.1,4.9,1,0,41,41,15,,,,,145.90017060004175,146.5509140000213,146.5509140000213,147.0352782001719,45,315,147.0352782001719,147.0352782001719,147.0352782001719,147.0352782001719,147.0352782001719,147.0352782001719,147.0352782001719,147.0352782001719,147.0352782001719,147.40188600006513,147.40188600006513,147.40188600006513,147.40188600006513,147.40188600006513,147.40188600006513,147.40188600006513,147.40188600006513,147.40188600006513,23,0,,,147.40188600006513,147.6040748001542,1000,147.6040748001542,1000,1000,1000,1000,1,num_2,0.4984657997265458,,34,7,2026-03-13_10h42.30.987,2026A_exp2,2022.2.4,59.86375009872193,
1000,1,6.1,6.1,0,0,42,42,87,,,,,148.11910830019042,148.7698793001473,148.7698793001473,149.25428490014747,315,315,149.25428490014747,149.25428490014747,149.25428490014747,149.25428490014747,149.25428490014747,149.25428490014747,149.25428490014747,149.25428490014747,149.25428490014747,149.62073770002462,149.62073770002462,149.62073770002462,149.62073770002462,149.62073770002462,149.62073770002462,149.62073770002462,149.62073770002462,149.62073770002462,23,0,,,149.62073770002462,149.8232488001231,1000,149.83769299997948,1000,1000,1000,1000,0,num_3,0.4097014998551458,,34,7,2026-03-13_10h42.30.987,2026A_exp2,2022.2.4,59.86375009872193,
0,0,6.1,4.9,1,0,43,43,42,,,,,150.27128510014154,150.92208090005443,150.92208090005443,151.422973100096,315,45,151.422973100096,151.422973100096,151.422973100096,151.422973100096,151.422973100096,151.422973100096,151.422973100096,151.422973100096,151.422973100096,151.772958900081,151.772958900081,151.772958900081,151.772958900081,151.772958900081,151.772958900081,151.772958900081,151.772958900081,151.772958900081,22,0,,,151.772958900081,151.9731334000826,6.1,151.9731334000826,0,6.1,1,0,1000,num_1,0.5132139998022467,,34,7,2026-03-13_10h42.30.987,2026A_exp2,2022.2.4,59.86375009872193,
1,0,3.7,6.1,1,0,44,44,75,,,,,152.50658709998243,153.1575672000181,153.1575672000181,153.6587056000717,315,315,153.6587056000717,153.6587056000717,153.6587056000717,153.6587056000717,153.6587056000717,153.6587056000717,153.6587056000717,153.6587056000717,153.6587056000717,154.0250605000183,154.0250605000183,154.0250605000183,154.0250605000183,154.0250605000183,154.0250605000183,154.0250605000183,154.0250605000183,154.0250605000183,23,0,,,154.0250605000183,154.22529950016178,6.1,154.22529950016178,1,6.1,1,1,1000,num_4,0.6539531997404993,,34,7,2026-03-13_10h42.30.987,2026A_exp2,2022.2.4,59.86375009872193,
1000,1,0.0,0.0,1,0,45,45,44,,,,,154.90927670011297,155.54330610018224,155.54330610018224,156.04403150011785,45,45,156.04403150011785,156.04403150011785,156.04403150011785,156.04403150011785,156.04403150011785,156.04403150011785,156.04403150011785,156.04403150011785,156.04403150011785,156.4104758000467,156.4104758000467,156.4104758000467,156.4104758000467,156.4104758000467,156.4104758000467,156.4104758000467,156.4104758000467,156.4104758000467,23,0,,,156.4104758000467,156.61080350005068,1000,156.61080350005068,1000,1000,1000,1000,1,num_2,0.4833090999163687,,34,7,2026-03-13_10h42.30.987,2026A_exp2,2022.2.4,59.86375009872193,
1000,1,4.9,0.0,1,0,46,46,74,,,,,157.11184150003828,157.76177930017002,157.76177930017002,158.26318310014904,45,45,158.26318310014904,158.26318310014904,158.26318310014904,158.26318310014904,158.26318310014904,158.26318310014904,158.26318310014904,158.26318310014904,158.26318310014904,158.629270600155,158.629270600155,158.629270600155,158.629270600155,158.629270600155,158.629270600155,158.629270600155,158.629270600155,158.629270600155,23,0,,,158.629270600155,158.82961420016363,1000,158.82961420016363,1000,1000,1000,1000,0,num_3,0.5052787999156862,,34,7,2026-03-13_10h42.30.987,2026A_exp2,2022.2.4,59.86375009872193,
1000,1,3.7,4.9,0,0,47,47,25,,,,,159.36351740011014,160.0139992001932,160.0139992001932,160.4985074000433,45,45,160.4985074000433,160.4985074000433,160.4985074000433,160.4985074000433,160.4985074000433,160.4985074000433,160.4985074000433,160.4985074000433,160.4985074000433,160.86493230005726,160.86493230005726,160.86493230005726,160.86493230005726,160.86493230005726,160.86493230005726,160.86493230005726,160.86493230005726,160.86493230005726,23,0,,,160.86493230005726,161.06531039997935,1000,161.06531039997935,1000,1000,1000,1000,1,num_2,1.2051972998306155,,34,7,2026-03-13_10h42.30.987,2026A_exp2,2022.2.4,59.86375009872193,
1000,1,0.0,0.0,1,0,48,48,68,,,,,162.29974940000102,162.93369850004092,162.93369850004092,163.43520539999008,45,45,163.43520539999008,163.43520539999008,163.43520539999008,163.43520539999008,163.43520539999008,163.43520539999008,163.43520539999008,163.43520539999008,163.43520539999008,163.80114830005914,163.80114830005914,163.80114830005914,163.80114830005914,163.80114830005914,163.80114830005914,163.80114830005914,163.80114830005914,163.80114830005914,23,0,,,163.80114830005914,164.00144230015576,1000,164.00144230015576,1000,1000,1000,1000,1,num_2,0.5813636998645961,,34,7,2026-03-13_10h42.30.987,2026A_exp2,2022.2.4,59.86375009872193,
1,0,3.7,0.0,0,0,49,49,9,,,,,164.60212359996513,165.252738900017,165.252738900017,165.73707390017807,315,315,165.73707390017807,165.73707390017807,165.73707390017807,165.73707390017807,165.73707390017807,165.73707390017807,165.73707390017807,165.73707390017807,165.73707390017807,166.10385960014537,166.10385960014537,166.10385960014537,166.10385960014537,166.10385960014537,166.10385960014537,166.10385960014537,166.10385960014537,166.10385960014537,23,0,,,166.10385960014537,166.30404620012268,3.7,166.30404620012268,0,3.7,1,0,1000,num_1,0.582658999832347,,34,7,2026-03-13_10h42.30.987,2026A_exp2,2022.2.4,59.86375009872193,
1000,1,0.0,4.9,0,0,50,50,23,,,,,166.90446400013752,167.5553465001285,167.5553465001285,168.0396620000247,45,45,168.0396620000247,168.0396620000247,168.0396620000247,168.0396620000247,168.0396620000247,168.0396620000247,168.0396620000247,168.0396620000247,168.0396620000247,168.40616410016082,168.40616410016082,168.40616410016082,168.40616410016082,168.40616410016082,168.40616410016082,168.40616410016082,168.40616410016082,168.40616410016082,23,0,,,168.40616410016082,168.60838600015268,1000,168.60838600015268,1000,1000,1000,1000,0,num_3,0.4390334999188781,,34,7,2026-03-13_10h42.30.987,2026A_exp2,2022.2.4,59.86375009872193,
1000,1,3.7,0.0,1,0,51,51,78,,,,,169.07340290001594,169.72406100016087,169.72406100016087,170.2251349000726,315,45,170.2251349000726,170.2251349000726,170.2251349000726,170.2251349000726,170.2251349000726,170.2251349000726,170.2251349000726,170.2251349000726,170.2251349000726,170.5749331000261,170.5749331000261,170.5749331000261,170.5749331000261,170.5749331000261,170.5749331000261,170.5749331000261,170.5749331000261,170.5749331000261,22,0,,,170.5749331000261,170.77531779999845,1000,170.77531779999845,1000,1000,1000,1000,1,num_2,0.46287939976900816,,34,7,2026-03-13_10h42.30.987,2026A_exp2,2022.2.4,59.86375009872193,
1,0,3.7,3.7,0,0,52,52,8,,,,,171.2588886001613,171.90951540018432,171.90951540018432,172.41076940018684,45,315,172.41076940018684,172.41076940018684,172.41076940018684,172.41076940018684,172.41076940018684,172.41076940018684,172.41076940018684,172.41076940018684,172.41076940018684,172.76056009996682,172.76056009996682,172.76056009996682,172.76056009996682,172.76056009996682,172.76056009996682,172.76056009996682,172.76056009996682,172.76056009996682,22,0,,,172.76056009996682,172.96070180018432,3.7,172.96070180018432,1,3.7,1,1,1000,num_4,0.9333704998716712,,34,7,2026-03-13_10h42.30.987,2026A_exp2,2022.2.4,59.86375009872193,
0,0,4.9,6.1,1,0,53,53,70,,,,,173.91156899998896,174.56217140005901,174.56217140005901,175.04675360000692,45,45,175.04675360000692,175.04675360000692,175.04675360000692,175.04675360000692,175.04675360000692,175.04675360000692,175.04675360000692,175.04675360000692,175.04675360000692,175.41319810017012,175.41319810017012,175.41319810017012,175.41319810017012,175.41319810017012,175.41319810017012,175.41319810017012,175.41319810017012,175.41319810017012,23,0,,,175.41319810017012,175.61323750019073,4.9,175.61323750019073,0,4.9,1,0,1000,num_1,0.8418788998387754,,34,7,2026-03-13_10h42.30.987,2026A_exp2,2022.2.4,59.86375009872193,
1000,1,0.0,3.7,1,0,54,54,67,,,,,176.48099280009046,177.11483830004,177.11483830004,177.6158680000808,45,315,177.6158680000808,177.6158680000808,177.6158680000808,177.6158680000808,177.6158680000808,177.6158680000808,177.6158680000808,177.6158680000808,177.6158680000808,177.98243209999055,177.98243209999055,177.98243209999055,177.98243209999055,177.98243209999055,177.98243209999055,177.98243209999055,177.98243209999055,177.98243209999055,23,0,,,177.98243209999055,178.18474970012903,1000,178.18474970012903,1000,1000,1000,1000,1,num_2,0.5416379000525922,,34,7,2026-03-13_10h42.30.987,2026A_exp2,2022.2.4,59.86375009872193,
1,0,0.0,0.0,0,0,55,55,11,,,,,178.7497649001889,179.40054190019146,179.40054190019146,179.90162810008042,45,315,179.90162810008042,179.90162810008042,179.90162810008042,179.90162810008042,179.90162810008042,179.90162810008042,179.90162810008042,179.90162810008042,179.90162810008042,180.268051299965,180.268051299965,180.268051299965,180.268051299965,180.268051299965,180.268051299965,180.268051299965,180.268051299965,180.268051299965,23,0,,,180.268051299965,180.46843540016562,0.0,180.46843540016562,0,0.0,0,1,1000,num_1,0.5862714997492731,,34,7,2026-03-13_10h42.30.987,2026A_exp2,2022.2.4,59.86375009872193,
1,0,6.1,0.0,0,0,56,56,51,,,,,181.08525490015745,181.71942820004188,181.71942820004188,182.2206113000866,315,45,182.2206113000866,182.2206113000866,182.2206113000866,182.2206113000866,182.2206113000866,182.2206113000866,182.2206113000866,182.2206113000866,182.2206113000866,182.58689220016822,182.58689220016822,182.58689220016822,182.58689220016822,182.58689220016822,182.58689220016822,182.58689220016822,182.58689220016822,182.58689220016822,23,0,,,182.58689220016822,182.78702190006152,6.1,182.78702190006152,1,6.1,1,1,1000,num_4,0.6509969998151064,,34,7,2026-03-13_10h42.30.987,2026A_exp2,2022.2.4,59.86375009872193,
1000,1,3.7,0.0,1,0,57,57,19,,,,,183.45440770010464,184.10520560014993,184.10520560014993,184.60631830012426,315,315,184.60631830012426,184.60631830012426,184.60631830012426,184.60631830012426,184.60631830012426,184.60631830012426,184.60631830012426,184.60631830012426,184.60631830012426,184.9728643000126,184.9728643000126,184.9728643000126,184.9728643000126,184.9728643000126,184.9728643000126,184.9728643000126,184.9728643000126,184.9728643000126,23,0,,,184.9728643000126,185.174107800005,1000,185.174107800005,1000,1000,1000,1000,0,num_3,0.8483333999756724,,34,7,2026-03-13_10h42.30.987,2026A_exp2,2022.2.4,59.86375009872193,
1,0,0.0,0.0,0,0,58,58,61,,,,,186.04039790015668,186.691095800139,186.691095800139,187.192211400019,45,315,187.192211400019,187.192211400019,187.192211400019,187.192211400019,187.192211400019,187.192211400019,187.192211400019,187.192211400019,187.192211400019,187.5585032000672,187.5585032000672,187.5585032000672,187.5585032000672,187.5585032000672,187.5585032000672,187.5585032000672,187.5585032000672,187.5585032000672,23,0,,,187.5585032000672,187.7588231000118,0.0,187.7588231000118,0,0.0,0,1,1000,num_1,0.6160144999157637,,34,7,2026-03-13_10h42.30.987,2026A_exp2,2022.2.4,59.86375009872193,
0,0,6.1,6.1,1,0,59,59,48,,,,,188.3925964999944,189.0434610999655,189.0434610999655,189.52784880017862,45,45,189.52784880017862,189.52784880017862,189.52784880017862,189.52784880017862,189.52784880017862,189.52784880017862,189.52784880017862,189.52784880017862,189.52784880017862,189.89425330003724,189.89425330003724,189.89425330003724,189.89425330003724,189.89425330003724,189.89425330003724,189.89425330003724,189.89425330003724,189.89425330003724,23,0,,,189.89425330003724,190.09453530004248,6.1,190.09453530004248,0,6.1,1,0,1000,num_1,0.7289694999344647,,34,7,2026-03-13_10h42.30.987,2026A_exp2,2022.2.4,59.86375009872193,
1,0,0.0,0.0,1,0,60,60,20,,,,,190.8449932001531,191.4792323000729,191.4792323000729,191.9803482000716,45,45,191.9803482000716,191.9803482000716,191.9803482000716,191.9803482000716,191.9803482000716,191.9803482000716,191.9803482000716,191.9803482000716,191.9803482000716,192.3467784000095,192.3467784000095,192.3467784000095,192.3467784000095,192.3467784000095,192.3467784000095,192.3467784000095,192.3467784000095,192.3467784000095,23,0,,,192.3467784000095,192.5469198001083,0.0,192.5469198001083,1,0.0,0,0,1000,num_4,0.5559554998762906,,34,7,2026-03-13_10h42.30.987,2026A_exp2,2022.2.4,59.86375009872193,
1000,1,6.1,0.0,0,0,61,61,21,,,,,193.13074459997006,193.7815266000107,193.7815266000107,194.26597340009175,45,315,194.26597340009175,194.26597340009175,194.26597340009175,194.26597340009175,194.26597340009175,194.26597340009175,194.26597340009175,194.26597340009175,194.26597340009175,194.63235129998066,194.63235129998066,194.63235129998066,194.63235129998066,194.63235129998066,194.63235129998066,194.63235129998066,194.63235129998066,194.63235129998066,23,0,,,194.63235129998066,194.8328311999794,1000,194.8328311999794,1000,1000,1000,1000,0,num_3,0.4379771000239998,,34,7,2026-03-13_10h42.30.987,2026A_exp2,2022.2.4,59.86375009872193,
1000,1,3.7,6.1,1,0,62,62,43,,,,,195.29961089999415,195.95069940015674,195.95069940015674,196.45150450011715,315,315,196.45150450011715,196.45150450011715,196.45150450011715,196.45150450011715,196.45150450011715,196.45150450011715,196.45150450011715,196.45150450011715,196.45150450011715,196.81782960006967,196.81782960006967,196.81782960006967,196.81782960006967,196.81782960006967,196.81782960006967,196.81782960006967,196.81782960006967,196.81782960006967,23,0,,,196.81782960006967,197.0201199001167,1000,197.0201199001167,1000,1000,1000,1000,1,num_2,0.5538769999984652,,34,7,2026-03-13_10h42.30.987,2026A_exp2,2022.2.4,59.86375009872193,
1000,1,3.7,0.0,0,0,63,63,81,,,,,197.60184650006704,198.25283160014078,198.25283160014078,198.7537216001656,315,315,198.7537216001656,198.7537216001656,198.7537216001656,198.7537216001656,198.7537216001656,198.7537216001656,198.7537216001656,198.7537216001656,198.7537216001656,199.12013140018098,199.12013140018098,199.12013140018098,199.12013140018098,199.12013140018098,199.12013140018098,199.12013140018098,199.12013140018098,199.12013140018098,23,0,,,199.12013140018098,199.3223963000346,1000,199.3223963000346,1000,1000,1000,1000,0,num_3,0.547645399812609,,34,7,2026-03-13_10h42.30.987,2026A_exp2,2022.2.4,59.86375009872193,
1,0,3.7,0.0,0,0,64,64,10,,,,,199.88744230009615,200.538086600136,200.538086600136,201.03943140013143,45,315,201.03943140013143,201.03943140013143,201.03943140013143,201.03943140013143,201.03943140013143,201.03943140013143,201.03943140013143,201.03943140013143,201.03943140013143,201.405858800048,201.405858800048,201.405858800048,201.405858800048,201.405858800048,201.405858800048,201.405858800048,201.405858800048,201.405858800048,0,1,[0.0012032999657094479],[0.3673366999719292],201.405858800048,201.6059195001144,3.7,201.6059195001144,1,3.7,1,1,1000,num_4,0.8887634999118745,,34,7,2026-03-13_10h42.30.987,2026A_exp2,2022.2.4,59.86375009872193,
0,0,3.7,3.7,1,0,65,65,62,,,,,202.52342920005322,203.17414580006152,203.17414580006152,203.65859420015477,45,315,203.65859420015477,203.65859420015477,203.65859420015477,203.65859420015477,203.65859420015477,203.65859420015477,203.65859420015477,203.65859420015477,203.65859420015477,204.02492580004036,204.02492580004036,204.02492580004036,204.02492580004036,204.02492580004036,204.02492580004036,204.02492580004036,204.02492580004036,204.02492580004036,0,1,[0.0012169999536126852],[0.3671881998889148],204.02492580004036,204.22524860012345,3.7,204.22524860012345,0,3.7,1,0,1000,num_1,0.5487894997932017,,34,7,2026-03-13_10h42.30.987,2026A_exp2,2022.2.4,59.86375009872193,
0,0,0.0,4.9,1,0,66,66,33,,,,,204.7924363000784,205.44310090015642,205.44310090015642,205.94446430006064,45,45,205.94446430006064,205.94446430006064,205.94446430006064,205.94446430006064,205.94446430006064,205.94446430006064,205.94446430006064,205.94446430006064,205.94446430006064,206.29386690002866,206.29386690002866,206.29386690002866,206.29386690002866,206.29386690002866,206.29386690002866,206.29386690002866,206.29386690002866,206.29386690002866,15,1,[0.0007501998916268349],[0.11715730000287294],206.29386690002866,206.4941019001417,0.0,206.4941019001417,0,0.0,0,1,1000,num_1,0.6084680997300893,,34,7,2026-03-13_10h42.30.987,2026A_exp2,2022.2.4,59.86375009872193,
1,0,0.0,0.0,1,0,67,67,58,,,,,207.1280321001541,207.77877640002407,207.77877640002407,208.2631129999645,45,45,208.2631129999645,208.2631129999645,208.2631129999645,208.2631129999645,208.2631129999645,208.2631129999645,208.2631129999645,208.2631129999645,208.2631129999645,208.62968680006452,208.62968680006452,208.62968680006452,208.62968680006452,208.62968680006452,208.62968680006452,208.62968680006452,208.62968680006452,208.62968680006452,0,1,[0.001271100016310811],[0.3669829999562353],208.62968680006452,208.82994300010614,0.0,208.82994300010614,1,0.0,0,0,1000,num_4,0.7765093999914825,,34,7,2026-03-13_10h42.30.987,2026A_exp2,2022.2.4,59.86375009872193,
1000,1,0.0,3.7,1,0,68,68,82,,,,,209.63065180019476,210.2813473001588,210.2813473001588,210.76568900002167,315,45,210.76568900002167,210.76568900002167,210.76568900002167,210.76568900002167,210.76568900002167,210.76568900002167,210.76568900002167,210.76568900002167,210.76568900002167,211.13224250008352,211.13224250008352,211.13224250008352,211.13224250008352,211.13224250008352,211.13224250008352,211.13224250008352,211.13224250008352,211.13224250008352,10,1,[0.001213399926200509],[0.2170534001197666],211.13224250008352,211.33218250004575,1000,211.33218250004575,1000,1000,1000,1000,0,num_3,0.6186201998498291,,34,7,2026-03-13_10h42.30.987,2026A_exp2,2022.2.4,59.86375009872193,
1000,1,4.9,0.0,0,0,69,69,45,,,,,211.96627910016105,212.61703120009042,212.61703120009042,213.11833800002933,315,315,213.11833800002933,213.11833800002933,213.11833800002933,213.11833800002933,213.11833800002933,213.11833800002933,213.11833800002933,213.11833800002933,213.11833800002933,213.48455499997362,213.48455499997362,213.48455499997362,213.48455499997362,213.48455499997362,213.48455499997362,213.48455499997362,213.48455499997362,213.48455499997362,23,0,,,213.48455499997362,213.687005400192,1000,213.687005400192,1000,1000,1000,1000,1,num_2,0.6637429997790605,,34,7,2026-03-13_10h42.30.987,2026A_exp2,2022.2.4,59.86375009872193,
1000,1,0.0,3.7,1,0,70,70,1,,,,,214.36864220001735,215.01935760001652,215.01935760001652,215.52058940008283,45,45,215.52058940008283,215.52058940008283,215.52058940008283,215.52058940008283,215.52058940008283,215.52058940008283,215.52058940008283,215.52058940008283,215.52058940008283,215.87032320001163,215.87032320001163,215.87032320001163,215.87032320001163,215.87032320001163,215.87032320001163,215.87032320001163,215.87032320001163,215.87032320001163,0,1,[0.0010816000867635012],[0.35079890000633895],215.87032320001163,216.072183100041,1000,216.072183100041,1000,1000,1000,1000,0,num_3,1.2539736998733133,,34,7,2026-03-13_10h42.30.987,2026A_exp2,2022.2.4,59.86375009872193,
1,0,4.9,6.1,1,0,71,71,36,,,,,217.35534340003505,217.9963101001922,217.9963101001922,218.49017270002514,45,315,218.49017270002514,218.49017270002514,218.49017270002514,218.49017270002514,218.49017270002514,218.49017270002514,218.49017270002514,218.49017270002514,218.49017270002514,218.85653280001134,218.85653280001134,218.85653280001134,218.85653280001134,218.85653280001134,218.85653280001134,218.85653280001134,218.85653280001134,218.85653280001134,0,1,[0.001285000005736947],[0.36723490012809634],218.85653280001134,219.0566955001559,6.1,219.0566955001559,1,6.1,1,1,1000,num_4,0.5015755000058562,,34,7,2026-03-13_10h42.30.987,2026A_exp2,2022.2.4,59.86375009872193,
1000,1,3.7,0.0,0,0,72,72,55,,,,,219.57393090007827,220.2245991001837,220.2245991001837,220.70910810003988,315,45,220.70910810003988,220.70910810003988,220.70910810003988,220.70910810003988,220.70910810003988,220.70910810003988,220.70910810003988,220.70910810003988,220.70910810003988,221.07541709998623,221.07541709998623,221.07541709998623,221.07541709998623,221.07541709998623,221.07541709998623,221.07541709998623,221.07541709998623,221.07541709998623,23,0,,,221.07541709998623,221.27593210013583,1000,221.27593210013583,1000,1000,1000,1000,1,num_2,0.85083769983612,,34,7,2026-03-13_10h42.30.987,2026A_exp2,2022.2.4,59.86375009872193,
1000,1,0.0,0.0,0,0,73,73,2,,,,,222.1431432000827,222.79388940008357,222.79388940008357,223.29495490016416,45,315,223.29495490016416,223.29495490016416,223.29495490016416,223.29495490016416,223.29495490016416,223.29495490016416,223.29495490016416,223.29495490016416,223.29495490016416,223.66139949997887,223.66139949997887,223.66139949997887,223.66139949997887,223.66139949997887,223.66139949997887,223.66139949997887,223.66139949997887,223.66139949997887,0,1,[0.0013063999358564615],[0.3672267999500036],223.66139949997887,223.86391870002262,1000,223.86391870002262,1000,1000,1000,1000,1,num_2,0.6792541998438537,,34,7,2026-03-13_10h42.30.987,2026A_exp2,2022.2.4,59.86375009872193,
1000,1,0.0,6.1,0,0,74,74,27,,,,,224.56242780014873,225.21287240018137,225.21287240018137,225.71403050003573,315,315,225.71403050003573,225.71403050003573,225.71403050003573,225.71403050003573,225.71403050003573,225.71403050003573,225.71403050003573,225.71403050003573,225.71403050003573,226.08047070004977,226.08047070004977,226.08047070004977,226.08047070004977,226.08047070004977,226.08047070004977,226.08047070004977,226.08047070004977,226.08047070004977,23,0,,,226.08047070004977,226.28229070012458,1000,226.28229070012458,1000,1000,1000,1000,1,num_2,0.6125892999116331,,34,7,2026-03-13_10h42.30.987,2026A_exp2,2022.2.4,59.86375009872193,
1000,1,3.7,0.0,1,0,75,75,52,,,,,226.91457340004854,227.56526440009475,227.56526440009475,228.0663439000491,45,315,228.0663439000491,228.0663439000491,228.0663439000491,228.0663439000491,228.0663439000491,228.0663439000491,228.0663439000491,228.0663439000491,228.0663439000491,228.43275819998235,228.43275819998235,228.43275819998235,228.43275819998235,228.43275819998235,228.43275819998235,228.43275819998235,228.43275819998235,228.43275819998235,23,0,,,228.43275819998235,228.63492049998604,1000,228.63492049998604,1000,1000,1000,1000,0,num_3,0.4672760998364538,,34,7,2026-03-13_10h42.30.987,2026A_exp2,2022.2.4,59.86375009872193,
1000,1,6.1,4.9,1,0,76,76,86,,,,,229.13359760004096,229.78418020019308,229.78418020019308,230.28502130019478,45,45,230.28502130019478,230.28502130019478,230.28502130019478,230.28502130019478,230.28502130019478,230.28502130019478,230.28502130019478,230.28502130019478,230.28502130019478,230.65155690000392,230.65155690000392,230.65155690000392,230.65155690000392,230.65155690000392,230.65155690000392,230.65155690000392,230.65155690000392,230.65155690000392,5,3,"[0.0007898998446762562, 0.25026110000908375, 0.3003038000315428]","[0.23388789989985526, 0.2834270999301225, 0.3332855999469757]",230.65155690000392,230.85356010007672,1000,230.85356010007672,1000,1000,1000,1000,1,num_2,0.7612785999663174,,34,7,2026-03-13_10h42.30.987,2026A_exp2,2022.2.4,59.86375009872193,
1,0,0.0,3.7,0,0,77,77,64,,,,,231.63612230005674,232.28654080000706,232.28654080000706,232.77104030014016,45,315,232.77104030014016,232.77104030014016,232.77104030014016,232.77104030014016,232.77104030014016,232.77104030014016,232.77104030014016,232.77104030014016,232.77104030014016,233.13736689998768,233.13736689998768,233.13736689998768,233.13736689998768,233.13736689998768,233.13736689998768,233.13736689998768,233.13736689998768,233.13736689998768,3,3,"[0.0011992000509053469, 0.09978950000368059, 0.18379019992426038]","[0.06633499986492097, 0.16691839997656643, 0.36690060002729297]",233.13736689998768,233.3376478999853,0.0,233.3376478999853,0,0.0,0,1,1000,num_1,0.8373051998205483,,34,7,2026-03-13_10h42.30.987,2026A_exp2,2022.2.4,59.86375009872193,
1,0,3.7,0.0,0,0,78,78,7,,,,,234.20505030010827,234.85596600011922,234.85596600011922,235.34028070000932,45,315,235.34028070000932,235.34028070000932,235.34028070000932,235.34028070000932,235.34028070000932,235.34028070000932,235.34028070000932,235.34028070000932,235.34028070000932,235.70666170003824,235.70666170003824,235.70666170003824,235.70666170003824,235.70666170003824,235.70666170003824,235.70666170003824,235.70666170003824,235.70666170003824,23,0,,,235.70666170003824,235.9069240000099,3.7,235.9069240000099,1,3.7,1,1,1000,num_4,0.8766263998113573,,34,7,2026-03-13_10h42.30.987,2026A_exp2,2022.2.4,59.86375009872193,
1000,1,0.0,0.0,0,0,79,79,79,,,,,236.80797660001554,237.44190159998834,237.44190159998834,237.94301780010574,45,45,237.94301780010574,237.94301780010574,237.94301780010574,237.94301780010574,237.94301780010574,237.94301780010574,237.94301780010574,237.94301780010574,237.94301780010574,238.30944650014862,238.30944650014862,238.30944650014862,238.30944650014862,238.30944650014862,238.30944650014862,238.30944650014862,238.30944650014862,238.30944650014862,23,0,,,238.30944650014862,238.51143559999764,1000,238.51143559999764,1000,1000,1000,1000,1,num_2,0.511558199999854,,34,7,2026-03-13_10h42.30.987,2026A_exp2,2022.2.4,59.86375009872193,
1,0,6.1,6.1,1,0,80,80,49,,,,,239.0432404000312,239.69409700017422,239.69409700017422,240.19510670006275,45,315,240.19510670006275,240.19510670006275,240.19510670006275,240.19510670006275,240.19510670006275,240.19510670006275,240.19510670006275,240.19510670006275,240.19510670006275,240.5449308999814,240.5449308999814,240.5449308999814,240.5449308999814,240.5449308999814,240.5449308999814,240.5449308999814,240.5449308999814,240.5449308999814,22,0,,,240.5449308999814,240.74510780000128,6.1,240.74510780000128,1,6.1,1,1,1000,num_4,0.9492840999737382,,34,7,2026-03-13_10h42.30.987,2026A_exp2,2022.2.4,59.86375009872193,
1000,1,0.0,0.0,1,0,81,81,88,,,,,241.7126446000766,242.36335410014726,242.36335410014726,242.86458850000054,315,45,242.86458850000054,242.86458850000054,242.86458850000054,242.86458850000054,242.86458850000054,242.86458850000054,242.86458850000054,242.86458850000054,242.86458850000054,243.21454449999146,243.21454449999146,243.21454449999146,243.21454449999146,243.21454449999146,243.21454449999146,243.21454449999146,243.21454449999146,243.21454449999146,22,0,,,243.21454449999146,243.4163111001253,1000,243.4163111001253,1000,1000,1000,1000,0,num_3,0.9982942000497133,,34,7,2026-03-13_10h42.30.987,2026A_exp2,2022.2.4,59.86375009872193,
1000,1,6.1,0.0,0,0,82,82,69,,,,,244.4320481000468,245.08277840004303,245.08277840004303,245.5839518001303,315,45,245.5839518001303,245.5839518001303,245.5839518001303,245.5839518001303,245.5839518001303,245.5839518001303,245.5839518001303,245.5839518001303,245.5839518001303,245.95035520009696,245.95035520009696,245.95035520009696,245.95035520009696,245.95035520009696,245.95035520009696,245.95035520009696,245.95035520009696,245.95035520009696,23,0,,,245.95035520009696,246.15260970010422,1000,246.15260970010422,1000,1000,1000,1000,0,num_3,0.5661364998668432,,34,7,2026-03-13_10h42.30.987,2026A_exp2,2022.2.4,59.86375009872193,
1,0,6.1,0.0,1,0,83,83,17,,,,,246.7344920001924,247.38502530008554,247.38502530008554,247.88624879997224,45,315,247.88624879997224,247.88624879997224,247.88624879997224,247.88624879997224,247.88624879997224,247.88624879997224,247.88624879997224,247.88624879997224,247.88624879997224,248.25258850003593,248.25258850003593,248.25258850003593,248.25258850003593,248.25258850003593,248.25258850003593,248.25258850003593,248.25258850003593,248.25258850003593,23,0,,,248.25258850003593,248.45277850003913,0.0,248.45277850003913,0,0.0,0,1,1000,num_1,0.6252528999466449,,34,7,2026-03-13_10h42.30.987,2026A_exp2,2022.2.4,59.86375009872193,
1,0,6.1,6.1,0,0,84,84,89,,,,,249.10341099998914,249.75409370008856,249.75409370008856,250.2386163000483,45,315,250.2386163000483,250.2386163000483,250.2386163000483,250.2386163000483,250.2386163000483,250.2386163000483,250.2386163000483,250.2386163000483,250.2386163000483,250.60502550005913,250.60502550005913,250.60502550005913,250.60502550005913,250.60502550005913,250.60502550005913,250.60502550005913,250.60502550005913,250.60502550005913,23,0,,,250.60502550005913,250.80512210004963,6.1,250.80512210004963,0,6.1,1,0,1000,num_1,0.6097395999822766,,34,7,2026-03-13_10h42.30.987,2026A_exp2,2022.2.4,59.86375009872193,
1,0,0.0,0.0,1,0,85,85,59,,,,,251.438922500005,252.08976970007643,252.08976970007643,252.57422850001603,315,45,252.57422850001603,252.57422850001603,252.57422850001603,252.57422850001603,252.57422850001603,252.57422850001603,252.57422850001603,252.57422850001603,252.57422850001603,252.94065950019285,252.94065950019285,252.94065950019285,252.94065950019285,252.94065950019285,252.94065950019285,252.94065950019285,252.94065950019285,252.94065950019285,23,0,,,252.94065950019285,253.14086619997397,0.0,253.14086619997397,1,0.0,0,0,1000,num_4,0.7293775000143796,,34,7,2026-03-13_10h42.30.987,2026A_exp2,2022.2.4,59.86375009872193,
1,0,4.9,3.7,1,0,86,86,71,,,,,253.8914869001601,254.54229800007306,254.54229800007306,255.0270954000298,315,45,255.0270954000298,255.0270954000298,255.0270954000298,255.0270954000298,255.0270954000298,255.0270954000298,255.0270954000298,255.0270954000298,255.0270954000298,255.3931707001757,255.3931707001757,255.3931707001757,255.3931707001757,255.3931707001757,255.3931707001757,255.3931707001757,255.3931707001757,255.3931707001757,23,0,,,255.3931707001757,255.59335670014843,3.7,255.59335670014843,0,3.7,1,0,1000,num_1,0.7013699000235647,,34,7,2026-03-13_10h42.30.987,2026A_exp2,2022.2.4,59.86375009872193,
1,0,0.0,0.0,0,0,87,87,22,,,,,256.3108545001596,256.96585940010846,256.96585940010846,257.4625018001534,45,45,257.4625018001534,257.4625018001534,257.4625018001534,257.4625018001534,257.4625018001534,257.4625018001534,257.4625018001534,257.4625018001534,257.4625018001534,257.829044500133,257.829044500133,257.829044500133,257.829044500133,257.829044500133,257.829044500133,257.829044500133,257.829044500133,257.829044500133,23,0,,,257.829044500133,258.0369293000549,0.0,258.0369293000549,0,0.0,0,1,1000,num_1,0.39498839993029833,,34,7,2026-03-13_10h42.30.987,2026A_exp2,2022.2.4,59.86375009872193,
1000,1,3.7,3.7,1,0,88,88,54,,,,,258.462662700098,259.11340819997713,259.11340819997713,259.6145741001237,315,45,259.6145741001237,259.6145741001237,259.6145741001237,259.6145741001237,259.6145741001237,259.6145741001237,259.6145741001237,259.6145741001237,259.6145741001237,259.9642984000966,259.9642984000966,259.9642984000966,259.9642984000966,259.9642984000966,259.9642984000966,259.9642984000966,259.9642984000966,259.9642984000966,22,0,,,259.9642984000966,260.1668523000553,1000,260.1668523000553,1000,1000,1000,1000,1,num_2,0.7034716999623924,,34,7,2026-03-13_10h42.30.987,2026A_exp2,2022.2.4,59.86375009872193,
1,0,0.0,0.0,0,0,89,89,6,,,,,260.89858410018496,261.5493770001922,261.5493770001922,262.0502556001302,45,45,262.0502556001302,262.0502556001302,262.0502556001302,262.0502556001302,262.0502556001302,262.0502556001302,262.0502556001302,262.0502556001302,262.0502556001302,262.4001758999657,262.4001758999657,262.4001758999657,262.4001758999657,262.4001758999657,262.4001758999657,262.4001758999657,262.4001758999657,262.4001758999657,22,0,,,262.4001758999657,262.60028010001406,0.0,262.6169569999911,0,0.0,0,1,1000,num_1,0.48577189981006086,,34,7,2026-03-13_10h42.30.987,2026A_exp2,2022.2.4,59.86375009872193,
,,,,,,,,,,,,,,,,,,,,,,,,,,,,,,,,,,,,,,,,,,,,,,,,,,,,263.14285399997607,,,,,,,
