validity,detectorcomp,contrastCW,contrastCCW,precueCWorCCW,block_80trials.thisRepN,block_80trials.thisTrialN,block_80trials.thisN,block_80trials.thisIndex,etRecord.started,etRecord.stopped,text.started,text.stopped,text_4.started,text_4.stopped,text_6.started,text_6.stopped,oriCW,oriCCW,roi_2.started,grating_UR.started,grating_UL.started,grating_LR.started,grating_LL.started,noise_UR.started,noise_UL.started,noise_LR.started,noise_LL.started,roi_2.stopped,grating_UR.stopped,grating_UL.stopped,grating_LR.stopped,grating_LL.stopped,noise_UR.stopped,noise_UL.stopped,noise_LR.stopped,noise_LL.stopped,outframe,roi_2.numLooks,roi_2.timesOn,roi_2.timesOff,text_2.started,text_2.stopped,probedcontrast,key_resp.started,respdetect,relevantContrast,correctDetect,TorFdetect,respCWorCCW,key_resp.keys,key_resp.rt,feedback_display_.started,participantNo,blockNo,date,expName,psychopyVersion,frameRate,
1,0,6.1,4.9,0,0,0,0,81,4.989997250959277e-05,4.989997250959277e-05,55.44228579994524,57.44620829995256,57.44620829995256,58.079292899987195,58.079292899987195,58.605751499999315,45,45,58.605751499999315,58.605751499999315,58.605751499999315,58.605751499999315,58.605751499999315,58.605751499999315,58.605751499999315,58.605751499999315,58.605751499999315,58.94634229998337,58.94634229998337,58.94634229998337,58.94634229998337,58.94634229998337,58.94634229998337,58.94634229998337,58.94634229998337,58.94634229998337,22,1,[0.0011455999920144677],[0.043155300023499876],58.94634229998337,59.14687229995616,6.1,59.14687229995616,1,6.1,1,1,1000,num_4,1.0659206999698654,,27,1,2026-03-05_13h10.32.564,2026A_exp2,2022.2.4,59.94736621645226,
1000,1,0.0,0.0,0,0,1,1,37,,,,,60.23119319998659,60.86471059999894,60.86471059999894,61.366045099974144,315,45,61.366045099974144,61.366045099974144,61.366045099974144,61.366045099974144,61.366045099974144,61.366045099974144,61.366045099974144,61.366045099974144,61.366045099974144,61.73247959994478,61.73247959994478,61.73247959994478,61.73247959994478,61.73247959994478,61.73247959994478,61.73247959994478,61.73247959994478,61.73247959994478,23,0,,,61.73247959994478,61.9326806999743,1000,61.9326806999743,1000,1000,1000,1000,0,num_3,0.9927567000268027,,27,1,2026-03-05_13h10.32.564,2026A_exp2,2022.2.4,59.94736621645226,
1000,1,6.1,0.0,0,0,2,2,89,,,,,62.950156299979426,63.60106569994241,63.60106569994241,64.08550289995037,315,45,64.08550289995037,64.08550289995037,64.08550289995037,64.08550289995037,64.08550289995037,64.08550289995037,64.08550289995037,64.08550289995037,64.08550289995037,64.45177899999544,64.45177899999544,64.45177899999544,64.45177899999544,64.45177899999544,64.45177899999544,64.45177899999544,64.45177899999544,64.45177899999544,8,3,"[0.0009399999980814755, 0.23339040001155809, 0.2670889000291936]","[0.2166641000076197, 0.249852400040254, 0.28389240003889427]",64.45177899999544,64.65206319995923,1000,64.65206319995923,1000,1000,1000,1000,0,num_3,0.7452727000345476,,27,1,2026-03-05_13h10.32.564,2026A_exp2,2022.2.4,59.94736621645226,
1,0,0.0,0.0,0,0,3,3,51,,,,,65.41957499994896,66.05368329997873,66.05368329997873,66.5548734999611,315,45,66.5548734999611,66.5548734999611,66.5548734999611,66.5548734999611,66.5548734999611,66.5548734999611,66.5548734999611,66.5548734999611,66.5548734999611,66.92061539995484,66.92061539995484,66.92061539995484,66.92061539995484,66.92061539995484,66.92061539995484,66.92061539995484,66.92061539995484,66.92061539995484,2,3,"[0.0007482999935746193, 0.18348369997693226, 0.316613300004974]","[0.16709559998707846, 0.30022019997704774, 0.36648090003291145]",66.92061539995484,67.12112239998532,0.0,67.12112239998532,1,0.0,0,0,1000,num_4,0.8996862999629229,,27,1,2026-03-05_13h10.32.564,2026A_exp2,2022.2.4,59.94736621645226,
1,0,3.7,4.9,0,0,4,4,76,,,,,68.03871819999767,68.68939739995403,68.68939739995403,69.17361299996264,315,315,69.17361299996264,69.17361299996264,69.17361299996264,69.17361299996264,69.17361299996264,69.17361299996264,69.17361299996264,69.17361299996264,69.17361299996264,69.54033719998552,69.54033719998552,69.54033719998552,69.54033719998552,69.54033719998552,69.54033719998552,69.54033719998552,69.54033719998552,69.54033719998552,3,4,"[0.0007311999797821045, 0.050355900020804256, 0.0839323999825865, 0.18413300003157929]","[0.03393320000031963, 0.06742380000650883, 0.16738210001494735, 0.3674929999979213]",69.54033719998552,69.740148199955,3.7,69.740148199955,0,3.7,1,0,1000,num_1,1.6245918999775313,,27,1,2026-03-05_13h10.32.564,2026A_exp2,2022.2.4,59.94736621645226,
1000,1,0.0,0.0,1,0,5,5,60,,,,,71.3918378999806,72.02603789995192,72.02603789995192,72.52775299997302,315,315,72.52775299997302,72.52775299997302,72.52775299997302,72.52775299997302,72.52775299997302,72.52775299997302,72.52775299997302,72.52775299997302,72.52775299997302,72.89362329995492,72.89362329995492,72.89362329995492,72.89362329995492,72.89362329995492,72.89362329995492,72.89362329995492,72.89362329995492,72.89362329995492,10,5,"[0.05074039997998625, 0.15000569995027035, 0.18312539998441935, 0.25091279996559024, 0.33336739998776466]","[0.1164924000040628, 0.16660729999421164, 0.23313469998538494, 0.31688599998597056, 0.3500126999570057]",72.89362329995492,73.09411849995377,1000,73.09411849995377,1000,1000,1000,1000,0,num_3,1.0947479999740608,,27,1,2026-03-05_13h10.32.564,2026A_exp2,2022.2.4,59.94736621645226,
0,0,0.0,0.0,0,0,6,6,22,,,,,74.21157649997622,74.84636659995886,74.84636659995886,75.34681449999334,315,45,75.34681449999334,75.34681449999334,75.34681449999334,75.34681449999334,75.34681449999334,75.34681449999334,75.34681449999334,75.34681449999334,75.34681449999334,75.71330589998979,75.71330589998979,75.71330589998979,75.71330589998979,75.71330589998979,75.71330589998979,75.71330589998979,75.71330589998979,75.71330589998979,0,1,[0.0009091999963857234],[0.36725040001329035],75.71330589998979,75.91360239998903,0.0,75.91360239998903,1,0.0,0,0,1000,num_4,0.9720249999663793,,27,1,2026-03-05_13h10.32.564,2026A_exp2,2022.2.4,59.94736621645226,
1000,1,0.0,6.1,0,0,7,7,2,,,,,76.91532619995996,77.54832689999603,77.54832689999603,78.04938239994226,45,315,78.04938239994226,78.04938239994226,78.04938239994226,78.04938239994226,78.04938239994226,78.04938239994226,78.04938239994226,78.04938239994226,78.04938239994226,78.4156489999732,78.4156489999732,78.4156489999732,78.4156489999732,78.4156489999732,78.4156489999732,78.4156489999732,78.4156489999732,78.4156489999732,23,0,,,78.4156489999732,78.61598449997837,1000,78.61598449997837,1000,1000,1000,1000,1,num_2,0.74916150001809,,27,1,2026-03-05_13h10.32.564,2026A_exp2,2022.2.4,59.94736621645226,
1000,1,0.0,0.0,0,0,8,8,36,,,,,79.38322259997949,80.03374829998938,80.03374829998938,80.51851099997293,315,315,80.51851099997293,80.51851099997293,80.51851099997293,80.51851099997293,80.51851099997293,80.51851099997293,80.51851099997293,80.51851099997293,80.51851099997293,80.8848046999774,80.8848046999774,80.8848046999774,80.8848046999774,80.8848046999774,80.8848046999774,80.8848046999774,80.8848046999774,80.8848046999774,17,4,"[0.017449599981773645, 0.13391789997695014, 0.28390389995183796, 0.35045059997355565]","[0.03353279997827485, 0.15061519999289885, 0.3339076999691315, 0.36720039998181164]",80.8848046999774,81.08522519998951,1000,81.08522519998951,1000,1000,1000,1000,0,num_3,0.6242087999708019,,27,1,2026-03-05_13h10.32.564,2026A_exp2,2022.2.4,59.94736621645226,
1,0,0.0,0.0,1,0,9,9,21,,,,,81.7358385999687,82.36982399999397,82.36982399999397,82.87092189997202,315,315,82.87092189997202,82.87092189997202,82.87092189997202,82.87092189997202,82.87092189997202,82.87092189997202,82.87092189997202,82.87092189997202,82.87092189997202,83.23712229996454,83.23712229996454,83.23712229996454,83.23712229996454,83.23712229996454,83.23712229996454,83.23712229996454,83.23712229996454,83.23712229996454,15,6,"[0.017673099995590746, 0.06690919998800382, 0.11713999998755753, 0.2672404999611899, 0.30082259996561334, 0.3338129000039771]","[0.03418789996067062, 0.10056960000656545, 0.13364049996016547, 0.28349030000390485, 0.3172212999779731, 0.3675103000132367]",83.23712229996454,83.437533099961,0.0,83.437533099961,1,0.0,0,0,1000,num_4,0.8236278000404127,,27,1,2026-03-05_13h10.32.564,2026A_exp2,2022.2.4,59.94736621645226,
1,0,0.0,0.0,0,0,10,10,44,,,,,84.28835619997699,84.93885999999475,84.93885999999475,85.42332989996066,315,45,85.42332989996066,85.42332989996066,85.42332989996066,85.42332989996066,85.42332989996066,85.42332989996066,85.42332989996066,85.42332989996066,85.42332989996066,85.78986059996532,85.78986059996532,85.78986059996532,85.78986059996532,85.78986059996532,85.78986059996532,85.78986059996532,85.78986059996532,85.78986059996532,0,1,[0.0007603999692946672],[0.3674100000062026],85.78986059996532,85.99052209994989,0.0,85.99052209994989,0,0.0,0,1,1000,num_1,1.2149331000400707,,27,1,2026-03-05_13h10.32.564,2026A_exp2,2022.2.4,59.94736621645226,
1,0,4.9,0.0,0,0,11,11,4,,,,,87.22454159997869,87.87496689998079,87.87496689998079,88.37631589994999,315,315,88.37631589994999,88.37631589994999,88.37631589994999,88.37631589994999,88.37631589994999,88.37631589994999,88.37631589994999,88.37631589994999,88.37631589994999,88.7427558999625,88.7427558999625,88.7427558999625,88.7427558999625,88.7427558999625,88.7427558999625,88.7427558999625,88.7427558999625,88.7427558999625,23,0,,,88.7427558999625,88.9432656999561,4.9,88.9432656999561,0,4.9,1,0,1000,num_1,0.6616030999575742,,27,1,2026-03-05_13h10.32.564,2026A_exp2,2022.2.4,59.94736621645226,
1000,1,0.0,6.1,0,0,12,12,85,,,,,89.62688369996613,90.26096809998853,90.26096809998853,90.76198609999847,45,315,90.76198609999847,90.76198609999847,90.76198609999847,90.76198609999847,90.76198609999847,90.76198609999847,90.76198609999847,90.76198609999847,90.76198609999847,91.128680099966,91.128680099966,91.128680099966,91.128680099966,91.128680099966,91.128680099966,91.128680099966,91.128680099966,91.128680099966,23,0,,,91.128680099966,91.3289479999803,1000,91.3289479999803,1000,1000,1000,1000,1,num_2,0.8358638000208884,,27,1,2026-03-05_13h10.32.564,2026A_exp2,2022.2.4,59.94736621645226,
1,0,4.9,0.0,1,0,13,13,25,,,,,92.19611449999502,92.83017549995566,92.83017549995566,93.33113699994283,45,315,93.33113699994283,93.33113699994283,93.33113699994283,93.33113699994283,93.33113699994283,93.33113699994283,93.33113699994283,93.33113699994283,93.33113699994283,93.69766109995544,93.69766109995544,93.69766109995544,93.69766109995544,93.69766109995544,93.69766109995544,93.69766109995544,93.69766109995544,93.69766109995544,15,3,"[0.0007246000459417701, 0.16749990003881976, 0.2843793000211008]","[0.034619800047948956, 0.23444700002437457, 0.31764030002523214]",93.69766109995544,93.89809559995774,0.0,93.89809559995774,0,0.0,0,1,1000,num_1,1.434961699997075,,27,1,2026-03-05_13h10.32.564,2026A_exp2,2022.2.4,59.94736621645226,
1000,1,3.7,4.9,0,0,14,14,64,,,,,95.34958329994697,96.00000469997758,96.00000469997758,96.48442219995195,45,45,96.48442219995195,96.48442219995195,96.48442219995195,96.48442219995195,96.48442219995195,96.48442219995195,96.48442219995195,96.48442219995195,96.48442219995195,96.85104259999935,96.85104259999935,96.85104259999935,96.85104259999935,96.85104259999935,96.85104259999935,96.85104259999935,96.85104259999935,96.85104259999935,20,2,"[0.23372640000889078, 0.3507320000207983]","[0.26704820001032203, 0.3673547999933362]",96.85104259999935,97.05118449998554,1000,97.05118449998554,1000,1000,1000,1000,1,num_2,0.7459661000175402,,27,1,2026-03-05_13h10.32.564,2026A_exp2,2022.2.4,59.94736621645226,
1,0,0.0,3.7,0,0,15,15,61,,,,,97.81832609995035,98.46902119996957,98.46902119996957,98.95355779997772,45,45,98.95355779997772,98.95355779997772,98.95355779997772,98.95355779997772,98.95355779997772,98.95355779997772,98.95355779997772,98.95355779997772,98.95355779997772,99.3199983999948,99.3199983999948,99.3199983999948,99.3199983999948,99.3199983999948,99.3199983999948,99.3199983999948,99.3199983999948,99.3199983999948,22,1,[0.13336769997840747],[0.15029259998118505],99.3199983999948,99.52096299995901,0.0,99.52096299995901,1,0.0,0,0,1000,num_4,1.1810461999848485,,27,1,2026-03-05_13h10.32.564,2026A_exp2,2022.2.4,59.94736621645226,
1,0,3.7,0.0,0,0,16,16,8,,,,,100.72128299996257,101.37191299995175,101.37191299995175,101.85632939997595,315,315,101.85632939997595,101.85632939997595,101.85632939997595,101.85632939997595,101.85632939997595,101.85632939997595,101.85632939997595,101.85632939997595,101.85632939997595,102.2231177999638,102.2231177999638,102.2231177999638,102.2231177999638,102.2231177999638,102.2231177999638,102.2231177999638,102.2231177999638,102.2231177999638,22,1,[0.1663589000236243],[0.18304180004633963],102.2231177999638,102.42298719997052,3.7,102.42298719997052,1,3.7,1,1,1000,num_4,0.9259661000105552,,27,1,2026-03-05_13h10.32.564,2026A_exp2,2022.2.4,59.94736621645226,
1,0,4.9,3.7,0,0,17,17,9,,,,,103.37397969997255,104.00789929996245,104.00789929996245,104.50895929994294,45,45,104.50895929994294,104.50895929994294,104.50895929994294,104.50895929994294,104.50895929994294,104.50895929994294,104.50895929994294,104.50895929994294,104.50895929994294,104.87523019994842,104.87523019994842,104.87523019994842,104.87523019994842,104.87523019994842,104.87523019994842,104.87523019994842,104.87523019994842,104.87523019994842,16,5,"[0.0669810000108555, 0.1338738000486046, 0.2003703000373207, 0.25034660001983866, 0.33376780000980943]","[0.08376140001928434, 0.18347560003167018, 0.21696530003100634, 0.26714630000060424, 0.3503583000274375]",104.87523019994842,105.07626329996856,4.9,105.07626329996856,1,4.9,1,1,1000,num_4,0.521351000003051,,27,1,2026-03-05_13h10.32.564,2026A_exp2,2022.2.4,59.94736621645226,
1,0,0.0,0.0,1,0,18,18,41,,,,,105.6263706999598,106.26070189999882,106.26070189999882,106.76198439998552,45,315,106.76198439998552,106.76198439998552,106.76198439998552,106.76198439998552,106.76198439998552,106.76198439998552,106.76198439998552,106.76198439998552,106.76198439998552,107.12793469999451,107.12793469999451,107.12793469999451,107.12793469999451,107.12793469999451,107.12793469999451,107.12793469999451,107.12793469999451,107.12793469999451,23,0,,,107.12793469999451,107.32800969999516,0.0,107.32800969999516,1,0.0,0,0,1000,num_4,0.8369424999691546,,27,1,2026-03-05_13h10.32.564,2026A_exp2,2022.2.4,59.94736621645226,
1000,1,0.0,6.1,1,0,19,19,3,,,,,108.19612959999358,108.829684599943,108.829684599943,109.33064799994463,315,45,109.33064799994463,109.33064799994463,109.33064799994463,109.33064799994463,109.33064799994463,109.33064799994463,109.33064799994463,109.33064799994463,109.33064799994463,109.69695479999064,109.69695479999064,109.69695479999064,109.69695479999064,109.69695479999064,109.69695479999064,109.69695479999064,109.69695479999064,109.69695479999064,21,1,[0.21694780001416802],[0.2500914999982342],109.69695479999064,109.89739889994962,1000,109.89739889994962,1000,1000,1000,1000,1,num_2,0.619598799967207,,27,1,2026-03-05_13h10.32.564,2026A_exp2,2022.2.4,59.94736621645226,
1,0,4.9,6.1,0,0,20,20,33,,,,,110.54793609998887,111.1985951999668,111.1985951999668,111.68280079995748,315,45,111.68280079995748,111.68280079995748,111.68280079995748,111.68280079995748,111.68280079995748,111.68280079995748,111.68280079995748,111.68280079995748,111.68280079995748,112.04980459995568,112.04980459995568,112.04980459995568,112.04980459995568,112.04980459995568,112.04980459995568,112.04980459995568,112.04980459995568,112.04980459995568,13,5,"[0.01725640002405271, 0.05059590004384518, 0.11726790003012866, 0.18416820000857115, 0.25153440004214644]","[0.03364170005079359, 0.08399590000044554, 0.16701620002277195, 0.21866020001471043, 0.2837928000371903]",112.04980459995568,112.2495761999744,4.9,112.2495761999744,1,4.9,1,1,1000,num_4,1.043840900005307,,27,1,2026-03-05_13h10.32.564,2026A_exp2,2022.2.4,59.94736621645226,
1000,1,0.0,0.0,0,0,21,21,45,,,,,113.31745059997775,113.9515971999499,113.9515971999499,114.45225629996276,315,315,114.45225629996276,114.45225629996276,114.45225629996276,114.45225629996276,114.45225629996276,114.45225629996276,114.45225629996276,114.45225629996276,114.45225629996276,114.81866739998804,114.81866739998804,114.81866739998804,114.81866739998804,114.81866739998804,114.81866739998804,114.81866739998804,114.81866739998804,114.81866739998804,18,4,"[0.08286089997272938, 0.18338639999274164, 0.2833579999860376, 0.3330153999850154]","[0.09969850000925362, 0.19979819998843595, 0.30036789999576285, 0.36684009997406974]",114.81866739998804,115.01947139995173,1000,115.01947139995173,1000,1000,1000,1000,1,num_2,0.7938694999902509,,27,1,2026-03-05_13h10.32.564,2026A_exp2,2022.2.4,59.94736621645226,
0,0,0.0,3.7,0,0,22,22,83,,,,,115.83651019999525,116.48690729995724,116.48690729995724,116.9718559999601,315,315,116.9718559999601,116.9718559999601,116.9718559999601,116.9718559999601,116.9718559999601,116.9718559999601,116.9718559999601,116.9718559999601,116.9718559999601,117.33768929995131,117.33768929995131,117.33768929995131,117.33768929995131,117.33768929995131,117.33768929995131,117.33768929995131,117.33768929995131,117.33768929995131,5,5,"[0.0009527999791316688, 0.05011549999471754, 0.1499016999732703, 0.18309000000590459, 0.25042559998109937]","[0.0174235999584198, 0.1330675999633968, 0.1666131999809295, 0.23299689998384565, 0.36628650000784546]",117.33768929995131,117.53863259998616,3.7,117.53863259998616,1,3.7,1,1,1000,num_4,0.7150852999766357,,27,1,2026-03-05_13h10.32.564,2026A_exp2,2022.2.4,59.94736621645226,
1000,1,0.0,0.0,1,0,23,23,40,,,,,118.27247209998313,118.9227786999545,118.9227786999545,119.4241359999869,45,315,119.4241359999869,119.4241359999869,119.4241359999869,119.4241359999869,119.4241359999869,119.4241359999869,119.4241359999869,119.4241359999869,119.4241359999869,119.79056169994874,119.79056169994874,119.79056169994874,119.79056169994874,119.79056169994874,119.79056169994874,119.79056169994874,119.79056169994874,119.79056169994874,12,8,"[0.0007143000257201493, 0.05083540000487119, 0.11759390000952408, 0.20089290000032634, 0.2339536000508815, 0.28414950001752004, 0.3339166000369005, 0.3676375000504777]","[0.033972400007769465, 0.08479820005595684, 0.15061290003359318, 0.21709850005572662, 0.2509343000128865, 0.30072820000350475, 0.351019499998074, 0.3676407000166364]",119.79056169994874,119.9907631999813,1000,119.9907631999813,1000,1000,1000,1000,0,num_3,0.75089740002295,,27,1,2026-03-05_13h10.32.564,2026A_exp2,2022.2.4,59.94736621645226,
1,0,3.7,0.0,1,0,24,24,28,,,,,120.7579032999929,121.40848049998749,121.40848049998749,121.8931995999883,315,45,121.8931995999883,121.8931995999883,121.8931995999883,121.8931995999883,121.8931995999883,121.8931995999883,121.8931995999883,121.8931995999883,121.8931995999883,122.25976279994939,122.25976279994939,122.25976279994939,122.25976279994939,122.25976279994939,122.25976279994939,122.25976279994939,122.25976279994939,122.25976279994939,21,2,"[0.033473299990873784, 0.16715049999766052]","[0.05035939998924732, 0.18362700002035126]",122.25976279994939,122.45969959994545,0.0,122.45969959994545,0,0.0,0,1,1000,num_1,1.5853970000171103,,27,1,2026-03-05_13h10.32.564,2026A_exp2,2022.2.4,59.94736621645226,
1000,1,0.0,0.0,0,0,25,25,72,,,,,124.06141129997559,124.69564039999386,124.69564039999386,125.19675519998418,45,315,125.19675519998418,125.19675519998418,125.19675519998418,125.19675519998418,125.19675519998418,125.19675519998418,125.19675519998418,125.19675519998418,125.19675519998418,125.56323329999577,125.56323329999577,125.56323329999577,125.56323329999577,125.56323329999577,125.56323329999577,125.56323329999577,125.56323329999577,125.56323329999577,20,2,"[0.16777050000382587, 0.3514988000388257]","[0.1841621000203304, 0.367762700014282]",125.56323329999577,125.76321539998753,1000,125.76321539998753,1000,1000,1000,1000,1,num_2,0.8095963000087067,,27,1,2026-03-05_13h10.32.564,2026A_exp2,2022.2.4,59.94736621645226,
1000,1,0.0,0.0,0,0,26,26,67,,,,,126.5975410999963,127.24780379998265,127.24780379998265,127.7324386999826,315,45,127.7324386999826,127.7324386999826,127.7324386999826,127.7324386999826,127.7324386999826,127.7324386999826,127.7324386999826,127.7324386999826,127.7324386999826,128.09870499995304,128.09870499995304,128.09870499995304,128.09870499995304,128.09870499995304,128.09870499995304,128.09870499995304,128.09870499995304,128.09870499995304,17,3,"[0.06676919996971264, 0.23356199997942895, 0.2839886999572627]","[0.10023759998148307, 0.26729940000222996, 0.317216900002677]",128.09870499995304,128.29964329994982,1000,128.29964329994982,1000,1000,1000,1000,1,num_2,0.4653517000260763,,27,1,2026-03-05_13h10.32.564,2026A_exp2,2022.2.4,59.94736621645226,
1000,1,0.0,0.0,1,0,27,27,16,,,,,128.7825562999933,129.41702459997032,129.41702459997032,129.9178100999561,45,45,129.9178100999561,129.9178100999561,129.9178100999561,129.9178100999561,129.9178100999561,129.9178100999561,129.9178100999561,129.9178100999561,129.9178100999561,130.28440649999538,130.28440649999538,130.28440649999538,130.28440649999538,130.28440649999538,130.28440649999538,130.28440649999538,130.28440649999538,130.28440649999538,23,0,,,130.28440649999538,130.48472569999285,1000,130.48472569999285,1000,1000,1000,1000,0,num_3,0.8167836000211537,,27,1,2026-03-05_13h10.32.564,2026A_exp2,2022.2.4,59.94736621645226,
1,0,4.9,3.7,1,0,28,28,10,,,,,131.31863199995132,131.96943809994264,131.96943809994264,132.45356569997966,45,45,132.45356569997966,132.45356569997966,132.45356569997966,132.45356569997966,132.45356569997966,132.45356569997966,132.45356569997966,132.45356569997966,132.45356569997966,132.81992629996967,132.81992629996967,132.81992629996967,132.81992629996967,132.81992629996967,132.81992629996967,132.81992629996967,132.81992629996967,132.81992629996967,23,0,,,132.81992629996967,133.02083699998911,3.7,133.02083699998911,0,3.7,1,0,1000,num_1,1.8803520000074059,,27,1,2026-03-05_13h10.32.564,2026A_exp2,2022.2.4,59.94736621645226,
0,0,6.1,6.1,0,0,29,29,42,,,,,134.921976899961,135.57285329996375,135.57285329996375,136.0574904999812,45,45,136.0574904999812,136.0574904999812,136.0574904999812,136.0574904999812,136.0574904999812,136.0574904999812,136.0574904999812,136.0574904999812,136.0574904999812,136.42389389994787,136.42389389994787,136.42389389994787,136.42389389994787,136.42389389994787,136.42389389994787,136.42389389994787,136.42389389994787,136.42389389994787,23,0,,,136.42389389994787,136.62386069999775,6.1,136.62386069999775,0,6.1,1,0,1000,num_1,0.9257420999929309,,27,1,2026-03-05_13h10.32.564,2026A_exp2,2022.2.4,59.94736621645226,
1,0,0.0,6.1,0,0,30,30,43,,,,,137.57484169997042,138.2259019999765,138.2259019999765,138.70984249998583,315,315,138.70984249998583,138.70984249998583,138.70984249998583,138.70984249998583,138.70984249998583,138.70984249998583,138.70984249998583,138.70984249998583,138.70984249998583,139.0764569999883,139.0764569999883,139.0764569999883,139.0764569999883,139.0764569999883,139.0764569999883,139.0764569999883,139.0764569999883,139.0764569999883,23,0,,,139.0764569999883,139.27677369996672,0.0,139.27677369996672,0,0.0,0,1,1000,num_1,0.8403716000029817,,27,1,2026-03-05_13h10.32.564,2026A_exp2,2022.2.4,59.94736621645226,
1000,1,0.0,0.0,1,0,31,31,23,,,,,140.14423029997852,140.77819739998085,140.77819739998085,141.27951609995216,315,45,141.27951609995216,141.27951609995216,141.27951609995216,141.27951609995216,141.27951609995216,141.27951609995216,141.27951609995216,141.27951609995216,141.27951609995216,141.64573879999807,141.64573879999807,141.64573879999807,141.64573879999807,141.64573879999807,141.64573879999807,141.64573879999807,141.64573879999807,141.64573879999807,23,0,,,141.64573879999807,141.8459850999643,1000,141.8459850999643,1000,1000,1000,1000,0,num_3,0.7675123999943025,,27,1,2026-03-05_13h10.32.564,2026A_exp2,2022.2.4,59.94736621645226,
1000,1,3.7,0.0,0,0,32,32,32,,,,,142.6302934999694,143.28065119998064,143.28065119998064,143.78179829998408,315,315,143.78179829998408,143.78179829998408,143.78179829998408,143.78179829998408,143.78179829998408,143.78179829998408,143.78179829998408,143.78179829998408,143.78179829998408,144.14808889996493,144.14808889996493,144.14808889996493,144.14808889996493,144.14808889996493,144.14808889996493,144.14808889996493,144.14808889996493,144.14808889996493,23,0,,,144.14808889996493,144.34813649998978,1000,144.34813649998978,1000,1000,1000,1000,0,num_3,0.7376754999859259,,27,1,2026-03-05_13h10.32.564,2026A_exp2,2022.2.4,59.94736621645226,
1,0,4.9,3.7,0,0,33,33,63,,,,,145.1158260999946,145.76646059995983,145.76646059995983,146.26757379999617,315,315,146.26757379999617,146.26757379999617,146.26757379999617,146.26757379999617,146.26757379999617,146.26757379999617,146.26757379999617,146.26757379999617,146.26757379999617,146.63400129997171,146.63400129997171,146.63400129997171,146.63400129997171,146.63400129997171,146.63400129997171,146.63400129997171,146.63400129997171,146.63400129997171,16,4,"[0.03346240002429113, 0.2339544999995269, 0.26697690004948527, 0.3006969999987632]","[0.05026089999591932, 0.250382800004445, 0.2840666000265628, 0.36739420000230893]",146.63400129997171,146.83505139994668,4.9,146.83505139994668,1,4.9,1,1,1000,num_4,1.0418345000362024,,27,1,2026-03-05_13h10.32.564,2026A_exp2,2022.2.4,59.94736621645226,
1000,1,3.7,4.9,1,0,34,34,20,,,,,147.9020205999841,148.55262409994612,148.55262409994612,149.0369791999692,315,315,149.0369791999692,149.0369791999692,149.0369791999692,149.0369791999692,149.0369791999692,149.0369791999692,149.0369791999692,149.0369791999692,149.0369791999692,149.4037555999821,149.4037555999821,149.4037555999821,149.4037555999821,149.4037555999821,149.4037555999821,149.4037555999821,149.4037555999821,149.4037555999821,19,4,"[0.050359100045170635, 0.1339741999981925, 0.2507690000347793, 0.3510456000221893]","[0.06715220003388822, 0.1506525000440888, 0.2673099000239745, 0.367945600009989]",149.4037555999821,149.60373309999704,1000,149.60373309999704,1000,1000,1000,1000,1,num_2,0.6899796999641694,,27,1,2026-03-05_13h10.32.564,2026A_exp2,2022.2.4,59.94736621645226,
1,0,0.0,3.7,1,0,35,35,0,,,,,150.32111009996152,150.95497299998533,150.95497299998533,151.45604179997463,315,315,151.45604179997463,151.45604179997463,151.45604179997463,151.45604179997463,151.45604179997463,151.45604179997463,151.45604179997463,151.45604179997463,151.45604179997463,151.82263829995645,151.82263829995645,151.82263829995645,151.82263829995645,151.82263829995645,151.82263829995645,151.82263829995645,151.82263829995645,151.82263829995645,22,1,[0.10083540005143732],[0.11713460000464693],151.82263829995645,152.02262939995853,3.7,152.02262939995853,1,3.7,1,1,1000,num_4,1.622105200018268,,27,1,2026-03-05_13h10.32.564,2026A_exp2,2022.2.4,59.94736621645226,
1000,1,6.1,0.0,0,0,36,36,59,,,,,153.67422439996153,154.32492279994767,154.32492279994767,154.81004849995952,315,315,154.81004849995952,154.81004849995952,154.81004849995952,154.81004849995952,154.81004849995952,154.81004849995952,154.81004849995952,154.81004849995952,154.81004849995952,155.17576969997026,155.17576969997026,155.17576969997026,155.17576969997026,155.17576969997026,155.17576969997026,155.17576969997026,155.17576969997026,155.17576969997026,21,2,"[0.08352879999438301, 0.18346079997718334]","[0.10006530000828207, 0.19995599996764213]",155.17576969997026,155.37614089995623,1000,155.37614089995623,1000,1000,1000,1000,0,num_3,0.6528600000310689,,27,1,2026-03-05_13h10.32.564,2026A_exp2,2022.2.4,59.94736621645226,
1000,1,0.0,6.1,1,0,37,37,62,,,,,156.0603113999823,156.71089759998722,156.71089759998722,157.19525999994949,315,315,157.19525999994949,157.19525999994949,157.19525999994949,157.19525999994949,157.19525999994949,157.19525999994949,157.19525999994949,157.19525999994949,157.19525999994949,157.5617607999593,157.5617607999593,157.5617607999593,157.5617607999593,157.5617607999593,157.5617607999593,157.5617607999593,157.5617607999593,157.5617607999593,23,0,,,157.5617607999593,157.76188209996326,1000,157.76188209996326,1000,1000,1000,1000,1,num_2,0.6038798000081442,,27,1,2026-03-05_13h10.32.564,2026A_exp2,2022.2.4,59.94736621645226,
1000,1,6.1,3.7,0,0,38,38,18,,,,,158.39580899995053,159.04637559998082,159.04637559998082,159.531072999991,315,45,159.531072999991,159.531072999991,159.531072999991,159.531072999991,159.531072999991,159.531072999991,159.531072999991,159.531072999991,159.531072999991,159.89718409994384,159.89718409994384,159.89718409994384,159.89718409994384,159.89718409994384,159.89718409994384,159.89718409994384,159.89718409994384,159.89718409994384,23,0,,,159.89718409994384,160.09747999999672,1000,160.09747999999672,1000,1000,1000,1000,0,num_3,0.5960726999910548,,27,1,2026-03-05_13h10.32.564,2026A_exp2,2022.2.4,59.94736621645226,
1,0,0.0,0.0,1,0,39,39,24,,,,,160.71471819997532,161.36535969999386,161.36535969999386,161.84961939998902,315,45,161.84961939998902,161.84961939998902,161.84961939998902,161.84961939998902,161.84961939998902,161.84961939998902,161.84961939998902,161.84961939998902,161.84961939998902,162.2160902999458,162.2160902999458,162.2160902999458,162.2160902999458,162.2160902999458,162.2160902999458,162.2160902999458,162.2160902999458,162.2160902999458,22,1,[0.0009099999442696571],[0.017000599997118115],162.2160902999458,162.41642139997566,0.0,162.41642139997566,1,0.0,0,0,1000,num_4,0.7088321000337601,,27,1,2026-03-05_13h10.32.564,2026A_exp2,2022.2.4,59.94736621645226,
0,0,0.0,0.0,0,0,40,40,70,,,,,163.15040919999592,163.78467429999728,163.78467429999728,164.28548279998358,45,315,164.28548279998358,164.28548279998358,164.28548279998358,164.28548279998358,164.28548279998358,164.28548279998358,164.28548279998358,164.28548279998358,164.28548279998358,164.65193719998933,164.65193719998933,164.65193719998933,164.65193719998933,164.65193719998933,164.65193719998933,164.65193719998933,164.65193719998933,164.65193719998933,23,0,,,164.65193719998933,164.85203189996537,0.0,164.85203189996537,0,0.0,0,1,1000,num_1,0.7614850000245497,,27,1,2026-03-05_13h10.32.564,2026A_exp2,2022.2.4,59.94736621645226,
1,0,0.0,4.9,1,0,41,41,1,,,,,165.6362721999758,166.27001269999892,166.27001269999892,166.7713506,45,315,166.7713506,166.7713506,166.7713506,166.7713506,166.7713506,166.7713506,166.7713506,166.7713506,166.7713506,167.13877529994352,167.13877529994352,167.13877529994352,167.13877529994352,167.13877529994352,167.13877529994352,167.13877529994352,167.13877529994352,167.13877529994352,21,2,"[0.03350660001160577, 0.15036010002950206]","[0.05023130000336096, 0.16695009998511523]",167.13877529994352,167.33828409999842,4.9,167.33828409999842,1,4.9,1,1,1000,num_4,0.6825024000136182,,27,1,2026-03-05_13h10.32.564,2026A_exp2,2022.2.4,59.94736621645226,
1000,1,0.0,3.7,1,0,42,42,65,,,,,168.0387804999482,168.6726262999582,168.6726262999582,169.17363389994716,45,315,169.17363389994716,169.17363389994716,169.17363389994716,169.17363389994716,169.17363389994716,169.17363389994716,169.17363389994716,169.17363389994716,169.17363389994716,169.54016629996477,169.54016629996477,169.54016629996477,169.54016629996477,169.54016629996477,169.54016629996477,169.54016629996477,169.54016629996477,169.54016629996477,23,0,,,169.54016629996477,169.74048769997898,1000,169.74048769997898,1000,1000,1000,1000,1,num_2,0.6408173000090756,,27,1,2026-03-05_13h10.32.564,2026A_exp2,2022.2.4,59.94736621645226,
1000,1,0.0,0.0,0,0,43,43,6,,,,,170.40809569996782,171.05842699995264,171.05842699995264,171.54255329997977,315,45,171.54255329997977,171.54255329997977,171.54255329997977,171.54255329997977,171.54255329997977,171.54255329997977,171.54255329997977,171.54255329997977,171.54255329997977,171.9092061999836,171.9092061999836,171.9092061999836,171.9092061999836,171.9092061999836,171.9092061999836,171.9092061999836,171.9092061999836,171.9092061999836,23,0,,,171.9092061999836,172.10953909996897,1000,172.10953909996897,1000,1000,1000,1000,0,num_3,0.6159804000053555,,27,1,2026-03-05_13h10.32.564,2026A_exp2,2022.2.4,59.94736621645226,
1000,1,6.1,4.9,0,0,44,44,68,,,,,172.74354639998637,173.39404659997672,173.39404659997672,173.8786829999881,315,315,173.8786829999881,173.8786829999881,173.8786829999881,173.8786829999881,173.8786829999881,173.8786829999881,173.8786829999881,173.8786829999881,173.8786829999881,174.24496529996395,174.24496529996395,174.24496529996395,174.24496529996395,174.24496529996395,174.24496529996395,174.24496529996395,174.24496529996395,174.24496529996395,23,0,,,174.24496529996395,174.4453075999627,1000,174.4453075999627,1000,1000,1000,1000,0,num_3,0.4802155999932438,,27,1,2026-03-05_13h10.32.564,2026A_exp2,2022.2.4,59.94736621645226,
1000,1,0.0,0.0,1,0,45,45,46,,,,,174.9460089999484,175.5959210000001,175.5959210000001,176.08064819994615,45,315,176.08064819994615,176.08064819994615,176.08064819994615,176.08064819994615,176.08064819994615,176.08064819994615,176.08064819994615,176.08064819994615,176.08064819994615,176.44773189997068,176.44773189997068,176.44773189997068,176.44773189997068,176.44773189997068,176.44773189997068,176.44773189997068,176.44773189997068,176.44773189997068,23,0,,,176.44773189997068,176.64738969999598,1000,176.64738969999598,1000,1000,1000,1000,1,num_2,0.48551480000605807,,27,1,2026-03-05_13h10.32.564,2026A_exp2,2022.2.4,59.94736621645226,
1,0,4.9,4.9,0,0,46,46,39,,,,,177.16468999994686,177.81510909995995,177.81510909995995,178.29981269995915,315,45,178.29981269995915,178.29981269995915,178.29981269995915,178.29981269995915,178.29981269995915,178.29981269995915,178.29981269995915,178.29981269995915,178.29981269995915,178.66603309998754,178.66603309998754,178.66603309998754,178.66603309998754,178.66603309998754,178.66603309998754,178.66603309998754,178.66603309998754,178.66603309998754,22,1,[0.350345799990464],[0.3671717999968678],178.66603309998754,178.86624899995513,4.9,178.86624899995513,1,4.9,1,1,1000,num_4,0.8585835000267252,,27,1,2026-03-05_13h10.32.564,2026A_exp2,2022.2.4,59.94736621645226,
1000,1,0.0,6.1,1,0,47,47,19,,,,,179.7510382999899,180.40103139996063,180.40103139996063,180.90226099995198,45,315,180.90226099995198,180.90226099995198,180.90226099995198,180.90226099995198,180.90226099995198,180.90226099995198,180.90226099995198,180.90226099995198,180.90226099995198,181.2519592999597,181.2519592999597,181.2519592999597,181.2519592999597,181.2519592999597,181.2519592999597,181.2519592999597,181.2519592999597,181.2519592999597,19,3,"[0.10021949996007606, 0.13343019998865202, 0.2000714999740012]","[0.11669169995002449, 0.1502930999849923, 0.21706889994675294]",181.2519592999597,181.45242369995685,1000,181.45242369995685,1000,1000,1000,1000,1,num_2,0.593034700024873,,27,1,2026-03-05_13h10.32.564,2026A_exp2,2022.2.4,59.94736621645226,
1,0,4.9,3.7,1,0,48,48,26,,,,,182.0694920999813,182.7201310999808,182.7201310999808,183.20480859995587,45,45,183.20480859995587,183.20480859995587,183.20480859995587,183.20480859995587,183.20480859995587,183.20480859995587,183.20480859995587,183.20480859995587,183.20480859995587,183.57057529996382,183.57057529996382,183.57057529996382,183.57057529996382,183.57057529996382,183.57057529996382,183.57057529996382,183.57057529996382,183.57057529996382,21,2,"[0.04985189996659756, 0.08297950000269338]","[0.06691559997852892, 0.10011260001920164]",183.57057529996382,183.7707971999771,3.7,183.7707971999771,0,3.7,1,0,1000,num_1,1.745907599979546,,27,1,2026-03-05_13h10.32.564,2026A_exp2,2022.2.4,59.94736621645226,
1000,1,0.0,0.0,0,0,49,49,15,,,,,185.5399340999429,186.17341249994934,186.17341249994934,186.67458019999322,315,45,186.67458019999322,186.67458019999322,186.67458019999322,186.67458019999322,186.67458019999322,186.67458019999322,186.67458019999322,186.67458019999322,186.67458019999322,187.04139369999757,187.04139369999757,187.04139369999757,187.04139369999757,187.04139369999757,187.04139369999757,187.04139369999757,187.04139369999757,187.04139369999757,23,0,,,187.04139369999757,187.2413538999972,1000,187.2413538999972,1000,1000,1000,1000,0,num_3,0.6033774000243284,,27,1,2026-03-05_13h10.32.564,2026A_exp2,2022.2.4,59.94736621645226,
0,0,4.9,4.9,1,0,50,50,48,,,,,187.8753846999607,188.52591619995655,188.52591619995655,189.01027679996332,45,315,189.01027679996332,189.01027679996332,189.01027679996332,189.01027679996332,189.01027679996332,189.01027679996332,189.01027679996332,189.01027679996332,189.01027679996332,189.3775962999789,189.3775962999789,189.3775962999789,189.3775962999789,189.3775962999789,189.3775962999789,189.3775962999789,189.3775962999789,189.3775962999789,16,4,"[0.0007400999893434346, 0.0503570000291802, 0.21677870000712574, 0.3175024000229314]","[0.03365930001018569, 0.1003212999785319, 0.233554299979005, 0.3342348000151105]",189.3775962999789,189.5768908999744,4.9,189.5768908999744,0,4.9,1,0,1000,num_1,1.0684228999889456,,27,1,2026-03-05_13h10.32.564,2026A_exp2,2022.2.4,59.94736621645226,
1000,1,0.0,4.9,0,0,51,51,53,,,,,190.66171469999244,191.29524129995843,191.29524129995843,191.7962889999617,45,45,191.7962889999617,191.7962889999617,191.7962889999617,191.7962889999617,191.7962889999617,191.7962889999617,191.7962889999617,191.7962889999617,191.7962889999617,192.16280409996398,192.16280409996398,192.16280409996398,192.16280409996398,192.16280409996398,192.16280409996398,192.16280409996398,192.16280409996398,192.16280409996398,23,0,,,192.16280409996398,192.36321799998404,1000,192.36321799998404,1000,1000,1000,1000,1,num_2,0.6420323000056669,,27,1,2026-03-05_13h10.32.564,2026A_exp2,2022.2.4,59.94736621645226,
1000,1,3.7,0.0,1,0,52,52,88,,,,,193.03049519995693,193.68114889995195,193.68114889995195,194.1654088999494,45,315,194.1654088999494,194.1654088999494,194.1654088999494,194.1654088999494,194.1654088999494,194.1654088999494,194.1654088999494,194.1654088999494,194.1654088999494,194.53247369994642,194.53247369994642,194.53247369994642,194.53247369994642,194.53247369994642,194.53247369994642,194.53247369994642,194.53247369994642,194.53247369994642,0,1,[0.0008781999931670725],[0.36715969996294007],194.53247369994642,194.7321685999632,1000,194.7321685999632,1000,1000,1000,1000,0,num_3,0.5770054000313394,,27,1,2026-03-05_13h10.32.564,2026A_exp2,2022.2.4,59.94736621645226,
1000,1,6.1,4.9,0,0,53,53,49,,,,,195.3327763999696,195.98331689997576,195.98331689997576,196.4677538999822,45,45,196.4677538999822,196.4677538999822,196.4677538999822,196.4677538999822,196.4677538999822,196.4677538999822,196.4677538999822,196.4677538999822,196.4677538999822,196.83419709996087,196.83419709996087,196.83419709996087,196.83419709996087,196.83419709996087,196.83419709996087,196.83419709996087,196.83419709996087,196.83419709996087,23,0,,,196.83419709996087,197.0343494999688,1000,197.0343494999688,1000,1000,1000,1000,0,num_3,0.6265533000114374,,27,1,2026-03-05_13h10.32.564,2026A_exp2,2022.2.4,59.94736621645226,
1,0,3.7,0.0,1,0,54,54,12,,,,,197.68527529999847,198.33560359996045,198.33560359996045,198.81997989997035,45,315,198.81997989997035,198.81997989997035,198.81997989997035,198.81997989997035,198.81997989997035,198.81997989997035,198.81997989997035,198.81997989997035,198.81997989997035,199.1865664999932,199.1865664999932,199.1865664999932,199.1865664999932,199.1865664999932,199.1865664999932,199.1865664999932,199.1865664999932,199.1865664999932,2,3,"[0.0008947000023908913, 0.2835590000031516, 0.3670808000024408]","[0.26683089998550713, 0.3504550000070594, 0.36708379996707663]",199.1865664999932,199.38672479998786,0.0,199.38672479998786,0,0.0,0,1,1000,num_1,0.7710332000278868,,27,1,2026-03-05_13h10.32.564,2026A_exp2,2022.2.4,59.94736621645226,
1000,1,4.9,0.0,0,0,55,55,50,,,,,200.1875850999495,200.821830699977,200.821830699977,201.32259949995205,45,45,201.32259949995205,201.32259949995205,201.32259949995205,201.32259949995205,201.32259949995205,201.32259949995205,201.32259949995205,201.32259949995205,201.32259949995205,201.6889353999868,201.6889353999868,201.6889353999868,201.6889353999868,201.6889353999868,201.6889353999868,201.6889353999868,201.6889353999868,201.6889353999868,15,6,"[0.01733030000468716, 0.06691380002303049, 0.1670468000229448, 0.20072220003930852, 0.3338647000491619, 0.36744659999385476]","[0.050227000028826296, 0.10015460004797205, 0.18356340000173077, 0.21792800002731383, 0.35050920001231134, 0.36744940001517534]",201.6889353999868,201.8893248999957,1000,201.8893248999957,1000,1000,1000,1000,0,num_3,0.5964609999791719,,27,1,2026-03-05_13h10.32.564,2026A_exp2,2022.2.4,59.94736621645226,
1,0,3.7,0.0,1,0,56,56,11,,,,,202.50660839997,203.1571549999644,203.1571549999644,203.64156149997143,315,315,203.64156149997143,203.64156149997143,203.64156149997143,203.64156149997143,203.64156149997143,203.64156149997143,203.64156149997143,203.64156149997143,203.64156149997143,204.00800439994782,204.00800439994782,204.00800439994782,204.00800439994782,204.00800439994782,204.00800439994782,204.00800439994782,204.00800439994782,204.00800439994782,22,1,[0.08371170004829764],[0.10068090003915131],204.00800439994782,204.20825819997117,0.0,204.20825819997117,0,0.0,0,1,1000,num_1,0.7970411000424065,,27,1,2026-03-05_13h10.32.564,2026A_exp2,2022.2.4,59.94736621645226,
1000,1,0.0,4.9,0,0,57,57,74,,,,,205.0256689999951,205.65953469998203,205.65953469998203,206.1611137999571,45,315,206.1611137999571,206.1611137999571,206.1611137999571,206.1611137999571,206.1611137999571,206.1611137999571,206.1611137999571,206.1611137999571,206.1611137999571,206.5271509999875,206.5271509999875,206.5271509999875,206.5271509999875,206.5271509999875,206.5271509999875,206.5271509999875,206.5271509999875,206.5271509999875,8,3,"[0.0500762999872677, 0.23371190001489595, 0.31776130001526326]","[0.21669959998689592, 0.30128139996668324, 0.33495499996934086]",206.5271509999875,206.72761769994395,1000,206.72761769994395,1000,1000,1000,1000,1,num_2,0.6214535000035539,,27,1,2026-03-05_13h10.32.564,2026A_exp2,2022.2.4,59.94736621645226,
1000,1,0.0,4.9,1,0,58,58,55,,,,,207.37815349997254,208.0288259999943,208.0288259999943,208.51405339996563,45,315,208.51405339996563,208.51405339996563,208.51405339996563,208.51405339996563,208.51405339996563,208.51405339996563,208.51405339996563,208.51405339996563,208.51405339996563,208.8794363999623,208.8794363999623,208.8794363999623,208.8794363999623,208.8794363999623,208.8794363999623,208.8794363999623,208.8794363999623,208.8794363999623,23,0,,,208.8794363999623,209.07962229999248,1000,209.07962229999248,1000,1000,1000,1000,1,num_2,0.5251284999540076,,27,1,2026-03-05_13h10.32.564,2026A_exp2,2022.2.4,59.94736621645226,
1000,1,3.7,4.9,0,0,59,59,80,,,,,209.63042489998043,210.2808235999546,210.2808235999546,210.7654443999636,315,45,210.7654443999636,210.7654443999636,210.7654443999636,210.7654443999636,210.7654443999636,210.7654443999636,210.7654443999636,210.7654443999636,210.7654443999636,211.1318753999658,211.1318753999658,211.1318753999658,211.1318753999658,211.1318753999658,211.1318753999658,211.1318753999658,211.1318753999658,211.1318753999658,23,0,,,211.1318753999658,211.33203549997415,1000,211.33203549997415,1000,1000,1000,1000,0,num_3,0.6256528000230901,,27,1,2026-03-05_13h10.32.564,2026A_exp2,2022.2.4,59.94736621645226,
1000,1,0.0,0.0,0,0,60,60,7,,,,,211.98263019998558,212.63377479999326,212.63377479999326,213.11770539998543,45,45,213.11770539998543,213.11770539998543,213.11770539998543,213.11770539998543,213.11770539998543,213.11770539998543,213.11770539998543,213.11770539998543,213.11770539998543,213.48409899999388,213.48409899999388,213.48409899999388,213.48409899999388,213.48409899999388,213.48409899999388,213.48409899999388,213.48409899999388,213.48409899999388,23,0,,,213.48409899999388,213.68480969994562,1000,213.68480969994562,1000,1000,1000,1000,1,num_2,0.9285212000249885,,27,1,2026-03-05_13h10.32.564,2026A_exp2,2022.2.4,59.94736621645226,
1,0,0.0,0.0,0,0,61,61,17,,,,,214.63534969999455,215.28593559999717,215.28593559999717,215.77033139998093,315,315,215.77033139998093,215.77033139998093,215.77033139998093,215.77033139998093,215.77033139998093,215.77033139998093,215.77033139998093,215.77033139998093,215.77033139998093,216.13683639996452,216.13683639996452,216.13683639996452,216.13683639996452,216.13683639996452,216.13683639996452,216.13683639996452,216.13683639996452,216.13683639996452,23,0,,,216.13683639996452,216.33698409999488,0.0,216.33698409999488,0,0.0,0,1,1000,num_1,0.947952099959366,,27,1,2026-03-05_13h10.32.564,2026A_exp2,2022.2.4,59.94736621645226,
1,0,6.1,3.7,0,0,62,62,31,,,,,217.3047689999803,217.95523729996057,217.95523729996057,218.43965819996083,45,315,218.43965819996083,218.43965819996083,218.43965819996083,218.43965819996083,218.43965819996083,218.43965819996083,218.43965819996083,218.43965819996083,218.43965819996083,218.80706329998793,218.80706329998793,218.80706329998793,218.80706329998793,218.80706329998793,218.80706329998793,218.80706329998793,218.80706329998793,218.80706329998793,22,1,[0.20064100000308827],[0.21707000001333654],218.80706329998793,219.00626419996843,6.1,219.00626419996843,0,6.1,1,0,1000,num_1,0.5984942000359297,,27,1,2026-03-05_13h10.32.564,2026A_exp2,2022.2.4,59.94736621645226,
1000,1,0.0,3.7,0,0,63,63,57,,,,,219.6236452999874,220.27421249996405,220.27421249996405,220.7753856999916,45,315,220.7753856999916,220.7753856999916,220.7753856999916,220.7753856999916,220.7753856999916,220.7753856999916,220.7753856999916,220.7753856999916,220.7753856999916,221.12504669994814,221.12504669994814,221.12504669994814,221.12504669994814,221.12504669994814,221.12504669994814,221.12504669994814,221.12504669994814,221.12504669994814,22,0,,,221.12504669994814,221.325931499945,1000,221.325931499945,1000,1000,1000,1000,1,num_2,0.831168600008823,,27,1,2026-03-05_13h10.32.564,2026A_exp2,2022.2.4,59.94736621645226,
1000,1,0.0,4.9,1,0,64,64,78,,,,,222.1761410999461,222.8101856999565,222.8101856999565,223.31158659997163,45,315,223.31158659997163,223.31158659997163,223.31158659997163,223.31158659997163,223.31158659997163,223.31158659997163,223.31158659997163,223.31158659997163,223.31158659997163,223.67804959998466,223.67804959998466,223.67804959998466,223.67804959998466,223.67804959998466,223.67804959998466,223.67804959998466,223.67804959998466,223.67804959998466,23,0,,,223.67804959998466,223.87799459998496,1000,223.87799459998496,1000,1000,1000,1000,1,num_2,0.567502899968531,,27,1,2026-03-05_13h10.32.564,2026A_exp2,2022.2.4,59.94736621645226,
1000,1,3.7,6.1,1,0,65,65,29,,,,,224.46183669997845,225.11242349998793,225.11242349998793,225.59683329996187,45,45,225.59683329996187,225.59683329996187,225.59683329996187,225.59683329996187,225.59683329996187,225.59683329996187,225.59683329996187,225.59683329996187,225.59683329996187,225.96391019999282,225.96391019999282,225.96391019999282,225.96391019999282,225.96391019999282,225.96391019999282,225.96391019999282,225.96391019999282,225.96391019999282,23,0,,,225.96391019999282,226.1634857999743,1000,226.1634857999743,1000,1000,1000,1000,0,num_3,0.6497979999985546,,27,1,2026-03-05_13h10.32.564,2026A_exp2,2022.2.4,59.94736621645226,
1000,1,0.0,6.1,0,0,66,66,58,,,,,226.83090259996243,227.48144369997317,227.48144369997317,227.9658586999867,315,45,227.9658586999867,227.9658586999867,227.9658586999867,227.9658586999867,227.9658586999867,227.9658586999867,227.9658586999867,227.9658586999867,227.9658586999867,228.33222049998585,228.33222049998585,228.33222049998585,228.33222049998585,228.33222049998585,228.33222049998585,228.33222049998585,228.33222049998585,228.33222049998585,16,4,"[0.0836284999968484, 0.20023610000498593, 0.2506396999815479, 0.3003867000225]","[0.10061090003000572, 0.2169743999838829, 0.28367410000646487, 0.3670951999956742]",228.33222049998585,228.53324109996902,1000,228.53324109996902,1000,1000,1000,1000,1,num_2,0.6157705999794416,,27,1,2026-03-05_13h10.32.564,2026A_exp2,2022.2.4,59.94736621645226,
1,0,6.1,6.1,0,0,67,67,27,,,,,229.16658599994844,229.8170915999799,229.8170915999799,230.30146539997077,45,315,230.30146539997077,230.30146539997077,230.30146539997077,230.30146539997077,230.30146539997077,230.30146539997077,230.30146539997077,230.30146539997077,230.30146539997077,230.66788609995274,230.66788609995274,230.66788609995274,230.66788609995274,230.66788609995274,230.66788609995274,230.66788609995274,230.66788609995274,230.66788609995274,5,6,"[0.0009367999737150967, 0.10042179998708889, 0.13361699995584786, 0.21694319997914135, 0.25053229997865856, 0.2838257999974303]","[0.08357219997560605, 0.11684179998701438, 0.20043329999316484, 0.23378849995788187, 0.2671021999558434, 0.36716649995651096]",230.66788609995274,230.86819669994293,6.1,230.86819669994293,1,6.1,1,1,1000,num_4,0.849394399963785,,27,1,2026-03-05_13h10.32.564,2026A_exp2,2022.2.4,59.94736621645226,
1000,1,0.0,0.0,1,0,68,68,56,,,,,231.7358892999473,232.386361199955,232.386361199955,232.87116859998787,45,45,232.87116859998787,232.87116859998787,232.87116859998787,232.87116859998787,232.87116859998787,232.87116859998787,232.87116859998787,232.87116859998787,232.87116859998787,233.23737269995036,233.23737269995036,233.23737269995036,233.23737269995036,233.23737269995036,233.23737269995036,233.23737269995036,233.23737269995036,233.23737269995036,23,0,,,233.23737269995036,233.43752469995525,1000,233.43752469995525,1000,1000,1000,1000,1,num_2,0.7757358000380918,,27,1,2026-03-05_13h10.32.564,2026A_exp2,2022.2.4,59.94736621645226,
0,0,0.0,0.0,1,0,69,69,38,,,,,234.23831729998346,234.88892339996528,234.88892339996528,235.37322289997246,315,45,235.37322289997246,235.37322289997246,235.37322289997246,235.37322289997246,235.37322289997246,235.37322289997246,235.37322289997246,235.37322289997246,235.37322289997246,235.73973879998084,235.73973879998084,235.73973879998084,235.73973879998084,235.73973879998084,235.73973879998084,235.73973879998084,235.73973879998084,235.73973879998084,23,0,,,235.73973879998084,235.93992779997643,0.0,235.93992779997643,0,0.0,0,1,1000,num_1,1.2412983999820426,,27,1,2026-03-05_13h10.32.564,2026A_exp2,2022.2.4,59.94736621645226,
1000,1,3.7,0.0,1,0,70,70,54,,,,,237.20784239994828,237.8423512999434,237.8423512999434,238.34326169994893,315,45,238.34326169994893,238.34326169994893,238.34326169994893,238.34326169994893,238.34326169994893,238.34326169994893,238.34326169994893,238.34326169994893,238.34326169994893,238.70940209995024,238.70940209995024,238.70940209995024,238.70940209995024,238.70940209995024,238.70940209995024,238.70940209995024,238.70940209995024,238.70940209995024,21,1,[0.35030480002751574],[0.36687550001079217],238.70940209995024,238.9100146999699,1000,238.9100146999699,1000,1000,1000,1000,0,num_3,0.6314814999932423,,27,1,2026-03-05_13h10.32.564,2026A_exp2,2022.2.4,59.94736621645226,
1,0,0.0,0.0,0,0,71,71,34,,,,,239.56039489997784,240.21090299997013,240.21090299997013,240.69544329994824,45,45,240.69544329994824,240.69544329994824,240.69544329994824,240.69544329994824,240.69544329994824,240.69544329994824,240.69544329994824,240.69544329994824,240.69544329994824,241.0619030999951,241.0619030999951,241.0619030999951,241.0619030999951,241.0619030999951,241.0619030999951,241.0619030999951,241.0619030999951,241.0619030999951,23,0,,,241.0619030999951,241.2628899999545,0.0,241.2628899999545,1,0.0,0,0,1000,num_4,1.125873299955856,,27,1,2026-03-05_13h10.32.564,2026A_exp2,2022.2.4,59.94736621645226,
1000,1,0.0,6.1,0,0,72,72,75,,,,,242.4131426999811,243.0471634999849,243.0471634999849,243.54828599997563,315,315,243.54828599997563,243.54828599997563,243.54828599997563,243.54828599997563,243.54828599997563,243.54828599997563,243.54828599997563,243.54828599997563,243.54828599997563,243.91447249997873,243.91447249997873,243.91447249997873,243.91447249997873,243.91447249997873,243.91447249997873,243.91447249997873,243.91447249997873,243.91447249997873,18,4,"[0.08344369998667389, 0.19963339995592833, 0.29997029999503866, 0.3498610999668017]","[0.0994459999492392, 0.2165975999669172, 0.31710219994420186, 0.36632819997612387]",243.91447249997873,244.1152521999902,1000,244.1152521999902,1000,1000,1000,1000,1,num_2,0.6026007999898866,,27,1,2026-03-05_13h10.32.564,2026A_exp2,2022.2.4,59.94736621645226,
1000,1,0.0,0.0,0,0,73,73,87,,,,,244.7487774999463,245.39957009995123,245.39957009995123,245.88377629994648,315,45,245.88377629994648,245.88377629994648,245.88377629994648,245.88377629994648,245.88377629994648,245.88377629994648,245.88377629994648,245.88377629994648,245.88377629994648,246.25018199998885,246.25018199998885,246.25018199998885,246.25018199998885,246.25018199998885,246.25018199998885,246.25018199998885,246.25018199998885,246.25018199998885,23,0,,,246.25018199998885,246.45052899996517,1000,246.45052899996517,1000,1000,1000,1000,0,num_3,0.6112147999810986,,27,1,2026-03-05_13h10.32.564,2026A_exp2,2022.2.4,59.94736621645226,
1000,1,3.7,0.0,0,0,74,74,66,,,,,247.08454849995906,247.735208099999,247.735208099999,248.21938319999026,315,45,248.21938319999026,248.21938319999026,248.21938319999026,248.21938319999026,248.21938319999026,248.21938319999026,248.21938319999026,248.21938319999026,248.21938319999026,248.58586379996268,248.58586379996268,248.58586379996268,248.58586379996268,248.58586379996268,248.58586379996268,248.58586379996268,248.58586379996268,248.58586379996268,21,2,"[0.01764740003272891, 0.15051500004483387]","[0.033882200019434094, 0.16692830005194992]",248.58586379996268,248.78632269997615,1000,248.78632269997615,1000,1000,1000,1000,1,num_2,0.5309026000322774,,27,1,2026-03-05_13h10.32.564,2026A_exp2,2022.2.4,59.94736621645226,
1,0,3.7,6.1,1,0,75,75,77,,,,,249.3368657999672,249.98723669996252,249.98723669996252,250.4716758999857,315,315,250.4716758999857,250.4716758999857,250.4716758999857,250.4716758999857,250.4716758999857,250.4716758999857,250.4716758999857,250.4716758999857,250.4716758999857,250.83806799998274,250.83806799998274,250.83806799998274,250.83806799998274,250.83806799998274,250.83806799998274,250.83806799998274,250.83806799998274,250.83806799998274,4,4,"[0.000916799996048212, 0.25048119999701157, 0.33401889994274825, 0.36740099999587983]","[0.21725940000033006, 0.3172360999742523, 0.3505292999907397, 0.3674040999612771]",250.83806799998274,251.03850669995882,6.1,251.03850669995882,1,6.1,1,1,1000,num_4,0.7349899000255391,,27,1,2026-03-05_13h10.32.564,2026A_exp2,2022.2.4,59.94736621645226,
1,0,4.9,4.9,0,0,76,76,84,,,,,251.80588529998204,252.43978859996423,252.43978859996423,252.94112179998774,315,315,252.94112179998774,252.94112179998774,252.94112179998774,252.94112179998774,252.94112179998774,252.94112179998774,252.94112179998774,252.94112179998774,252.94112179998774,253.30739189998712,253.30739189998712,253.30739189998712,253.30739189998712,253.30739189998712,253.30739189998712,253.30739189998712,253.30739189998712,253.30739189998712,23,0,,,253.30739189998712,253.50749049999285,4.9,253.50749049999285,0,4.9,1,0,1000,num_1,1.0257701000082307,,27,1,2026-03-05_13h10.32.564,2026A_exp2,2022.2.4,59.94736621645226,
1,0,3.7,0.0,1,0,77,77,13,,,,,254.5584870999446,255.19271469995147,255.19271469995147,255.69373209995683,45,45,255.69373209995683,255.69373209995683,255.69373209995683,255.69373209995683,255.69373209995683,255.69373209995683,255.69373209995683,255.69373209995683,255.69373209995683,256.0602182999719,256.0602182999719,256.0602182999719,256.0602182999719,256.0602182999719,256.0602182999719,256.0602182999719,256.0602182999719,256.0602182999719,23,0,,,256.0602182999719,256.26067469996633,0.0,256.26067469996633,0,0.0,0,1,1000,num_1,1.2166498000151478,,27,1,2026-03-05_13h10.32.564,2026A_exp2,2022.2.4,59.94736621645226,
1000,1,0.0,6.1,0,0,78,78,35,,,,,257.49493809998967,258.12888359994395,258.12888359994395,258.6298362999805,315,45,258.6298362999805,258.6298362999805,258.6298362999805,258.6298362999805,258.6298362999805,258.6298362999805,258.6298362999805,258.6298362999805,258.6298362999805,258.99628169997595,258.99628169997595,258.99628169997595,258.99628169997595,258.99628169997595,258.99628169997595,258.99628169997595,258.99628169997595,258.99628169997595,13,3,"[0.05056850000983104, 0.10023699997691438, 0.33371659996919334]","[0.08357999997679144, 0.2002873999881558, 0.367826999980025]",258.99628169997595,259.1965713999816,1000,259.1965713999816,1000,1000,1000,1000,1,num_2,1.1849307999946177,,27,1,2026-03-05_13h10.32.564,2026A_exp2,2022.2.4,59.94736621645226,
1,0,3.7,3.7,1,0,79,79,86,,,,,260.39772709994577,261.04841349995695,261.04841349995695,261.5494109999854,45,315,261.5494109999854,261.5494109999854,261.5494109999854,261.5494109999854,261.5494109999854,261.5494109999854,261.5494109999854,261.5494109999854,261.5494109999854,261.91591639997205,261.91591639997205,261.91591639997205,261.91591639997205,261.91591639997205,261.91591639997205,261.91591639997205,261.91591639997205,261.91591639997205,23,0,,,261.91591639997205,262.1162720999564,3.7,262.1162720999564,0,3.7,1,0,1000,num_1,0.9208251999807544,,27,1,2026-03-05_13h10.32.564,2026A_exp2,2022.2.4,59.94736621645226,
1,0,0.0,6.1,0,0,80,80,82,,,,,263.0671518999734,263.701056699967,263.701056699967,264.20202039997093,315,315,264.20202039997093,264.20202039997093,264.20202039997093,264.20202039997093,264.20202039997093,264.20202039997093,264.20202039997093,264.20202039997093,264.20202039997093,264.56854479998583,264.56854479998583,264.56854479998583,264.56854479998583,264.56854479998583,264.56854479998583,264.56854479998583,264.56854479998583,264.56854479998583,23,0,,,264.56854479998583,264.76938859996153,0.0,264.76938859996153,0,0.0,0,1,1000,num_1,1.3879822000162676,,27,1,2026-03-05_13h10.32.564,2026A_exp2,2022.2.4,59.94736621645226,
1000,1,0.0,6.1,1,0,81,81,52,,,,,266.1867664999445,266.8211863999604,266.8211863999604,267.3220357999671,315,315,267.3220357999671,267.3220357999671,267.3220357999671,267.3220357999671,267.3220357999671,267.3220357999671,267.3220357999671,267.3220357999671,267.3220357999671,267.68828609999036,267.68828609999036,267.68828609999036,267.68828609999036,267.68828609999036,267.68828609999036,267.68828609999036,267.68828609999036,267.68828609999036,23,0,,,267.68828609999036,267.88876509998227,1000,267.88876509998227,1000,1000,1000,1000,1,num_2,0.6606802999740466,,27,1,2026-03-05_13h10.32.564,2026A_exp2,2022.2.4,59.94736621645226,
1,0,3.7,4.9,1,0,82,82,71,,,,,268.5726774999639,269.2231412999681,269.2231412999681,269.7075432999991,45,45,269.7075432999991,269.7075432999991,269.7075432999991,269.7075432999991,269.7075432999991,269.7075432999991,269.7075432999991,269.7075432999991,269.7075432999991,270.07434329995885,270.07434329995885,270.07434329995885,270.07434329995885,270.07434329995885,270.07434329995885,270.07434329995885,270.07434329995885,270.07434329995885,23,0,,,270.07434329995885,270.2742990999832,4.9,270.2742990999832,0,4.9,1,0,1000,num_1,0.9468975000199862,,27,1,2026-03-05_13h10.32.564,2026A_exp2,2022.2.4,59.94736621645226,
1000,1,0.0,4.9,1,0,83,83,79,,,,,271.2420775999781,271.8925146999536,271.8925146999536,272.3770607999759,315,45,272.3770607999759,272.3770607999759,272.3770607999759,272.3770607999759,272.3770607999759,272.3770607999759,272.3770607999759,272.3770607999759,272.3770607999759,272.7435004999861,272.7435004999861,272.7435004999861,272.7435004999861,272.7435004999861,272.7435004999861,272.7435004999861,272.7435004999861,272.7435004999861,22,1,[0.3172886000247672],[0.3338797999895178],272.7435004999861,272.943879599974,1000,272.943879599974,1000,1000,1000,1000,1,num_2,0.6054674999904819,,27,1,2026-03-05_13h10.32.564,2026A_exp2,2022.2.4,59.94736621645226,
0,0,0.0,4.9,0,0,84,84,14,,,,,273.57794429996284,274.2279135999852,274.2279135999852,274.71275569999125,45,315,274.71275569999125,274.71275569999125,274.71275569999125,274.71275569999125,274.71275569999125,274.71275569999125,274.71275569999125,274.71275569999125,274.71275569999125,275.0790252999868,275.0790252999868,275.0790252999868,275.0790252999868,275.0790252999868,275.0790252999868,275.0790252999868,275.0790252999868,275.0790252999868,23,0,,,275.0790252999868,275.2792331999517,4.9,275.2792331999517,1,4.9,1,1,1000,num_4,0.8545531999552622,,27,1,2026-03-05_13h10.32.564,2026A_exp2,2022.2.4,59.94736621645226,
0,0,3.7,6.1,0,0,85,85,73,,,,,276.16360779997194,276.8142496999935,276.8142496999935,277.29861869994784,45,315,277.29861869994784,277.29861869994784,277.29861869994784,277.29861869994784,277.29861869994784,277.29861869994784,277.29861869994784,277.29861869994784,277.29861869994784,277.664965999953,277.664965999953,277.664965999953,277.664965999953,277.664965999953,277.664965999953,277.664965999953,277.664965999953,277.664965999953,8,4,"[0.017300200008321553, 0.10010699997656047, 0.16678369999863207, 0.3169586000149138]","[0.0667259999900125, 0.15022690000478178, 0.2840670999721624, 0.35053339996375144]",277.664965999953,277.8653292999952,6.1,277.8653292999952,1,6.1,1,1,1000,num_4,0.6760349000105634,,27,1,2026-03-05_13h10.32.564,2026A_exp2,2022.2.4,59.94736621645226,
1000,1,0.0,4.9,0,0,86,86,5,,,,,278.566173899977,279.2164749999647,279.2164749999647,279.70089849998476,45,45,279.70089849998476,279.70089849998476,279.70089849998476,279.70089849998476,279.70089849998476,279.70089849998476,279.70089849998476,279.70089849998476,279.70089849998476,280.06733059999533,280.06733059999533,280.06733059999533,280.06733059999533,280.06733059999533,280.06733059999533,280.06733059999533,280.06733059999533,280.06733059999533,6,7,"[0.0009442000300623477, 0.06666150002274662, 0.10031330003403127, 0.13368230004562065, 0.16679610003484413, 0.33387140004197136, 0.36700570001266897]","[0.050216900010127574, 0.08366500004194677, 0.11666600004537031, 0.15052100003231317, 0.3171772000496276, 0.35048840002855286, 0.36700830003246665]",280.06733059999533,280.2675698999665,1000,280.2675698999665,1000,1000,1000,1000,1,num_2,0.5941081999917515,,27,1,2026-03-05_13h10.32.564,2026A_exp2,2022.2.4,59.94736621645226,
0,0,0.0,3.7,0,0,87,87,47,,,,,280.8849741999875,281.53548619995127,281.53548619995127,282.0199122999911,315,45,282.0199122999911,282.0199122999911,282.0199122999911,282.0199122999911,282.0199122999911,282.0199122999911,282.0199122999911,282.0199122999911,282.0199122999911,282.38642059999984,282.38642059999984,282.38642059999984,282.38642059999984,282.38642059999984,282.38642059999984,282.38642059999984,282.38642059999984,282.38642059999984,19,4,"[0.10045859997626394, 0.15029819996561855, 0.30035759997554123, 0.3505913999979384]","[0.11700229998677969, 0.1671688999631442, 0.3171867999481037, 0.3675039999652654]",282.38642059999984,282.586663999944,3.7,282.586663999944,1,3.7,1,1,1000,num_4,0.5945804999792017,,27,1,2026-03-05_13h10.32.564,2026A_exp2,2022.2.4,59.94736621645226,
1000,1,0.0,6.1,1,0,88,88,69,,,,,283.20389249996515,283.85445439995965,283.85445439995965,284.33888059994206,45,315,284.33888059994206,284.33888059994206,284.33888059994206,284.33888059994206,284.33888059994206,284.33888059994206,284.33888059994206,284.33888059994206,284.33888059994206,284.7052273999434,284.7052273999434,284.7052273999434,284.7052273999434,284.7052273999434,284.7052273999434,284.7052273999434,284.7052273999434,284.7052273999434,23,0,,,284.7052273999434,284.90592149994336,1000,284.90592149994336,1000,1000,1000,1000,1,num_2,0.5476705000037327,,27,1,2026-03-05_13h10.32.564,2026A_exp2,2022.2.4,59.94736621645226,
0,0,6.1,0.0,1,0,89,89,30,,,,,285.4729555999511,286.12340219999896,286.12340219999896,286.6247456999845,45,315,286.6247456999845,286.6247456999845,286.6247456999845,286.6247456999845,286.6247456999845,286.6247456999845,286.6247456999845,286.6247456999845,286.6247456999845,286.9908762999694,286.9908762999694,286.9908762999694,286.9908762999694,286.9908762999694,286.9908762999694,286.9908762999694,286.9908762999694,286.9908762999694,23,0,,,286.9908762999694,287.1912586999824,6.1,287.1912586999824,1,6.1,1,1,1000,num_4,0.8301832000142895,,27,1,2026-03-05_13h10.32.564,2026A_exp2,2022.2.4,59.94736621645226,
,,,,,,,,,,,,,,,,,,,,,,,,,,,,,,,,,,,,,,,,,,,,,,,,,,,,288.0443992999499,,,,,,,
