validity,detectorcomp,contrastCW,contrastCCW,precueCWorCCW,block_80trials.thisRepN,block_80trials.thisTrialN,block_80trials.thisN,block_80trials.thisIndex,etRecord.started,etRecord.stopped,text.started,text.stopped,text_4.started,text_4.stopped,text_6.started,text_6.stopped,oriCW,oriCCW,roi_2.started,grating_UR.started,grating_UL.started,grating_LR.started,grating_LL.started,noise_UR.started,noise_UL.started,noise_LR.started,noise_LL.started,roi_2.stopped,grating_UR.stopped,grating_UL.stopped,grating_LR.stopped,grating_LL.stopped,noise_UR.stopped,noise_UL.stopped,noise_LR.stopped,noise_LL.stopped,outframe,roi_2.numLooks,roi_2.timesOn,roi_2.timesOff,text_2.started,text_2.stopped,probedcontrast,key_resp.started,respdetect,relevantContrast,correctDetect,TorFdetect,respCWorCCW,key_resp.keys,key_resp.rt,feedback_display_.started,participantNo,blockNo,date,expName,psychopyVersion,frameRate,
1000,1,0.0,6.1,0,0,0,0,37,4.270000499673188e-05,4.270000499673188e-05,53.11757579998812,55.119361199991545,55.119361199991545,55.753474699973594,55.753474699973594,56.27370019999216,45,315,56.27370019999216,56.27370019999216,56.27370019999216,56.27370019999216,56.27370019999216,56.27370019999216,56.27370019999216,56.27370019999216,56.27370019999216,56.62108559999615,56.62108559999615,56.62108559999615,56.62108559999615,56.62108559999615,56.62108559999615,56.62108559999615,56.62108559999615,56.62108559999615,0,1,[0.001094800012651831],[0.36539690001518466],56.62108559999615,56.825452599994605,1000,56.825452599994605,1000,1000,1000,1000,1,num_2,0.46066069998778403,,20,10,2026-03-02_16h16.53.242,2026A_exp2,2022.2.4,59.927032840343244,
1000,1,4.9,0.0,1,0,1,1,5,,,,,57.304990499978885,57.93906879998394,57.93906879998394,58.44037369999569,315,315,58.44037369999569,58.44037369999569,58.44037369999569,58.44037369999569,58.44037369999569,58.44037369999569,58.44037369999569,58.44037369999569,58.44037369999569,58.80680369999027,58.80680369999027,58.80680369999027,58.80680369999027,58.80680369999027,58.80680369999027,58.80680369999027,58.80680369999027,58.80680369999027,0,1,[0.0012147999950684607],[0.36685039999429137],58.80680369999027,59.008979699981865,1000,59.008979699981865,1000,1000,1000,1000,0,num_3,0.26109610000276007,,20,10,2026-03-02_16h16.53.242,2026A_exp2,2022.2.4,59.927032840343244,
1000,1,4.9,0.0,0,0,2,2,54,,,,,59.29068509998615,59.94122479998623,59.94122479998623,60.42567299999064,45,45,60.42567299999064,60.42567299999064,60.42567299999064,60.42567299999064,60.42567299999064,60.42567299999064,60.42567299999064,60.42567299999064,60.42567299999064,60.792137599986745,60.792137599986745,60.792137599986745,60.792137599986745,60.792137599986745,60.792137599986745,60.792137599986745,60.792137599986745,60.792137599986745,0,1,[0.0012402000138536096],[0.3672651000088081],60.792137599986745,60.99445769999875,1000,60.99445769999875,1000,1000,1000,1000,0,num_3,0.15573179998318665,,20,10,2026-03-02_16h16.53.242,2026A_exp2,2022.2.4,59.927032840343244,
1,0,0.0,0.0,1,0,3,3,73,,,,,61.17605049998383,61.8264468999987,61.8264468999987,62.32743249999476,45,315,62.32743249999476,62.32743249999476,62.32743249999476,62.32743249999476,62.32743249999476,62.32743249999476,62.32743249999476,62.32743249999476,62.32743249999476,62.69399559998419,62.69399559998419,62.69399559998419,62.69399559998419,62.69399559998419,62.69399559998419,62.69399559998419,62.69399559998419,62.69399559998419,3,4,"[0.0012758999946527183, 0.2336963999841828, 0.33385439999983646, 0.367301199992653]","[0.21706219998304732, 0.31714229998760857, 0.3505492999975104, 0.36730629997327924]",62.69399559998419,62.893774099997245,0.0,62.893774099997245,0,0.0,0,1,1000,num_1,2.832361300010234,,20,10,2026-03-02_16h16.53.242,2026A_exp2,2022.2.4,59.927032840343244,
1,0,0.0,0.0,0,0,4,4,63,,,,,65.74707839998882,66.39765499997884,66.39765499997884,66.89879809998092,45,45,66.89879809998092,66.89879809998092,66.89879809998092,66.89879809998092,66.89879809998092,66.89879809998092,66.89879809998092,66.89879809998092,66.89879809998092,67.26505929999985,67.26505929999985,67.26505929999985,67.26505929999985,67.26505929999985,67.26505929999985,67.26505929999985,67.26505929999985,67.26505929999985,0,1,[0.0016266999882645905],[0.3668171000026632],67.26505929999985,67.46535739998217,0.0,67.46535739998217,1,0.0,0,0,1000,num_4,0.7324461999814957,,20,10,2026-03-02_16h16.53.242,2026A_exp2,2022.2.4,59.927032840343244,
1000,1,0.0,0.0,0,0,5,5,17,,,,,68.21608009998454,68.86670429998776,68.86670429998776,69.35113629998523,45,315,69.35113629998523,69.35113629998523,69.35113629998523,69.35113629998523,69.35113629998523,69.35113629998523,69.35113629998523,69.35113629998523,69.35113629998523,69.71761899997364,69.71761899997364,69.71761899997364,69.71761899997364,69.71761899997364,69.71761899997364,69.71761899997364,69.71761899997364,69.71761899997364,0,1,[0.0012206000101286918],[0.3673342000111006],69.71761899997364,69.9195052999712,1000,69.9195052999712,1000,1000,1000,1000,0,num_3,0.4143370999954641,,20,10,2026-03-02_16h16.53.242,2026A_exp2,2022.2.4,59.927032840343244,
1,0,0.0,4.9,1,0,6,6,21,,,,,70.35151779997977,71.00230779999401,71.00230779999401,71.50345959997503,315,315,71.50345959997503,71.50345959997503,71.50345959997503,71.50345959997503,71.50345959997503,71.50345959997503,71.50345959997503,71.50345959997503,71.50345959997503,71.86977509999997,71.86977509999997,71.86977509999997,71.86977509999997,71.86977509999997,71.86977509999997,71.86977509999997,71.86977509999997,71.86977509999997,0,1,[0.0011983000149484724],[0.3666232000105083],71.86977509999997,72.07008569999016,4.9,72.07008569999016,1,4.9,1,1,1000,num_4,0.6725961999909487,,20,10,2026-03-02_16h16.53.242,2026A_exp2,2022.2.4,59.927032840343244,
1,0,3.7,3.7,0,0,7,7,13,,,,,72.77059299999382,73.42131159998826,73.42131159998826,73.90576809999766,45,315,73.90576809999766,73.90576809999766,73.90576809999766,73.90576809999766,73.90576809999766,73.90576809999766,73.90576809999766,73.90576809999766,73.90576809999766,74.27229189997888,74.27229189997888,74.27229189997888,74.27229189997888,74.27229189997888,74.27229189997888,74.27229189997888,74.27229189997888,74.27229189997888,0,1,[0.0012492999958340079],[0.36702219999278896],74.27229189997888,74.47249559999909,3.7,74.47249559999909,0,3.7,1,0,1000,num_1,1.1650135999952909,,20,10,2026-03-02_16h16.53.242,2026A_exp2,2022.2.4,59.927032840343244,
1000,1,0.0,0.0,0,0,8,8,80,,,,,75.65673939997214,76.29090699998778,76.29090699998778,76.79201239999384,315,315,76.79201239999384,76.79201239999384,76.79201239999384,76.79201239999384,76.79201239999384,76.79201239999384,76.79201239999384,76.79201239999384,76.79201239999384,77.15831289999187,77.15831289999187,77.15831289999187,77.15831289999187,77.15831289999187,77.15831289999187,77.15831289999187,77.15831289999187,77.15831289999187,0,1,[0.001194899989059195],[0.36728770000627264],77.15831289999187,77.35850579998805,1000,77.35850579998805,1000,1000,1000,1000,1,num_2,0.839062399987597,,20,10,2026-03-02_16h16.53.242,2026A_exp2,2022.2.4,59.927032840343244,
1000,1,0.0,0.0,0,0,9,9,86,,,,,78.22611559997313,78.87689009998576,78.87689009998576,79.3777644999791,45,45,79.3777644999791,79.3777644999791,79.3777644999791,79.3777644999791,79.3777644999791,79.3777644999791,79.3777644999791,79.3777644999791,79.3777644999791,79.72752619997482,79.72752619997482,79.72752619997482,79.72752619997482,79.72752619997482,79.72752619997482,79.72752619997482,79.72752619997482,79.72752619997482,0,1,[0.001209399983054027],[0.3508377999824006],79.72752619997482,79.92998169999919,1000,79.92998169999919,1000,1000,1000,1000,0,num_3,0.7563607999763917,,20,10,2026-03-02_16h16.53.242,2026A_exp2,2022.2.4,59.927032840343244,
0,0,0.0,0.0,1,0,10,10,71,,,,,80.71196859999327,81.36266079999041,81.36266079999041,81.86374489997979,45,315,81.86374489997979,81.86374489997979,81.86374489997979,81.86374489997979,81.86374489997979,81.86374489997979,81.86374489997979,81.86374489997979,81.86374489997979,82.23021719997632,82.23021719997632,82.23021719997632,82.23021719997632,82.23021719997632,82.23021719997632,82.23021719997632,82.23021719997632,82.23021719997632,23,0,,,82.23021719997632,82.4302905999939,0.0,82.4302905999939,1,0.0,0,0,1000,num_4,0.9838725000154227,,20,10,2026-03-02_16h16.53.242,2026A_exp2,2022.2.4,59.927032840343244,
1000,1,0.0,6.1,1,0,11,11,88,,,,,83.43146019999404,84.08202609998989,84.08202609998989,84.56635779998032,45,315,84.56635779998032,84.56635779998032,84.56635779998032,84.56635779998032,84.56635779998032,84.56635779998032,84.56635779998032,84.56635779998032,84.56635779998032,84.93293359997915,84.93293359997915,84.93293359997915,84.93293359997915,84.93293359997915,84.93293359997915,84.93293359997915,84.93293359997915,84.93293359997915,0,1,[0.0012042000016663224],[0.3670910999935586],84.93293359997915,85.13510259997565,1000,85.13510259997565,1000,1000,1000,1000,1,num_2,0.327357000001939,,20,10,2026-03-02_16h16.53.242,2026A_exp2,2022.2.4,59.927032840343244,
0,0,0.0,0.0,1,0,12,12,89,,,,,85.48343939997721,86.13403479999397,86.13403479999397,86.63517789999605,45,315,86.63517789999605,86.63517789999605,86.63517789999605,86.63517789999605,86.63517789999605,86.63517789999605,86.63517789999605,86.63517789999605,86.63517789999605,87.00147769998875,87.00147769998875,87.00147769998875,87.00147769998875,87.00147769998875,87.00147769998875,87.00147769998875,87.00147769998875,87.00147769998875,1,1,[0.017608199996175244],[0.3672495999780949],87.00147769998875,87.20189989998471,0.0,87.20189989998471,1,0.0,0,0,1000,num_4,1.2926971999986563,,20,10,2026-03-02_16h16.53.242,2026A_exp2,2022.2.4,59.927032840343244,
1000,1,0.0,6.1,1,0,13,13,62,,,,,88.5196592999855,89.17464499999187,89.17464499999187,89.66236609997577,315,315,89.66236609997577,89.66236609997577,89.66236609997577,89.66236609997577,89.66236609997577,89.66236609997577,89.66236609997577,89.66236609997577,89.66236609997577,90.02131259997259,90.02131259997259,90.02131259997259,90.02131259997259,90.02131259997259,90.02131259997259,90.02131259997259,90.02131259997259,90.02131259997259,23,0,,,90.02131259997259,90.22378829997615,1000,90.22378829997615,1000,1000,1000,1000,1,num_2,0.22273179999319836,,20,10,2026-03-02_16h16.53.242,2026A_exp2,2022.2.4,59.927032840343244,
1000,1,4.9,6.1,1,0,14,14,28,,,,,90.47169789997861,91.12235819999478,91.12235819999478,91.62342819999321,315,45,91.62342819999321,91.62342819999321,91.62342819999321,91.62342819999321,91.62342819999321,91.62342819999321,91.62342819999321,91.62342819999321,91.62342819999321,91.97307749997708,91.97307749997708,91.97307749997708,91.97307749997708,91.97307749997708,91.97307749997708,91.97307749997708,91.97307749997708,91.97307749997708,22,0,,,91.97307749997708,92.17510069999844,1000,92.19014359998982,1000,1000,1000,1000,1,num_2,0.4478788000124041,,20,10,2026-03-02_16h16.53.242,2026A_exp2,2022.2.4,59.927032840343244,
1000,1,3.7,6.1,0,0,15,15,84,,,,,92.65718729997752,93.30791559998761,93.30791559998761,93.80911589998868,45,45,93.80911589998868,93.80911589998868,93.80911589998868,93.80911589998868,93.80911589998868,93.80911589998868,93.80911589998868,93.80911589998868,93.80911589998868,94.15878259998863,94.15878259998863,94.15878259998863,94.15878259998863,94.15878259998863,94.15878259998863,94.15878259998863,94.15878259998863,94.15878259998863,0,1,[0.0012285999837331474],[0.35044579999521375],94.15878259998863,94.3611252999981,1000,94.3611252999981,1000,1000,1000,1000,1,num_2,0.5883818999864161,,20,10,2026-03-02_16h16.53.242,2026A_exp2,2022.2.4,59.927032840343244,
1000,1,0.0,0.0,0,0,16,16,83,,,,,94.97618839997449,95.62687799998093,95.62687799998093,96.12790149997454,315,315,96.12790149997454,96.12790149997454,96.12790149997454,96.12790149997454,96.12790149997454,96.12790149997454,96.12790149997454,96.12790149997454,96.12790149997454,96.49438819999341,96.49438819999341,96.49438819999341,96.49438819999341,96.49438819999341,96.49438819999341,96.49438819999341,96.49438819999341,96.49438819999341,0,1,[0.001193600008264184],[0.3670847000030335],96.49438819999341,96.69653629997629,1000,96.69653629997629,1000,1000,1000,1000,1,num_2,0.620836500020232,,20,10,2026-03-02_16h16.53.242,2026A_exp2,2022.2.4,59.927032840343244,
1,0,3.7,0.0,1,0,17,17,19,,,,,97.34525669997674,97.99564229999669,97.99564229999669,98.49711509997724,315,315,98.49711509997724,98.49711509997724,98.49711509997724,98.49711509997724,98.49711509997724,98.49711509997724,98.49711509997724,98.49711509997724,98.49711509997724,98.84682539998903,98.84682539998903,98.84682539998903,98.84682539998903,98.84682539998903,98.84682539998903,98.84682539998903,98.84682539998903,98.84682539998903,22,0,,,98.84682539998903,99.04693819998647,0.0,99.04693819998647,1,0.0,0,0,1000,num_4,1.031264299992472,,20,10,2026-03-02_16h16.53.242,2026A_exp2,2022.2.4,59.927032840343244,
1,0,0.0,3.7,1,0,18,18,66,,,,,100.09820799998124,100.74867979998817,100.74867979998817,101.23310279997531,45,315,101.23310279997531,101.23310279997531,101.23310279997531,101.23310279997531,101.23310279997531,101.23310279997531,101.23310279997531,101.23310279997531,101.23310279997531,101.59954699999071,101.59954699999071,101.59954699999071,101.59954699999071,101.59954699999071,101.59954699999071,101.59954699999071,101.59954699999071,101.59954699999071,2,2,"[0.0012632999860215932, 0.08346629998413846]","[0.05006750000757165, 0.3672198999847751]",101.59954699999071,101.79979899997124,3.7,101.79979899997124,1,3.7,1,1,1000,num_4,0.5744501999870408,,20,10,2026-03-02_16h16.53.242,2026A_exp2,2022.2.4,59.927032840343244,
1000,1,3.7,6.1,0,0,19,19,0,,,,,102.40026209998177,103.05099819999305,103.05099819999305,103.53511889997753,315,45,103.53511889997753,103.53511889997753,103.53511889997753,103.53511889997753,103.53511889997753,103.53511889997753,103.53511889997753,103.53511889997753,103.53511889997753,103.90185899997596,103.90185899997596,103.90185899997596,103.90185899997596,103.90185899997596,103.90185899997596,103.90185899997596,103.90185899997596,103.90185899997596,5,3,"[0.0007123999821487814, 0.25104730000020936, 0.3009897999872919]","[0.18382869998458773, 0.28430199998547323, 0.36787819999153726]",103.90185899997596,104.13322319998406,1000,104.13322319998406,1000,1000,1000,1000,1,num_2,0.42435799998929724,,20,10,2026-03-02_16h16.53.242,2026A_exp2,2022.2.4,59.927032840343244,
1,0,6.1,4.9,0,0,20,20,39,,,,,104.58595919999061,105.23654499999247,105.23654499999247,105.72099999999045,45,45,105.72099999999045,105.72099999999045,105.72099999999045,105.72099999999045,105.72099999999045,105.72099999999045,105.72099999999045,105.72099999999045,105.72099999999045,106.08737489997293,106.08737489997293,106.08737489997293,106.08737489997293,106.08737489997293,106.08737489997293,106.08737489997293,106.08737489997293,106.08737489997293,0,1,[0.0012390000047162175],[0.36717729998053983],106.08737489997293,106.28732399997534,6.1,106.28732399997534,1,6.1,1,1,1000,num_4,0.8703184999758378,,20,10,2026-03-02_16h16.53.242,2026A_exp2,2022.2.4,59.927032840343244,
1000,1,3.7,4.9,1,0,21,21,46,,,,,107.18845129999681,107.83914719999302,107.83914719999302,108.32321729999967,315,45,108.32321729999967,108.32321729999967,108.32321729999967,108.32321729999967,108.32321729999967,108.32321729999967,108.32321729999967,108.32321729999967,108.32321729999967,108.69000819997746,108.69000819997746,108.69000819997746,108.69000819997746,108.69000819997746,108.69000819997746,108.69000819997746,108.69000819997746,108.69000819997746,0,1,[0.0012235000031068921],[0.3671352000092156],108.69000819997746,108.89182619997882,1000,108.89182619997882,1000,1000,1000,1000,1,num_2,0.298300599999493,,20,10,2026-03-02_16h16.53.242,2026A_exp2,2022.2.4,59.927032840343244,
1000,1,0.0,4.9,1,0,22,22,59,,,,,109.2071116999723,109.8576748999767,109.8576748999767,110.35885219997726,45,45,110.35885219997726,110.35885219997726,110.35885219997726,110.35885219997726,110.35885219997726,110.35885219997726,110.35885219997726,110.35885219997726,110.35885219997726,110.70861629999126,110.70861629999126,110.70861629999126,110.70861629999126,110.70861629999126,110.70861629999126,110.70861629999126,110.70861629999126,110.70861629999126,22,0,,,110.70861629999126,110.91072279997752,1000,110.91072279997752,1000,1000,1000,1000,1,num_2,0.31044329999713227,,20,10,2026-03-02_16h16.53.242,2026A_exp2,2022.2.4,59.927032840343244,
1,0,4.9,0.0,0,0,23,23,58,,,,,111.24244919998455,111.89318979997188,111.89318979997188,112.39415279999957,315,315,112.39415279999957,112.39415279999957,112.39415279999957,112.39415279999957,112.39415279999957,112.39415279999957,112.39415279999957,112.39415279999957,112.39415279999957,112.74403499998152,112.74403499998152,112.74403499998152,112.74403499998152,112.74403499998152,112.74403499998152,112.74403499998152,112.74403499998152,112.74403499998152,0,1,[0.0011978999827988446],[0.3504854000057094],112.74403499998152,112.94409669999732,4.9,112.94409669999732,1,4.9,1,1,1000,num_4,0.8141770999936853,,20,10,2026-03-02_16h16.53.242,2026A_exp2,2022.2.4,59.927032840343244,
1000,1,4.9,6.1,0,0,24,24,20,,,,,113.77817239999422,114.42902919999324,114.42902919999324,114.91340159997344,45,45,114.91340159997344,114.91340159997344,114.91340159997344,114.91340159997344,114.91340159997344,114.91340159997344,114.91340159997344,114.91340159997344,114.91340159997344,115.27980459999526,115.27980459999526,115.27980459999526,115.27980459999526,115.27980459999526,115.27980459999526,115.27980459999526,115.27980459999526,115.27980459999526,23,0,,,115.27980459999526,115.48176719999174,1000,115.48176719999174,1000,1000,1000,1000,1,num_2,0.3160978000087198,,20,10,2026-03-02_16h16.53.242,2026A_exp2,2022.2.4,59.927032840343244,
1,0,3.7,0.0,0,0,25,25,3,,,,,115.81369369997992,116.46433459999389,116.46433459999389,116.96557589998702,45,315,116.96557589998702,116.96557589998702,116.96557589998702,116.96557589998702,116.96557589998702,116.96557589998702,116.96557589998702,116.96557589998702,116.96557589998702,117.33196829998633,117.33196829998633,117.33196829998633,117.33196829998633,117.33196829998633,117.33196829998633,117.33196829998633,117.33196829998633,117.33196829998633,0,1,[0.0011961999989580363],[0.3672427000128664],117.33196829998633,117.53199249997851,3.7,117.53199249997851,0,3.7,1,0,1000,num_1,1.570181799994316,,20,10,2026-03-02_16h16.53.242,2026A_exp2,2022.2.4,59.927032840343244,
1,0,6.1,0.0,0,0,26,26,70,,,,,119.1335720999923,119.78436989997863,119.78436989997863,120.2688851999992,45,315,120.2688851999992,120.2688851999992,120.2688851999992,120.2688851999992,120.2688851999992,120.2688851999992,120.2688851999992,120.2688851999992,120.2688851999992,120.63522319999174,120.63522319999174,120.63522319999174,120.63522319999174,120.63522319999174,120.63522319999174,120.63522319999174,120.63522319999174,120.63522319999174,1,2,"[0.0010501999931875616, 0.31738719998975284]","[0.3006868999800645, 0.3673065999755636]",120.63522319999174,120.83549399999902,6.1,120.83549399999902,1,6.1,1,1,1000,num_4,0.48987879999913275,,20,10,2026-03-02_16h16.53.242,2026A_exp2,2022.2.4,59.927032840343244,
0,0,6.1,3.7,1,0,27,27,49,,,,,121.35254859999986,122.00662809997448,122.00662809997448,122.49572229999467,45,45,122.49572229999467,122.49572229999467,122.49572229999467,122.49572229999467,122.49572229999467,122.49572229999467,122.49572229999467,122.49572229999467,122.49572229999467,122.85392319998937,122.85392319998937,122.85392319998937,122.85392319998937,122.85392319998937,122.85392319998937,122.85392319998937,122.85392319998937,122.85392319998937,1,1,[0.025206199992680922],[0.36571779998485],122.85392319998937,123.05479139997624,6.1,123.05479139997624,1,6.1,1,1,1000,num_4,0.7345664000022225,,20,10,2026-03-02_16h16.53.242,2026A_exp2,2022.2.4,59.927032840343244,
1,0,6.1,4.9,0,0,28,28,24,,,,,123.82156799998484,124.45578979997663,124.45578979997663,124.95685149999917,315,315,124.95685149999917,124.95685149999917,124.95685149999917,124.95685149999917,124.95685149999917,124.95685149999917,124.95685149999917,124.95685149999917,124.95685149999917,125.32320999997319,125.32320999997319,125.32320999997319,125.32320999997319,125.32320999997319,125.32320999997319,125.32320999997319,125.32320999997319,125.32320999997319,0,1,[0.0011045999999623746],[0.3675580999988597],125.32320999997319,125.52333599998383,6.1,125.52333599998383,1,6.1,1,1,1000,num_4,0.5706469000142533,,20,10,2026-03-02_16h16.53.242,2026A_exp2,2022.2.4,59.927032840343244,
1000,1,0.0,3.7,0,0,29,29,78,,,,,126.12395559999277,126.77478979999432,126.77478979999432,127.25905159997637,45,315,127.25905159997637,127.25905159997637,127.25905159997637,127.25905159997637,127.25905159997637,127.25905159997637,127.25905159997637,127.25905159997637,127.25905159997637,127.62559949999559,127.62559949999559,127.62559949999559,127.62559949999559,127.62559949999559,127.62559949999559,127.62559949999559,127.62559949999559,127.62559949999559,0,1,[0.0010577999928500503],[0.3673242999939248],127.62559949999559,127.82783669998753,1000,127.82783669998753,1000,1000,1000,1000,1,num_2,0.4428087999986019,,20,10,2026-03-02_16h16.53.242,2026A_exp2,2022.2.4,59.927032840343244,
1000,1,6.1,0.0,1,0,30,30,75,,,,,128.29276109999046,128.943591999996,128.943591999996,129.44479459998547,315,45,129.44479459998547,129.44479459998547,129.44479459998547,129.44479459998547,129.44479459998547,129.44479459998547,129.44479459998547,129.44479459998547,129.44479459998547,129.79427409998607,129.79427409998607,129.79427409998607,129.79427409998607,129.79427409998607,129.79427409998607,129.79427409998607,129.79427409998607,129.79427409998607,0,1,[0.0012814999790862203],[0.35035249998327345],129.79427409998607,129.99649369998951,1000,129.99649369998951,1000,1000,1000,1000,0,num_3,0.3367797000100836,,20,10,2026-03-02_16h16.53.242,2026A_exp2,2022.2.4,59.927032840343244,
1000,1,3.7,4.9,1,0,31,31,43,,,,,130.36155559998588,131.01235529998667,131.01235529998667,131.51340679998975,315,315,131.51340679998975,131.51340679998975,131.51340679998975,131.51340679998975,131.51340679998975,131.51340679998975,131.51340679998975,131.51340679998975,131.51340679998975,131.87986079999246,131.87986079999246,131.87986079999246,131.87986079999246,131.87986079999246,131.87986079999246,131.87986079999246,131.87986079999246,131.87986079999246,13,3,"[0.0012310000020079315, 0.1332713000010699, 0.2335800000000745]","[0.11659450002480298, 0.16688680002698675, 0.2502072000061162]",131.87986079999246,132.08169769999222,1000,132.08169769999222,1000,1000,1000,1000,1,num_2,0.5959801999852061,,20,10,2026-03-02_16h16.53.242,2026A_exp2,2022.2.4,59.927032840343244,
1000,1,0.0,0.0,0,0,32,32,81,,,,,132.69720059999963,133.34784449997824,133.34784449997824,133.8489653999859,45,315,133.8489653999859,133.8489653999859,133.8489653999859,133.8489653999859,133.8489653999859,133.8489653999859,133.8489653999859,133.8489653999859,133.8489653999859,134.21537429999444,134.21537429999444,134.21537429999444,134.21537429999444,134.21537429999444,134.21537429999444,134.21537429999444,134.21537429999444,134.21537429999444,0,1,[0.0012325000134296715],[0.3671387000067625],134.21537429999444,134.4174181999988,1000,134.4174181999988,1000,1000,1000,1000,1,num_2,0.5723657000053208,,20,10,2026-03-02_16h16.53.242,2026A_exp2,2022.2.4,59.927032840343244,
1,0,3.7,6.1,0,0,33,33,55,,,,,135.0160699999833,135.66689599998062,135.66689599998062,136.16805019997992,315,45,136.16805019997992,136.16805019997992,136.16805019997992,136.16805019997992,136.16805019997992,136.16805019997992,136.16805019997992,136.16805019997992,136.16805019997992,136.51775469997665,136.51775469997665,136.51775469997665,136.51775469997665,136.51775469997665,136.51775469997665,136.51775469997665,136.51775469997665,136.51775469997665,1,2,"[0.0007080999785102904, 0.08387109998147935]","[0.06721519998973235, 0.35083769998163916]",136.51775469997665,136.730951799982,3.7,136.730951799982,1,3.7,1,1,1000,num_4,0.6910608999896795,,20,10,2026-03-02_16h16.53.242,2026A_exp2,2022.2.4,59.927032840343244,
1000,1,3.7,0.0,0,0,34,34,2,,,,,137.45198439998785,138.1024664999859,138.1024664999859,138.5869247999799,315,315,138.5869247999799,138.5869247999799,138.5869247999799,138.5869247999799,138.5869247999799,138.5869247999799,138.5869247999799,138.5869247999799,138.5869247999799,138.95358539998415,138.95358539998415,138.95358539998415,138.95358539998415,138.95358539998415,138.95358539998415,138.95358539998415,138.95358539998415,138.95358539998415,23,0,,,138.95358539998415,139.15573969998513,1000,139.15573969998513,1000,1000,1000,1000,1,num_2,0.6664569000131451,,20,10,2026-03-02_16h16.53.242,2026A_exp2,2022.2.4,59.927032840343244,
1,0,0.0,6.1,0,0,35,35,34,,,,,139.83789979998255,140.48846039999626,140.48846039999626,140.97276369997417,45,315,140.97276369997417,140.97276369997417,140.97276369997417,140.97276369997417,140.97276369997417,140.97276369997417,140.97276369997417,140.97276369997417,140.97276369997417,141.33927989998483,141.33927989998483,141.33927989998483,141.33927989998483,141.33927989998483,141.33927989998483,141.33927989998483,141.33927989998483,141.33927989998483,15,1,[0.2500775000080466],[0.36717050001607276],141.33927989998483,141.53943899998558,0.0,141.53943899998558,0,0.0,0,1,1000,num_1,0.8110127000254579,,20,10,2026-03-02_16h16.53.242,2026A_exp2,2022.2.4,59.927032840343244,
1,0,0.0,4.9,1,0,36,36,53,,,,,142.37353879999137,143.00774719999754,143.00774719999754,143.50856839999324,315,315,143.50856839999324,143.50856839999324,143.50856839999324,143.50856839999324,143.50856839999324,143.50856839999324,143.50856839999324,143.50856839999324,143.50856839999324,143.87517889999435,143.87517889999435,143.87517889999435,143.87517889999435,143.87517889999435,143.87517889999435,143.87517889999435,143.87517889999435,143.87517889999435,0,1,[0.0017027999856509268],[0.36685630001011305],143.87517889999435,144.0753128999786,4.9,144.0753128999786,1,4.9,1,1,1000,num_4,0.6019929999893066,,20,10,2026-03-02_16h16.53.242,2026A_exp2,2022.2.4,59.927032840343244,
1,0,3.7,0.0,1,0,37,37,50,,,,,144.70897389997845,145.36000389998662,145.36000389998662,145.84435819997452,45,45,145.84435819997452,145.84435819997452,145.84435819997452,145.84435819997452,145.84435819997452,145.84435819997452,145.84435819997452,145.84435819997452,145.84435819997452,146.2107224999927,146.2107224999927,146.2107224999927,146.2107224999927,146.2107224999927,146.2107224999927,146.2107224999927,146.2107224999927,146.2107224999927,0,1,[0.0011956999951507896],[0.3668144999828655],146.2107224999927,146.4110927999718,0.0,146.4110927999718,0,0.0,0,1,1000,num_1,0.6670311999914702,,20,10,2026-03-02_16h16.53.242,2026A_exp2,2022.2.4,59.927032840343244,
1000,1,0.0,0.0,0,0,38,38,18,,,,,147.09487269999227,147.7458714999957,147.7458714999957,148.2301481999748,45,315,148.2301481999748,148.2301481999748,148.2301481999748,148.2301481999748,148.2301481999748,148.2301481999748,148.2301481999748,148.2301481999748,148.2301481999748,148.59665079999832,148.59665079999832,148.59665079999832,148.59665079999832,148.59665079999832,148.59665079999832,148.59665079999832,148.59665079999832,148.59665079999832,21,1,[0.0015045000181999058],[0.033178500016219914],148.59665079999832,148.79788899997948,1000,148.79788899997948,1000,1000,1000,1000,1,num_2,0.8484272999921814,,20,10,2026-03-02_16h16.53.242,2026A_exp2,2022.2.4,59.927032840343244,
1,0,0.0,0.0,1,0,39,39,6,,,,,149.66417279999587,150.31490479997592,150.31490479997592,150.8158540999866,45,45,150.8158540999866,150.8158540999866,150.8158540999866,150.8158540999866,150.8158540999866,150.8158540999866,150.8158540999866,150.8158540999866,150.8158540999866,151.16574539997964,151.16574539997964,151.16574539997964,151.16574539997964,151.16574539997964,151.16574539997964,151.16574539997964,151.16574539997964,151.16574539997964,0,1,[0.0011962999997194856],[0.35064129999955185],151.16574539997964,151.3659905999957,0.0,151.3659905999957,1,0.0,0,0,1000,num_4,1.5433085999975447,,20,10,2026-03-02_16h16.53.242,2026A_exp2,2022.2.4,59.927032840343244,
0,0,0.0,3.7,1,0,40,40,10,,,,,152.93432759999996,153.56823679999798,153.56823679999798,154.06916289997753,315,45,154.06916289997753,154.06916289997753,154.06916289997753,154.06916289997753,154.06916289997753,154.06916289997753,154.06916289997753,154.06916289997753,154.06916289997753,154.43573219998507,154.43573219998507,154.43573219998507,154.43573219998507,154.43573219998507,154.43573219998507,154.43573219998507,154.43573219998507,154.43573219998507,0,1,[0.0013293999945744872],[0.36722919999738224],154.43573219998507,154.63609629997518,0.0,154.63609629997518,0,0.0,0,1,1000,num_1,0.6574365000124089,,20,10,2026-03-02_16h16.53.242,2026A_exp2,2022.2.4,59.927032840343244,
1000,1,0.0,4.9,1,0,41,41,31,,,,,155.31983299998683,155.97065509998356,155.97065509998356,156.45487779998803,315,45,156.45487779998803,156.45487779998803,156.45487779998803,156.45487779998803,156.45487779998803,156.45487779998803,156.45487779998803,156.45487779998803,156.45487779998803,156.8213760999788,156.8213760999788,156.8213760999788,156.8213760999788,156.8213760999788,156.8213760999788,156.8213760999788,156.8213760999788,156.8213760999788,23,0,,,156.8213760999788,157.0235401999962,1000,157.0235401999962,1000,1000,1000,1000,1,num_2,0.5104423000011593,,20,10,2026-03-02_16h16.53.242,2026A_exp2,2022.2.4,59.927032840343244,
1000,1,3.7,0.0,1,0,42,42,48,,,,,157.5554408999742,158.20608989999164,158.20608989999164,158.7072878999752,45,315,158.7072878999752,158.7072878999752,158.7072878999752,158.7072878999752,158.7072878999752,158.7072878999752,158.7072878999752,158.7072878999752,158.7072878999752,159.056760699983,159.056760699983,159.056760699983,159.056760699983,159.056760699983,159.056760699983,159.056760699983,159.056760699983,159.056760699983,1,1,[0.001239599980181083],[0.3504296999890357],159.056760699983,159.25885949999793,1000,159.25885949999793,1000,1000,1000,1000,0,num_3,0.30680170000414364,,20,10,2026-03-02_16h16.53.242,2026A_exp2,2022.2.4,59.927032840343244,
1,0,0.0,4.9,0,0,43,43,4,,,,,159.59074139999575,160.24152949999552,160.24152949999552,160.74255529997754,315,45,160.74255529997754,160.74255529997754,160.74255529997754,160.74255529997754,160.74255529997754,160.74255529997754,160.74255529997754,160.74255529997754,160.74255529997754,161.1090789999871,161.1090789999871,161.1090789999871,161.1090789999871,161.1090789999871,161.1090789999871,161.1090789999871,161.1090789999871,161.1090789999871,23,0,,,161.1090789999871,161.30930199997965,0.0,161.30930199997965,0,0.0,0,1,1000,num_1,0.624199799989583,,20,10,2026-03-02_16h16.53.242,2026A_exp2,2022.2.4,59.927032840343244,
1000,1,0.0,4.9,1,0,44,44,79,,,,,161.959795999981,162.61050939999404,162.61050939999404,163.0950148999982,45,315,163.0950148999982,163.0950148999982,163.0950148999982,163.0950148999982,163.0950148999982,163.0950148999982,163.0950148999982,163.0950148999982,163.0950148999982,163.46115089999512,163.46115089999512,163.46115089999512,163.46115089999512,163.46115089999512,163.46115089999512,163.46115089999512,163.46115089999512,163.46115089999512,23,0,,,163.46115089999512,163.66151939998963,1000,163.66151939998963,1000,1000,1000,1000,1,num_2,0.2250931999878958,,20,10,2026-03-02_16h16.53.242,2026A_exp2,2022.2.4,59.927032840343244,
1,0,0.0,0.0,0,0,45,45,1,,,,,163.91181819999474,164.56246599997394,164.56246599997394,165.0468961999868,45,45,165.0468961999868,165.0468961999868,165.0468961999868,165.0468961999868,165.0468961999868,165.0468961999868,165.0468961999868,165.0468961999868,165.0468961999868,165.4133680999803,165.4133680999803,165.4133680999803,165.4133680999803,165.4133680999803,165.4133680999803,165.4133680999803,165.4133680999803,165.4133680999803,0,1,[0.0012166000087745488],[0.36706600000616163],165.4133680999803,165.61339649997535,0.0,165.61339649997535,1,0.0,0,0,1000,num_4,1.4489569999859668,,20,10,2026-03-02_16h16.53.242,2026A_exp2,2022.2.4,59.927032840343244,
1000,1,6.1,0.0,0,0,46,46,14,,,,,167.08153869997477,167.73232269997243,167.73232269997243,168.2166260999802,315,45,168.2166260999802,168.2166260999802,168.2166260999802,168.2166260999802,168.2166260999802,168.2166260999802,168.2166260999802,168.2166260999802,168.2166260999802,168.58314129998325,168.58314129998325,168.58314129998325,168.58314129998325,168.58314129998325,168.58314129998325,168.58314129998325,168.58314129998325,168.58314129998325,23,0,,,168.58314129998325,168.78523659997154,1000,168.78523659997154,1000,1000,1000,1000,0,num_3,0.3733617000107188,,20,10,2026-03-02_16h16.53.242,2026A_exp2,2022.2.4,59.927032840343244,
1,0,0.0,0.0,1,0,47,47,87,,,,,169.18369819998043,169.83449079998536,169.83449079998536,170.33561319997534,315,315,170.33561319997534,170.33561319997534,170.33561319997534,170.33561319997534,170.33561319997534,170.33561319997534,170.33561319997534,170.33561319997534,170.33561319997534,170.7019870999793,170.7019870999793,170.7019870999793,170.7019870999793,170.7019870999793,170.7019870999793,170.7019870999793,170.7019870999793,170.7019870999793,23,0,,,170.7019870999793,170.9020223999978,0.0,170.9020223999978,1,0.0,0,0,1000,num_4,0.6313070000032894,,20,10,2026-03-02_16h16.53.242,2026A_exp2,2022.2.4,59.927032840343244,
1,0,0.0,0.0,0,0,48,48,29,,,,,171.5527151999995,172.2034461000003,172.2034461000003,172.68796089998796,45,45,172.68796089998796,172.68796089998796,172.68796089998796,172.68796089998796,172.68796089998796,172.68796089998796,172.68796089998796,172.68796089998796,172.68796089998796,173.05434839997906,173.05434839997906,173.05434839997906,173.05434839997906,173.05434839997906,173.05434839997906,173.05434839997906,173.05434839997906,173.05434839997906,0,1,[0.001049999991664663],[0.36737900000298396],173.05434839997906,173.25446189998183,0.0,173.25446189998183,0,0.0,0,1,1000,num_1,0.6390573999960907,,20,10,2026-03-02_16h16.53.242,2026A_exp2,2022.2.4,59.927032840343244,
1000,1,0.0,0.0,0,0,49,49,64,,,,,173.92183869998553,174.55580329999793,174.55580329999793,175.05695619998733,45,315,175.05695619998733,175.05695619998733,175.05695619998733,175.05695619998733,175.05695619998733,175.05695619998733,175.05695619998733,175.05695619998733,175.05695619998733,175.42331899999408,175.42331899999408,175.42331899999408,175.42331899999408,175.42331899999408,175.42331899999408,175.42331899999408,175.42331899999408,175.42331899999408,23,0,,,175.42331899999408,175.62528259999817,1000,175.62528259999817,1000,1000,1000,1000,1,num_2,0.4763088000181597,,20,10,2026-03-02_16h16.53.242,2026A_exp2,2022.2.4,59.927032840343244,
1000,1,4.9,0.0,1,0,50,50,22,,,,,176.12393799997517,176.7747471999901,176.7747471999901,177.27538819998153,45,315,177.27538819998153,177.27538819998153,177.27538819998153,177.27538819998153,177.27538819998153,177.27538819998153,177.27538819998153,177.27538819998153,177.27538819998153,177.6422756999964,177.6422756999964,177.6422756999964,177.6422756999964,177.6422756999964,177.6422756999964,177.6422756999964,177.6422756999964,177.6422756999964,23,0,,,177.6422756999964,177.84454199997708,1000,177.84454199997708,1000,1000,1000,1000,0,num_3,0.3381959999969695,,20,10,2026-03-02_16h16.53.242,2026A_exp2,2022.2.4,59.927032840343244,
1000,1,4.9,0.0,0,0,51,51,26,,,,,178.20935809999355,178.86024089998682,178.86024089998682,179.36109209997812,45,45,179.36109209997812,179.36109209997812,179.36109209997812,179.36109209997812,179.36109209997812,179.36109209997812,179.36109209997812,179.36109209997812,179.36109209997812,179.72749769999064,179.72749769999064,179.72749769999064,179.72749769999064,179.72749769999064,179.72749769999064,179.72749769999064,179.72749769999064,179.72749769999064,0,1,[0.0007236000092234462],[0.36763470000005327],179.72749769999064,179.92964749998646,1000,179.92964749998646,1000,1000,1000,1000,0,num_3,0.3410380999848712,,20,10,2026-03-02_16h16.53.242,2026A_exp2,2022.2.4,59.927032840343244,
1000,1,6.1,0.0,1,0,52,52,69,,,,,180.29485859998385,180.94560349997482,180.94560349997482,181.44671439999365,315,45,181.44671439999365,181.44671439999365,181.44671439999365,181.44671439999365,181.44671439999365,181.44671439999365,181.44671439999365,181.44671439999365,181.44671439999365,181.79638019998674,181.79638019998674,181.79638019998674,181.79638019998674,181.79638019998674,181.79638019998674,181.79638019998674,181.79638019998674,181.79638019998674,22,0,,,181.79638019998674,181.99845939999796,1000,182.01336309997714,1000,1000,1000,1000,0,num_3,0.23247600000468083,,20,10,2026-03-02_16h16.53.242,2026A_exp2,2022.2.4,59.927032840343244,
1000,1,0.0,0.0,1,0,53,53,23,,,,,182.26342699999805,182.91414359997725,182.91414359997725,183.41518579999683,315,45,183.41518579999683,183.41518579999683,183.41518579999683,183.41518579999683,183.41518579999683,183.41518579999683,183.41518579999683,183.41518579999683,183.41518579999683,183.78161029997864,183.78161029997864,183.78161029997864,183.78161029997864,183.78161029997864,183.78161029997864,183.78161029997864,183.78161029997864,183.78161029997864,23,0,,,183.78161029997864,183.98233499997878,1000,183.98233499997878,1000,1000,1000,1000,1,num_2,0.366899899992859,,20,10,2026-03-02_16h16.53.242,2026A_exp2,2022.2.4,59.927032840343244,
1000,1,0.0,4.9,1,0,54,54,76,,,,,184.36556359997485,185.01604949997272,185.01604949997272,185.5173408999981,45,45,185.5173408999981,185.5173408999981,185.5173408999981,185.5173408999981,185.5173408999981,185.5173408999981,185.5173408999981,185.5173408999981,185.5173408999981,185.88383609999437,185.88383609999437,185.88383609999437,185.88383609999437,185.88383609999437,185.88383609999437,185.88383609999437,185.88383609999437,185.88383609999437,10,3,"[0.08346940000774339, 0.2671191999979783, 0.367225399997551]","[0.20014319999609143, 0.35041050001746044, 0.36723000000347383]",185.88383609999437,186.08600019998266,1000,186.08600019998266,1000,1000,1000,1000,1,num_2,0.37599780000164174,,20,10,2026-03-02_16h16.53.242,2026A_exp2,2022.2.4,59.927032840343244,
1000,1,3.7,0.0,0,0,55,55,45,,,,,186.48455679998733,187.135116999998,187.135116999998,187.61941139999544,315,45,187.61941139999544,187.61941139999544,187.61941139999544,187.61941139999544,187.61941139999544,187.61941139999544,187.61941139999544,187.61941139999544,187.61941139999544,187.98590669999248,187.98590669999248,187.98590669999248,187.98590669999248,187.98590669999248,187.98590669999248,187.98590669999248,187.98590669999248,187.98590669999248,1,2,"[0.0010777999996207654, 0.15048850001767278]","[0.13385119999293238, 0.3673949000076391]",187.98590669999248,188.18818939998164,1000,188.18818939998164,1000,1000,1000,1000,0,num_3,0.697803599992767,,20,10,2026-03-02_16h16.53.242,2026A_exp2,2022.2.4,59.927032840343244,
1000,1,0.0,6.1,0,0,56,56,9,,,,,188.90340149999247,189.55415369998082,189.55415369998082,190.05520089998026,45,315,190.05520089998026,190.05520089998026,190.05520089998026,190.05520089998026,190.05520089998026,190.05520089998026,190.05520089998026,190.05520089998026,190.05520089998026,190.4215939999849,190.4215939999849,190.4215939999849,190.4215939999849,190.4215939999849,190.4215939999849,190.4215939999849,190.4215939999849,190.4215939999849,22,1,[0.06695850001415238],[0.08347559999674559],190.4215939999849,190.62407689998508,1000,190.62407689998508,1000,1000,1000,1000,1,num_2,0.30124299999442883,,20,10,2026-03-02_16h16.53.242,2026A_exp2,2022.2.4,59.927032840343244,
1,0,0.0,6.1,1,0,57,57,40,,,,,190.9554229999776,191.6162415999861,191.6162415999861,192.11245529999724,45,45,192.11245529999724,192.11245529999724,192.11245529999724,192.11245529999724,192.11245529999724,192.11245529999724,192.11245529999724,192.11245529999724,192.11245529999724,192.45707669999683,192.45707669999683,192.45707669999683,192.45707669999683,192.45707669999683,192.45707669999683,192.45707669999683,192.45707669999683,192.45707669999683,22,0,,,192.45707669999683,192.65730289998464,6.1,192.67398729998968,1,6.1,1,1,1000,num_4,0.6437750999757554,,20,10,2026-03-02_16h16.53.242,2026A_exp2,2022.2.4,59.927032840343244,
1,0,4.9,0.0,1,0,58,58,38,,,,,193.34124029998202,193.99155379997683,193.99155379997683,194.47633729997324,45,45,194.47633729997324,194.47633729997324,194.47633729997324,194.47633729997324,194.47633729997324,194.47633729997324,194.47633729997324,194.47633729997324,194.47633729997324,194.84269859999768,194.84269859999768,194.84269859999768,194.84269859999768,194.84269859999768,194.84269859999768,194.84269859999768,194.84269859999768,194.84269859999768,0,1,[0.001301399985095486],[0.36721379999653436],194.84269859999768,195.04299559997162,0.0,195.04299559997162,0,0.0,0,1,1000,num_1,0.5788300999847706,,20,10,2026-03-02_16h16.53.242,2026A_exp2,2022.2.4,59.927032840343244,
1000,1,0.0,0.0,1,0,59,59,33,,,,,195.64361759999883,196.2775884999719,196.2775884999719,196.77857159997802,315,315,196.77857159997802,196.77857159997802,196.77857159997802,196.77857159997802,196.77857159997802,196.77857159997802,196.77857159997802,196.77857159997802,196.77857159997802,197.14515799999936,197.14515799999936,197.14515799999936,197.14515799999936,197.14515799999936,197.14515799999936,197.14515799999936,197.14515799999936,197.14515799999936,21,2,"[0.11676099998294376, 0.15011749998666346]","[0.1336388000054285, 0.1669370000017807]",197.14515799999936,197.34708929999033,1000,197.34708929999033,1000,1000,1000,1000,1,num_2,0.4991932999982964,,20,10,2026-03-02_16h16.53.242,2026A_exp2,2022.2.4,59.927032840343244,
1000,1,6.1,0.0,1,0,60,60,68,,,,,197.8622724999732,198.51311649999116,198.51311649999116,199.01406069999211,315,315,199.01406069999211,199.01406069999211,199.01406069999211,199.01406069999211,199.01406069999211,199.01406069999211,199.01406069999211,199.01406069999211,199.01406069999211,199.38059019998764,199.38059019998764,199.38059019998764,199.38059019998764,199.38059019998764,199.38059019998764,199.38059019998764,199.38059019998764,199.38059019998764,23,0,,,199.38059019998764,199.58091709998553,1000,199.58091709998553,1000,1000,1000,1000,0,num_3,0.19256289998884313,,20,10,2026-03-02_16h16.53.242,2026A_exp2,2022.2.4,59.927032840343244,
0,0,0.0,6.1,0,0,61,61,7,,,,,199.79769449998275,200.4484471999749,200.4484471999749,200.9495899999747,315,315,200.9495899999747,200.9495899999747,200.9495899999747,200.9495899999747,200.9495899999747,200.9495899999747,200.9495899999747,200.9495899999747,200.9495899999747,201.3158778999932,201.3158778999932,201.3158778999932,201.3158778999932,201.3158778999932,201.3158778999932,201.3158778999932,201.3158778999932,201.3158778999932,23,0,,,201.3158778999932,201.5160184999986,6.1,201.5160184999986,1,6.1,1,1,1000,num_4,0.6659762000199407,,20,10,2026-03-02_16h16.53.242,2026A_exp2,2022.2.4,59.927032840343244,
1,0,0.0,3.7,1,0,62,62,41,,,,,202.19994589997805,202.85074989998247,202.85074989998247,203.33526979997987,315,45,203.33526979997987,203.33526979997987,203.33526979997987,203.33526979997987,203.33526979997987,203.33526979997987,203.33526979997987,203.33526979997987,203.33526979997987,203.7013456999848,203.7013456999848,203.7013456999848,203.7013456999848,203.7013456999848,203.7013456999848,203.7013456999848,203.7013456999848,203.7013456999848,1,2,"[0.0012184999941382557, 0.06671470002038404]","[0.050178200006484985, 0.36692590001621284]",203.7013456999848,203.90175569997518,3.7,203.90175569997518,1,3.7,1,1,1000,num_4,0.8880916000052821,,20,10,2026-03-02_16h16.53.242,2026A_exp2,2022.2.4,59.927032840343244,
1000,1,6.1,0.0,1,0,63,63,16,,,,,204.81927929999074,205.47006599997985,205.47006599997985,205.9545373999863,45,315,205.9545373999863,205.9545373999863,205.9545373999863,205.9545373999863,205.9545373999863,205.9545373999863,205.9545373999863,205.9545373999863,205.9545373999863,206.32092399999965,206.32092399999965,206.32092399999965,206.32092399999965,206.32092399999965,206.32092399999965,206.32092399999965,206.32092399999965,206.32092399999965,23,0,,,206.32092399999965,206.52320369999507,1000,206.52320369999507,1000,1000,1000,1000,0,num_3,0.10716270000557415,,20,10,2026-03-02_16h16.53.242,2026A_exp2,2022.2.4,59.927032840343244,
1,0,0.0,3.7,0,0,64,64,35,,,,,206.65471639999305,207.28859399998328,207.28859399998328,207.78964969998924,45,45,207.78964969998924,207.78964969998924,207.78964969998924,207.78964969998924,207.78964969998924,207.78964969998924,207.78964969998924,207.78964969998924,207.78964969998924,208.15611489998992,208.15611489998992,208.15611489998992,208.15611489998992,208.15611489998992,208.15611489998992,208.15611489998992,208.15611489998992,208.15611489998992,0,1,[0.0011884999985340983],[0.3672266000066884],208.15611489998992,208.3563271999883,0.0,208.3563271999883,0,0.0,0,1,1000,num_1,0.9217019000207074,,20,10,2026-03-02_16h16.53.242,2026A_exp2,2022.2.4,59.927032840343244,
1000,1,4.9,3.7,0,0,65,65,32,,,,,209.30714879999869,209.9580309999874,209.9580309999874,210.44236519999686,315,45,210.44236519999686,210.44236519999686,210.44236519999686,210.44236519999686,210.44236519999686,210.44236519999686,210.44236519999686,210.44236519999686,210.44236519999686,210.80878919997485,210.80878919997485,210.80878919997485,210.80878919997485,210.80878919997485,210.80878919997485,210.80878919997485,210.80878919997485,210.80878919997485,16,5,"[0.06706880001001991, 0.11704159999499097, 0.20047459998750128, 0.2506211999861989, 0.2838060999929439]","[0.10019209998426959, 0.1501511000096798, 0.21720909999567084, 0.26711889999569394, 0.3005894999951124]",210.80878919997485,211.01064239998232,1000,211.01064239998232,1000,1000,1000,1000,0,num_3,0.370937400002731,,20,10,2026-03-02_16h16.53.242,2026A_exp2,2022.2.4,59.927032840343244,
1000,1,3.7,4.9,1,0,66,66,44,,,,,211.40929809998488,212.06004099998972,212.06004099998972,212.56102689998806,45,45,212.56102689998806,212.56102689998806,212.56102689998806,212.56102689998806,212.56102689998806,212.56102689998806,212.56102689998806,212.56102689998806,212.56102689998806,212.9275547999714,212.9275547999714,212.9275547999714,212.9275547999714,212.9275547999714,212.9275547999714,212.9275547999714,212.9275547999714,212.9275547999714,6,4,"[0.0012593999854288995, 0.13381529998150654, 0.233524999988731, 0.2837197000044398]","[0.0834389999799896, 0.2169487999926787, 0.26692460000049323, 0.36711900000227615]",212.9275547999714,213.12950679997448,1000,213.12950679997448,1000,1000,1000,1000,1,num_2,0.38918569998349994,,20,10,2026-03-02_16h16.53.242,2026A_exp2,2022.2.4,59.927032840343244,
1000,1,0.0,0.0,0,0,67,67,15,,,,,213.5451686999877,214.19525649998104,214.19525649998104,214.69652249998762,45,45,214.69652249998762,214.69652249998762,214.69652249998762,214.69652249998762,214.69652249998762,214.69652249998762,214.69652249998762,214.69652249998762,214.69652249998762,215.04619829999865,215.04619829999865,215.04619829999865,215.04619829999865,215.04619829999865,215.04619829999865,215.04619829999865,215.04619829999865,215.04619829999865,22,0,,,215.04619829999865,215.24822549999226,1000,215.26331409998238,1000,1000,1000,1000,1,num_2,0.5660915999906138,,20,10,2026-03-02_16h16.53.242,2026A_exp2,2022.2.4,59.927032840343244,
1000,1,0.0,3.7,0,0,68,68,51,,,,,215.84704499997315,216.49773679999635,216.49773679999635,216.9988716999942,315,45,216.9988716999942,216.9988716999942,216.9988716999942,216.9988716999942,216.9988716999942,216.9988716999942,216.9988716999942,216.9988716999942,216.9988716999942,217.34846099998686,217.34846099998686,217.34846099998686,217.34846099998686,217.34846099998686,217.34846099998686,217.34846099998686,217.34846099998686,217.34846099998686,22,0,,,217.34846099998686,217.5507012999733,1000,217.5655640999903,1000,1000,1000,1000,1,num_2,0.37715849999221973,,20,10,2026-03-02_16h16.53.242,2026A_exp2,2022.2.4,59.927032840343244,
1000,1,3.7,0.0,0,0,69,69,57,,,,,217.96581469997182,218.61657519999426,218.61657519999426,219.11770489998162,45,45,219.11770489998162,219.11770489998162,219.11770489998162,219.11770489998162,219.11770489998162,219.11770489998162,219.11770489998162,219.11770489998162,219.11770489998162,219.48412489998736,219.48412489998736,219.48412489998736,219.48412489998736,219.48412489998736,219.48412489998736,219.48412489998736,219.48412489998736,219.48412489998736,2,2,"[0.017629999987548217, 0.05031089999829419]","[0.03373490000376478, 0.3673380999825895]",219.48412489998736,219.68633919997956,1000,219.68633919997956,1000,1000,1000,1000,0,num_3,0.5518020000017714,,20,10,2026-03-02_16h16.53.242,2026A_exp2,2022.2.4,59.927032840343244,
1,0,0.0,6.1,0,0,70,70,60,,,,,220.2681622999953,220.91880219997256,220.91880219997256,221.41999389999546,45,45,221.41999389999546,221.41999389999546,221.41999389999546,221.41999389999546,221.41999389999546,221.41999389999546,221.41999389999546,221.41999389999546,221.41999389999546,221.76972859998932,221.76972859998932,221.76972859998932,221.76972859998932,221.76972859998932,221.76972859998932,221.76972859998932,221.76972859998932,221.76972859998932,5,5,"[0.001249200024176389, 0.11728170001879334, 0.21705790000851266, 0.28392410001833923, 0.3170626000210177]","[0.08358490001410246, 0.2003893000073731, 0.2670503999979701, 0.30054029999882914, 0.3504496000241488]",221.76972859998932,221.96983239997644,0.0,221.96983239997644,0,0.0,0,1,1000,num_1,0.7474445000116248,,20,10,2026-03-02_16h16.53.242,2026A_exp2,2022.2.4,59.927032840343244,
1,0,0.0,6.1,0,0,71,71,11,,,,,222.73738979999325,223.38800729997456,223.38800729997456,223.87256929997238,45,45,223.87256929997238,223.87256929997238,223.87256929997238,223.87256929997238,223.87256929997238,223.87256929997238,223.87256929997238,223.87256929997238,223.87256929997238,224.23871209999197,224.23871209999197,224.23871209999197,224.23871209999197,224.23871209999197,224.23871209999197,224.23871209999197,224.23871209999197,224.23871209999197,23,0,,,224.23871209999197,224.4386660999735,0.0,224.4386660999735,0,0.0,0,1,1000,num_1,0.6387262999778613,,20,10,2026-03-02_16h16.53.242,2026A_exp2,2022.2.4,59.927032840343244,
1000,1,0.0,0.0,1,0,72,72,12,,,,,225.10620179999387,225.75690119998762,225.75690119998762,226.24157829998876,315,45,226.24157829998876,226.24157829998876,226.24157829998876,226.24157829998876,226.24157829998876,226.24157829998876,226.24157829998876,226.24157829998876,226.24157829998876,226.60801369999535,226.60801369999535,226.60801369999535,226.60801369999535,226.60801369999535,226.60801369999535,226.60801369999535,226.60801369999535,226.60801369999535,23,0,,,226.60801369999535,226.8082705999841,1000,226.8082705999841,1000,1000,1000,1000,1,num_2,0.39010530000086874,,20,10,2026-03-02_16h16.53.242,2026A_exp2,2022.2.4,59.927032840343244,
1,0,4.9,0.0,1,0,73,73,8,,,,,227.2252470999956,227.87582399998792,227.87582399998792,228.37685909998254,315,315,228.37685909998254,228.37685909998254,228.37685909998254,228.37685909998254,228.37685909998254,228.37685909998254,228.37685909998254,228.37685909998254,228.37685909998254,228.74340949999169,228.74340949999169,228.74340949999169,228.74340949999169,228.74340949999169,228.74340949999169,228.74340949999169,228.74340949999169,228.74340949999169,23,0,,,228.74340949999169,228.9434687999892,0.0,228.9434687999892,0,0.0,0,1,1000,num_1,0.6309862000052817,,20,10,2026-03-02_16h16.53.242,2026A_exp2,2022.2.4,59.927032840343244,
1000,1,0.0,3.7,1,0,74,74,47,,,,,229.59420969997882,230.24486909998814,230.24486909998814,230.7296684999892,45,45,230.7296684999892,230.7296684999892,230.7296684999892,230.7296684999892,230.7296684999892,230.7296684999892,230.7296684999892,230.7296684999892,230.7296684999892,231.09566439999617,231.09566439999617,231.09566439999617,231.09566439999617,231.09566439999617,231.09566439999617,231.09566439999617,231.09566439999617,231.09566439999617,23,0,,,231.09566439999617,231.29765259998385,1000,231.29765259998385,1000,1000,1000,1000,1,num_2,0.2763070999935735,,20,10,2026-03-02_16h16.53.242,2026A_exp2,2022.2.4,59.927032840343244,
1000,1,6.1,0.0,1,0,75,75,30,,,,,231.59635369997704,232.24690569998347,232.24690569998347,232.74778879998485,315,315,232.74778879998485,232.74778879998485,232.74778879998485,232.74778879998485,232.74778879998485,232.74778879998485,232.74778879998485,232.74778879998485,232.74778879998485,233.09771969998837,233.09771969998837,233.09771969998837,233.09771969998837,233.09771969998837,233.09771969998837,233.09771969998837,233.09771969998837,233.09771969998837,22,0,,,233.09771969998837,233.29961039999034,1000,233.29961039999034,1000,1000,1000,1000,0,num_3,0.16259100000024773,,20,10,2026-03-02_16h16.53.242,2026A_exp2,2022.2.4,59.927032840343244,
1,0,0.0,6.1,1,0,76,76,52,,,,,233.4814021999773,234.1320890999923,234.1320890999923,234.6330046999792,315,45,234.6330046999792,234.6330046999792,234.6330046999792,234.6330046999792,234.6330046999792,234.6330046999792,234.6330046999792,234.6330046999792,234.6330046999792,234.9995805999788,234.9995805999788,234.9995805999788,234.9995805999788,234.9995805999788,234.9995805999788,234.9995805999788,234.9995805999788,234.9995805999788,23,0,,,234.9995805999788,235.19976479999605,6.1,235.19976479999605,0,6.1,1,0,1000,num_1,0.6538393000082579,,20,10,2026-03-02_16h16.53.242,2026A_exp2,2022.2.4,59.927032840343244,
1,0,0.0,3.7,0,0,77,77,61,,,,,235.88386649999302,236.53451389999827,236.53451389999827,237.0188336999854,315,315,237.0188336999854,237.0188336999854,237.0188336999854,237.0188336999854,237.0188336999854,237.0188336999854,237.0188336999854,237.0188336999854,237.0188336999854,237.38521469998523,237.38521469998523,237.38521469998523,237.38521469998523,237.38521469998523,237.38521469998523,237.38521469998523,237.38521469998523,237.38521469998523,23,0,,,237.38521469998523,237.5854181999748,0.0,237.5854181999748,0,0.0,0,1,1000,num_1,0.70797460002359,,20,10,2026-03-02_16h16.53.242,2026A_exp2,2022.2.4,59.927032840343244,
1,0,3.7,0.0,0,0,78,78,42,,,,,238.31944139997358,238.9702086999896,238.9702086999896,239.4545699999726,45,315,239.4545699999726,239.4545699999726,239.4545699999726,239.4545699999726,239.4545699999726,239.4545699999726,239.4545699999726,239.4545699999726,239.4545699999726,239.8210583999753,239.8210583999753,239.8210583999753,239.8210583999753,239.8210583999753,239.8210583999753,239.8210583999753,239.8210583999753,239.8210583999753,23,0,,,239.8210583999753,240.02139779998106,3.7,240.02139779998106,1,3.7,1,1,1000,num_4,0.7204334000125527,,20,10,2026-03-02_16h16.53.242,2026A_exp2,2022.2.4,59.927032840343244,
1000,1,0.0,0.0,1,0,79,79,67,,,,,240.77210589998867,241.42266159999417,241.42266159999417,241.9068450999912,315,45,241.9068450999912,241.9068450999912,241.9068450999912,241.9068450999912,241.9068450999912,241.9068450999912,241.9068450999912,241.9068450999912,241.9068450999912,242.27338049997343,242.27338049997343,242.27338049997343,242.27338049997343,242.27338049997343,242.27338049997343,242.27338049997343,242.27338049997343,242.27338049997343,23,0,,,242.27338049997343,242.47595869997167,1000,242.47595869997167,1000,1000,1000,1000,1,num_2,0.2900602000008803,,20,10,2026-03-02_16h16.53.242,2026A_exp2,2022.2.4,59.927032840343244,
1000,1,6.1,0.0,0,0,80,80,82,,,,,242.79085309998482,243.44123479997506,243.44123479997506,243.94237279999652,315,45,243.94237279999652,243.94237279999652,243.94237279999652,243.94237279999652,243.94237279999652,243.94237279999652,243.94237279999652,243.94237279999652,243.94237279999652,244.2920680999814,244.2920680999814,244.2920680999814,244.2920680999814,244.2920680999814,244.2920680999814,244.2920680999814,244.2920680999814,244.2920680999814,0,1,[0.001273999980185181],[0.3506755999987945],244.2920680999814,244.49269869999262,1000,244.49269869999262,1000,1000,1000,1000,0,num_3,0.27297650001128204,,20,10,2026-03-02_16h16.53.242,2026A_exp2,2022.2.4,59.927032840343244,
1,0,0.0,6.1,1,0,81,81,36,,,,,244.79280440000002,245.44336989999283,245.44336989999283,245.9444925999851,45,45,245.9444925999851,245.9444925999851,245.9444925999851,245.9444925999851,245.9444925999851,245.9444925999851,245.9444925999851,245.9444925999851,245.9444925999851,246.31088259999524,246.31088259999524,246.31088259999524,246.31088259999524,246.31088259999524,246.31088259999524,246.31088259999524,246.31088259999524,246.31088259999524,0,1,[0.00118680001469329],[0.36703990001115017],246.31088259999524,246.51109429998905,6.1,246.51109429998905,1,6.1,1,1,1000,num_4,1.0789695999992546,,20,10,2026-03-02_16h16.53.242,2026A_exp2,2022.2.4,59.927032840343244,
1000,1,4.9,0.0,1,0,82,82,72,,,,,247.6122814999835,248.24619009997696,248.24619009997696,248.747301699972,45,45,248.747301699972,248.747301699972,248.747301699972,248.747301699972,248.747301699972,248.747301699972,248.747301699972,248.747301699972,248.747301699972,249.11374689999502,249.11374689999502,249.11374689999502,249.11374689999502,249.11374689999502,249.11374689999502,249.11374689999502,249.11374689999502,249.11374689999502,23,0,,,249.11374689999502,249.3139819999924,1000,249.3139819999924,1000,1000,1000,1000,0,num_3,0.15628660001675598,,20,10,2026-03-02_16h16.53.242,2026A_exp2,2022.2.4,59.927032840343244,
1,0,3.7,0.0,0,0,83,83,65,,,,,249.49755729999742,250.1480071999831,250.1480071999831,250.63261209998745,315,45,250.63261209998745,250.63261209998745,250.63261209998745,250.63261209998745,250.63261209998745,250.63261209998745,250.63261209998745,250.63261209998745,250.63261209998745,250.9988933999848,250.9988933999848,250.9988933999848,250.9988933999848,250.9988933999848,250.9988933999848,250.9988933999848,250.9988933999848,250.9988933999848,0,1,[0.0010517000046093017],[0.3673277000198141],250.9988933999848,251.19921989997965,3.7,251.19921989997965,1,3.7,1,1,1000,num_4,0.6953454000176862,,20,10,2026-03-02_16h16.53.242,2026A_exp2,2022.2.4,59.927032840343244,
1000,1,6.1,6.1,1,0,84,84,77,,,,,251.9164859999728,252.56710899999598,252.56710899999598,253.05154779998702,315,315,253.05154779998702,253.05154779998702,253.05154779998702,253.05154779998702,253.05154779998702,253.05154779998702,253.05154779998702,253.05154779998702,253.05154779998702,253.41784109998844,253.41784109998844,253.41784109998844,253.41784109998844,253.41784109998844,253.41784109998844,253.41784109998844,253.41784109998844,253.41784109998844,0,1,[0.001191799994558096],[0.3666163999878336],253.41784109998844,253.62030649997178,1000,253.62030649997178,1000,1000,1000,1000,1,num_2,0.45829870001762174,,20,10,2026-03-02_16h16.53.242,2026A_exp2,2022.2.4,59.927032840343244,
1000,1,0.0,0.0,1,0,85,85,27,,,,,254.10211869998602,254.75274409999838,254.75274409999838,255.25383209998836,45,315,255.25383209998836,255.25383209998836,255.25383209998836,255.25383209998836,255.25383209998836,255.25383209998836,255.25383209998836,255.25383209998836,255.25383209998836,255.6200533999945,255.6200533999945,255.6200533999945,255.6200533999945,255.6200533999945,255.6200533999945,255.6200533999945,255.6200533999945,255.6200533999945,20,3,"[0.03354179998859763, 0.06690469998284243, 0.36683670000638813]","[0.05042499999399297, 0.08373250000295229, 0.3668394999986049]",255.6200533999945,255.82207349999226,1000,255.82207349999226,1000,1000,1000,1000,1,num_2,0.40842789999442175,,20,10,2026-03-02_16h16.53.242,2026A_exp2,2022.2.4,59.927032840343244,
1,0,6.1,0.0,0,0,86,86,56,,,,,256.2543069999956,256.90451379999286,256.90451379999286,257.4058510999894,45,315,257.4058510999894,257.4058510999894,257.4058510999894,257.4058510999894,257.4058510999894,257.4058510999894,257.4058510999894,257.4058510999894,257.4058510999894,257.7557022999972,257.7557022999972,257.7557022999972,257.7557022999972,257.7557022999972,257.7557022999972,257.7557022999972,257.7557022999972,257.7557022999972,5,3,"[0.0012238000053912401, 0.24969319999217987, 0.316661099990597]","[0.233265399991069, 0.283272600005148, 0.333506099996157]",257.7557022999972,257.9558084999735,6.1,257.9726163999876,1,6.1,1,1,1000,num_4,0.5532855000055861,,20,10,2026-03-02_16h16.53.242,2026A_exp2,2022.2.4,59.927032840343244,
1000,1,0.0,0.0,0,0,87,87,74,,,,,258.55645209999057,259.20739669998875,259.20739669998875,259.6916025999817,45,315,259.6916025999817,259.6916025999817,259.6916025999817,259.6916025999817,259.6916025999817,259.6916025999817,259.6916025999817,259.6916025999817,259.6916025999817,260.0579588999972,260.0579588999972,260.0579588999972,260.0579588999972,260.0579588999972,260.0579588999972,260.0579588999972,260.0579588999972,260.0579588999972,22,1,[0.2675718999817036],[0.2841154999914579],260.0579588999972,260.26008319997345,1000,260.26008319997345,1000,1000,1000,1000,1,num_2,0.30628630000865087,,20,10,2026-03-02_16h16.53.242,2026A_exp2,2022.2.4,59.927032840343244,
1000,1,0.0,0.0,0,0,88,88,85,,,,,260.5919463999744,261.2425375999883,261.2425375999883,261.74354829997174,315,45,261.74354829997174,261.74354829997174,261.74354829997174,261.74354829997174,261.74354829997174,261.74354829997174,261.74354829997174,261.74354829997174,261.74354829997174,262.09340699997847,262.09340699997847,262.09340699997847,262.09340699997847,262.09340699997847,262.09340699997847,262.09340699997847,262.09340699997847,262.09340699997847,21,1,[0.15092849999200553],[0.16758709997520782],262.09340699997847,262.2956239999912,1000,262.2956239999912,1000,1000,1000,1000,0,num_3,1.982003999990411,,20,10,2026-03-02_16h16.53.242,2026A_exp2,2022.2.4,59.927032840343244,
0,0,4.9,0.0,1,0,89,89,25,,,,,264.29568239999935,264.94620729997405,264.94620729997405,265.44739949997165,45,45,265.44739949997165,265.44739949997165,265.44739949997165,265.44739949997165,265.44739949997165,265.44739949997165,265.44739949997165,265.44739949997165,265.44739949997165,265.8134062999743,265.8134062999743,265.8134062999743,265.8134062999743,265.8134062999743,265.8134062999743,265.8134062999743,265.8134062999743,265.8134062999743,23,0,,,265.8134062999743,266.0139070999867,4.9,266.0139070999867,1,4.9,1,1,1000,num_4,0.6247256000060588,,20,10,2026-03-02_16h16.53.242,2026A_exp2,2022.2.4,59.927032840343244,
,,,,,,,,,,,,,,,,,,,,,,,,,,,,,,,,,,,,,,,,,,,,,,,,,,,,266.6736956999812,,,,,,,
