validity,detectorcomp,contrastCW,contrastCCW,precueCWorCCW,block_80trials.thisRepN,block_80trials.thisTrialN,block_80trials.thisN,block_80trials.thisIndex,etRecord.started,etRecord.stopped,text.started,text.stopped,text_4.started,text_4.stopped,text_6.started,text_6.stopped,oriCW,oriCCW,roi_2.started,grating_UR.started,grating_UL.started,grating_LR.started,grating_LL.started,noise_UR.started,noise_UL.started,noise_LR.started,noise_LL.started,roi_2.stopped,grating_UR.stopped,grating_UL.stopped,grating_LR.stopped,grating_LL.stopped,noise_UR.stopped,noise_UL.stopped,noise_LR.stopped,noise_LL.stopped,outframe,roi_2.numLooks,roi_2.timesOn,roi_2.timesOff,text_2.started,text_2.stopped,probedcontrast,key_resp.started,respdetect,relevantContrast,correctDetect,TorFdetect,respCWorCCW,key_resp.keys,key_resp.rt,feedback_display_.started,participantNo,blockNo,date,expName,psychopyVersion,frameRate,
1,0,6.1,0.0,0,0,0,0,50,3.840000135824084e-05,3.840000135824084e-05,65.31881960001192,67.32890829999815,67.32890829999815,67.97267519999878,67.97267519999878,68.49416500001098,45,45,68.49416500001098,68.49416500001098,68.49416500001098,68.49416500001098,68.49416500001098,68.49416500001098,68.49416500001098,68.49416500001098,68.49416500001098,68.84022610000102,68.84022610000102,68.84022610000102,68.84022610000102,68.84022610000102,68.84022610000102,68.84022610000102,68.84022610000102,68.84022610000102,15,3,"[0.18407899999874644, 0.2676004000240937, 0.3343522000068333]","[0.21749999999883585, 0.31761030000052415, 0.367761800007429]",68.84022610000102,69.04034269999829,6.1,69.04034269999829,1,6.1,1,1,1000,num_4,0.890018100006273,,20,3,2026-03-02_15h39.26.979,2026A_exp2,2022.2.4,59.90940500535313,
1000,1,6.1,3.7,0,0,1,1,87,,,,,69.9581002999912,70.6084102000168,70.6084102000168,71.09316590000526,315,315,71.09316590000526,71.09316590000526,71.09316590000526,71.09316590000526,71.09316590000526,71.09316590000526,71.09316590000526,71.09316590000526,71.09316590000526,71.45946340000955,71.45946340000955,71.45946340000955,71.45946340000955,71.45946340000955,71.45946340000955,71.45946340000955,71.45946340000955,71.45946340000955,23,0,,,71.45946340000955,71.66452240000945,1000,71.66452240000945,1000,1000,1000,1000,0,num_3,0.4586976999999024,,20,3,2026-03-02_15h39.26.979,2026A_exp2,2022.2.4,59.90940500535313,
1,0,0.0,3.7,0,0,2,2,78,,,,,72.14356980001321,72.79421419999562,72.79421419999562,73.29521959999693,45,315,73.29521959999693,73.29521959999693,73.29521959999693,73.29521959999693,73.29521959999693,73.29521959999693,73.29521959999693,73.29521959999693,73.29521959999693,73.66156830001273,73.66156830001273,73.66156830001273,73.66156830001273,73.66156830001273,73.66156830001273,73.66156830001273,73.66156830001273,73.66156830001273,3,4,"[0.001418200001353398, 0.05039859999669716, 0.21674510001321323, 0.30020840000361204]","[0.0335610999900382, 0.20030510000651702, 0.28338710000389256, 0.367370399995707]",73.66156830001273,73.86180980000063,0.0,73.86180980000063,0,0.0,0,1,1000,num_1,0.8458536000107415,,20,3,2026-03-02_15h39.26.979,2026A_exp2,2022.2.4,59.90940500535313,
1000,1,0.0,0.0,0,0,3,3,75,,,,,74.7293125000142,75.38024719999521,75.38024719999521,75.86444649999612,45,315,75.86444649999612,75.86444649999612,75.86444649999612,75.86444649999612,75.86444649999612,75.86444649999612,75.86444649999612,75.86444649999612,75.86444649999612,76.23090940000839,76.23090940000839,76.23090940000839,76.23090940000839,76.23090940000839,76.23090940000839,76.23090940000839,76.23090940000839,76.23090940000839,10,2,"[0.15019380001467653, 0.18352270001196302]","[0.1668616000097245, 0.3670301000238396]",76.23090940000839,76.43303700000979,1000,76.43303700000979,1000,1000,1000,1000,1,num_2,0.641888399986783,,20,3,2026-03-02_15h39.26.979,2026A_exp2,2022.2.4,59.90940500535313,
1000,1,0.0,3.7,0,0,4,4,52,,,,,77.09823080000933,77.73230530001456,77.73230530001456,78.23348349999287,315,45,78.23348349999287,78.23348349999287,78.23348349999287,78.23348349999287,78.23348349999287,78.23348349999287,78.23348349999287,78.23348349999287,78.23348349999287,78.59992860001512,78.59992860001512,78.59992860001512,78.59992860001512,78.59992860001512,78.59992860001512,78.59992860001512,78.59992860001512,78.59992860001512,0,1,[0.0013227999734226614],[0.36709639997570775],78.59992860001512,78.80199589999393,1000,78.80199589999393,1000,1000,1000,1000,1,num_2,0.42469690000871196,,20,3,2026-03-02_15h39.26.979,2026A_exp2,2022.2.4,59.90940500535313,
1000,1,3.7,0.0,1,0,5,5,79,,,,,79.2507723000017,79.90134370001033,79.90134370001033,80.40253859999939,315,315,80.40253859999939,80.40253859999939,80.40253859999939,80.40253859999939,80.40253859999939,80.40253859999939,80.40253859999939,80.40253859999939,80.40253859999939,80.76875620000646,80.76875620000646,80.76875620000646,80.76875620000646,80.76875620000646,80.76875620000646,80.76875620000646,80.76875620000646,80.76875620000646,0,1,[0.0012319000088609755],[0.3671494000009261],80.76875620000646,80.96906440000748,1000,80.96906440000748,1000,1000,1000,1000,0,num_3,0.4576633000106085,,20,3,2026-03-02_15h39.26.979,2026A_exp2,2022.2.4,59.90940500535313,
1000,1,4.9,0.0,0,0,6,6,22,,,,,81.45277460000943,82.10352279999643,82.10352279999643,82.60465640001348,315,45,82.60465640001348,82.60465640001348,82.60465640001348,82.60465640001348,82.60465640001348,82.60465640001348,82.60465640001348,82.60465640001348,82.60465640001348,82.97104269999545,82.97104269999545,82.97104269999545,82.97104269999545,82.97104269999545,82.97104269999545,82.97104269999545,82.97104269999545,82.97104269999545,14,2,"[0.0012467000051401556, 0.2503656999906525]","[0.13361210000584833, 0.2670598999829963]",82.97104269999545,83.17293070000596,1000,83.17293070000596,1000,1000,1000,1000,0,num_3,0.27780700000585057,,20,3,2026-03-02_15h39.26.979,2026A_exp2,2022.2.4,59.90940500535313,
1000,1,6.1,4.9,1,0,7,7,53,,,,,83.47144829999888,84.1221773000143,84.1221773000143,84.62330350000411,315,315,84.62330350000411,84.62330350000411,84.62330350000411,84.62330350000411,84.62330350000411,84.62330350000411,84.62330350000411,84.62330350000411,84.62330350000411,84.98983020000742,84.98983020000742,84.98983020000742,84.98983020000742,84.98983020000742,84.98983020000742,84.98983020000742,84.98983020000742,84.98983020000742,0,1,[0.0012463000020943582],[0.36731200001668185],84.98983020000742,85.19154820000404,1000,85.19154820000404,1000,1000,1000,1000,1,num_2,0.554895100009162,,20,3,2026-03-02_15h39.26.979,2026A_exp2,2022.2.4,59.90940500535313,
1000,1,4.9,4.9,0,0,8,8,31,,,,,85.77355280000484,86.42441120001604,86.42441120001604,86.92565049999394,315,45,86.92565049999394,86.92565049999394,86.92565049999394,86.92565049999394,86.92565049999394,86.92565049999394,86.92565049999394,86.92565049999394,86.92565049999394,87.27517050001188,87.27517050001188,87.27517050001188,87.27517050001188,87.27517050001188,87.27517050001188,87.27517050001188,87.27517050001188,87.27517050001188,4,4,"[0.0012098999868612736, 0.1173498000134714, 0.18389220000244677, 0.21735419999458827]","[0.08376909999060445, 0.16744270001072437, 0.2006413000053726, 0.35053910000715405]",87.27517050001188,87.47755270000198,1000,87.47755270000198,1000,1000,1000,1000,1,num_2,0.6696424999972805,,20,3,2026-03-02_15h39.26.979,2026A_exp2,2022.2.4,59.90940500535313,
1,0,0.0,3.7,1,0,9,9,57,,,,,88.17611000000034,88.8268236000149,88.8268236000149,89.32791100000031,45,45,89.32791100000031,89.32791100000031,89.32791100000031,89.32791100000031,89.32791100000031,89.32791100000031,89.32791100000031,89.32791100000031,89.32791100000031,89.69445700000506,89.69445700000506,89.69445700000506,89.69445700000506,89.69445700000506,89.69445700000506,89.69445700000506,89.69445700000506,89.69445700000506,23,0,,,89.69445700000506,89.89461220000521,3.7,89.89461220000521,1,3.7,1,1,1000,num_4,0.9082089999865275,,20,3,2026-03-02_15h39.26.979,2026A_exp2,2022.2.4,59.90940500535313,
1000,1,0.0,3.7,0,0,10,10,44,,,,,90.82881289999932,91.47973869999987,91.47973869999987,91.9779841999989,45,315,91.9779841999989,91.9779841999989,91.9779841999989,91.9779841999989,91.9779841999989,91.9779841999989,91.9779841999989,91.9779841999989,91.9779841999989,92.33046289999038,92.33046289999038,92.33046289999038,92.33046289999038,92.33046289999038,92.33046289999038,92.33046289999038,92.33046289999038,92.33046289999038,18,3,"[0.053263900015736, 0.14745760001824237, 0.26413729999330826]","[0.08026950000203215, 0.16415319999214262, 0.29760310001438484]",92.33046289999038,92.53067490001558,1000,92.53067490001558,1000,1000,1000,1000,1,num_2,0.6245671999931801,,20,3,2026-03-02_15h39.26.979,2026A_exp2,2022.2.4,59.90940500535313,
1000,1,0.0,3.7,1,0,11,11,80,,,,,93.18109450000338,93.83195690001594,93.83195690001594,94.33309820000432,45,315,94.33309820000432,94.33309820000432,94.33309820000432,94.33309820000432,94.33309820000432,94.33309820000432,94.33309820000432,94.33309820000432,94.33309820000432,94.69947160000447,94.69947160000447,94.69947160000447,94.69947160000447,94.69947160000447,94.69947160000447,94.69947160000447,94.69947160000447,94.69947160000447,0,1,[0.001211199996760115],[0.3671326999901794],94.69947160000447,94.90164670001832,1000,94.90164670001832,1000,1000,1000,1000,1,num_2,0.29341420001583174,,20,3,2026-03-02_15h39.26.979,2026A_exp2,2022.2.4,59.90940500535313,
1000,1,4.9,0.0,1,0,12,12,25,,,,,95.2164318000141,95.86726140000974,95.86726140000974,96.36831650001113,45,45,96.36831650001113,96.36831650001113,96.36831650001113,96.36831650001113,96.36831650001113,96.36831650001113,96.36831650001113,96.36831650001113,96.36831650001113,96.7182904999936,96.7182904999936,96.7182904999936,96.7182904999936,96.7182904999936,96.7182904999936,96.7182904999936,96.7182904999936,96.7182904999936,0,1,[0.001211800001328811],[0.3503928999998607],96.7182904999936,96.92018089999328,1000,96.93501419998938,1000,1000,1000,1000,0,num_3,0.243201900011627,,20,3,2026-03-02_15h39.26.979,2026A_exp2,2022.2.4,59.90940500535313,
1,0,6.1,3.7,0,0,13,13,26,,,,,97.20165790000465,97.85253850001027,97.85253850001027,98.35356770001817,315,315,98.35356770001817,98.35356770001817,98.35356770001817,98.35356770001817,98.35356770001817,98.35356770001817,98.35356770001817,98.35356770001817,98.35356770001817,98.70345619998989,98.70345619998989,98.70345619998989,98.70345619998989,98.70345619998989,98.70345619998989,98.70345619998989,98.70345619998989,98.70345619998989,0,1,[0.00124460001825355],[0.35050280002178624],98.70345619998989,98.90354920001118,6.1,98.90354920001118,1,6.1,1,1,1000,num_4,0.7789898999908473,,20,3,2026-03-02_15h39.26.979,2026A_exp2,2022.2.4,59.90940500535313,
1,0,6.1,4.9,1,0,14,14,35,,,,,99.70430159999523,100.35504620001302,100.35504620001302,100.83927490000497,45,315,100.83927490000497,100.83927490000497,100.83927490000497,100.83927490000497,100.83927490000497,100.83927490000497,100.83927490000497,100.83927490000497,100.83927490000497,101.20593180001015,101.20593180001015,101.20593180001015,101.20593180001015,101.20593180001015,101.20593180001015,101.20593180001015,101.20593180001015,101.20593180001015,23,0,,,101.20593180001015,101.40614520001691,4.9,101.40614520001691,0,4.9,1,0,1000,num_1,0.68476340000052,,20,3,2026-03-02_15h39.26.979,2026A_exp2,2022.2.4,59.90940500535313,
1000,1,0.0,0.0,0,0,15,15,65,,,,,102.10658220000914,102.74078359999112,102.74078359999112,103.24190739999176,315,315,103.24190739999176,103.24190739999176,103.24190739999176,103.24190739999176,103.24190739999176,103.24190739999176,103.24190739999176,103.24190739999176,103.24190739999176,103.60816659999546,103.60816659999546,103.60816659999546,103.60816659999546,103.60816659999546,103.60816659999546,103.60816659999546,103.60816659999546,103.60816659999546,0,1,[0.0013229000032879412],[0.36723069997970015],103.60816659999546,103.80870039999718,1000,103.80870039999718,1000,1000,1000,1000,0,num_3,1.3222840999951586,,20,3,2026-03-02_15h39.26.979,2026A_exp2,2022.2.4,59.90940500535313,
1000,1,0.0,4.9,0,0,16,16,77,,,,,105.15986529999645,105.81038490001811,105.81038490001811,106.31168820001767,315,45,106.31168820001767,106.31168820001767,106.31168820001767,106.31168820001767,106.31168820001767,106.31168820001767,106.31168820001767,106.31168820001767,106.31168820001767,106.67807670001639,106.67807670001639,106.67807670001639,106.67807670001639,106.67807670001639,106.67807670001639,106.67807670001639,106.67807670001639,106.67807670001639,0,1,[0.0012125999783165753],[0.3673955999838654],106.67807670001639,106.88012919999892,1000,106.88012919999892,1000,1000,1000,1000,1,num_2,0.5302190000074916,,20,3,2026-03-02_15h39.26.979,2026A_exp2,2022.2.4,59.90940500535313,
1000,1,6.1,0.0,0,0,17,17,33,,,,,107.42872759999591,108.07953849999467,108.07953849999467,108.58061319999979,45,315,108.58061319999979,108.58061319999979,108.58061319999979,108.58061319999979,108.58061319999979,108.58061319999979,108.58061319999979,108.58061319999979,108.58061319999979,108.94702230000985,108.94702230000985,108.94702230000985,108.94702230000985,108.94702230000985,108.94702230000985,108.94702230000985,108.94702230000985,108.94702230000985,23,0,,,108.94702230000985,109.14885719999438,1000,109.14885719999438,1000,1000,1000,1000,0,num_3,0.3024718000087887,,20,3,2026-03-02_15h39.26.979,2026A_exp2,2022.2.4,59.90940500535313,
1,0,0.0,4.9,0,0,18,18,85,,,,,109.48091129999375,110.13156549999258,110.13156549999258,110.632720900001,45,315,110.632720900001,110.632720900001,110.632720900001,110.632720900001,110.632720900001,110.632720900001,110.632720900001,110.632720900001,110.632720900001,110.99915029999102,110.99915029999102,110.99915029999102,110.99915029999102,110.99915029999102,110.99915029999102,110.99915029999102,110.99915029999102,110.99915029999102,0,1,[0.0012213000154588372],[0.3671792999957688],110.99915029999102,111.1994265000103,0.0,111.1994265000103,0,0.0,0,1,1000,num_1,0.7708907999913208,,20,3,2026-03-02_15h39.26.979,2026A_exp2,2022.2.4,59.90940500535313,
1,0,0.0,0.0,0,0,19,19,38,,,,,112.00010080001084,112.65032889999566,112.65032889999566,113.13511259999359,45,315,113.13511259999359,113.13511259999359,113.13511259999359,113.13511259999359,113.13511259999359,113.13511259999359,113.13511259999359,113.13511259999359,113.13511259999359,113.50143659999594,113.50143659999594,113.50143659999594,113.50143659999594,113.50143659999594,113.50143659999594,113.50143659999594,113.50143659999594,113.50143659999594,23,0,,,113.50143659999594,113.7017221999995,0.0,113.7017221999995,0,0.0,0,1,1000,num_1,0.8214974000002258,,20,3,2026-03-02_15h39.26.979,2026A_exp2,2022.2.4,59.90940500535313,
1,0,0.0,0.0,0,0,20,20,59,,,,,114.55247759999475,115.20328039999004,115.20328039999004,115.68757149999146,45,315,115.68757149999146,115.68757149999146,115.68757149999146,115.68757149999146,115.68757149999146,115.68757149999146,115.68757149999146,115.68757149999146,115.68757149999146,116.05409300001338,116.05409300001338,116.05409300001338,116.05409300001338,116.05409300001338,116.05409300001338,116.05409300001338,116.05409300001338,116.05409300001338,0,1,[0.0012006999750155956],[0.3672111999767367],116.05409300001338,116.25421030001598,0.0,116.25421030001598,0,0.0,0,1,1000,num_1,0.7322623999789357,,20,3,2026-03-02_15h39.26.979,2026A_exp2,2022.2.4,59.90940500535313,
1,0,0.0,0.0,0,0,21,21,49,,,,,117.0048136000114,117.65576920000603,117.65576920000603,118.14853810000932,45,45,118.14853810000932,118.14853810000932,118.14853810000932,118.14853810000932,118.14853810000932,118.14853810000932,118.14853810000932,118.14853810000932,118.14853810000932,118.50659599999199,118.50659599999199,118.50659599999199,118.50659599999199,118.50659599999199,118.50659599999199,118.50659599999199,118.50659599999199,118.50659599999199,0,1,[0.003056699992157519],[0.3656024000083562],118.50659599999199,118.7068349000183,0.0,118.7068349000183,1,0.0,0,0,1000,num_4,0.9038463000033516,,20,3,2026-03-02_15h39.26.979,2026A_exp2,2022.2.4,59.90940500535313,
0,0,4.9,0.0,0,0,22,22,30,,,,,119.64085980001255,120.29140740001458,120.29140740001458,120.79276450001635,45,315,120.79276450001635,120.79276450001635,120.79276450001635,120.79276450001635,120.79276450001635,120.79276450001635,120.79276450001635,120.79276450001635,120.79276450001635,121.14236170001095,121.14236170001095,121.14236170001095,121.14236170001095,121.14236170001095,121.14236170001095,121.14236170001095,121.14236170001095,121.14236170001095,0,1,[0.0012257999915163964],[0.35049360000994056],121.14236170001095,121.34273989999201,0.0,121.35936239999137,0,0.0,0,1,1000,num_1,0.6994598000019323,,20,3,2026-03-02_15h39.26.979,2026A_exp2,2022.2.4,59.90940500535313,
1000,1,0.0,4.9,1,0,23,23,27,,,,,122.0766525999934,122.73030920000747,122.73030920000747,123.21189870001399,315,315,123.21189870001399,123.21189870001399,123.21189870001399,123.21189870001399,123.21189870001399,123.21189870001399,123.21189870001399,123.21189870001399,123.21189870001399,123.57833940000273,123.57833940000273,123.57833940000273,123.57833940000273,123.57833940000273,123.57833940000273,123.57833940000273,123.57833940000273,123.57833940000273,7,4,"[0.0012055000115651637, 0.20036580000305548, 0.31751120000262745, 0.36712680000346154]","[0.15034180000657216, 0.2838589000166394, 0.33388320001540706, 0.3671321000147145]",123.57833940000273,123.78052500000922,1000,123.78052500000922,1000,1000,1000,1000,1,num_2,0.5499575000139885,,20,3,2026-03-02_15h39.26.979,2026A_exp2,2022.2.4,59.90940500535313,
1,0,4.9,0.0,1,0,24,24,84,,,,,124.34569780001766,125.00539679999929,125.00539679999929,125.49961170001188,45,45,125.49961170001188,125.49961170001188,125.49961170001188,125.49961170001188,125.49961170001188,125.49961170001188,125.49961170001188,125.49961170001188,125.49961170001188,125.86392880001222,125.86392880001222,125.86392880001222,125.86392880001222,125.86392880001222,125.86392880001222,125.86392880001222,125.86392880001222,125.86392880001222,23,0,,,125.86392880001222,126.06416840001475,0.0,126.06416840001475,0,0.0,0,1,1000,num_1,1.458890700014308,,20,3,2026-03-02_15h39.26.979,2026A_exp2,2022.2.4,59.90940500535313,
1,0,0.0,0.0,0,0,25,25,9,,,,,127.54882620001445,128.19954329999746,128.19954329999746,128.68395330000203,45,315,128.68395330000203,128.68395330000203,128.68395330000203,128.68395330000203,128.68395330000203,128.68395330000203,128.68395330000203,128.68395330000203,128.68395330000203,129.05044379999163,129.05044379999163,129.05044379999163,129.05044379999163,129.05044379999163,129.05044379999163,129.05044379999163,129.05044379999163,129.05044379999163,19,2,"[0.0338186000008136, 0.15059490001294762]","[0.06709960001171567, 0.18388470000354573]",129.05044379999163,129.250652799994,0.0,129.250652799994,1,0.0,0,0,1000,num_4,0.9835908000241034,,20,3,2026-03-02_15h39.26.979,2026A_exp2,2022.2.4,59.90940500535313,
1000,1,4.9,6.1,1,0,26,26,1,,,,,130.2515471999941,130.90218940001796,130.90218940001796,131.38666270000977,45,315,131.38666270000977,131.38666270000977,131.38666270000977,131.38666270000977,131.38666270000977,131.38666270000977,131.38666270000977,131.38666270000977,131.38666270000977,131.75322079999023,131.75322079999023,131.75322079999023,131.75322079999023,131.75322079999023,131.75322079999023,131.75322079999023,131.75322079999023,131.75322079999023,23,0,,,131.75322079999023,131.9549876000092,1000,131.9549876000092,1000,1000,1000,1000,1,num_2,0.7194177999917883,,20,3,2026-03-02_15h39.26.979,2026A_exp2,2022.2.4,59.90940500535313,
1,0,4.9,6.1,1,0,27,27,86,,,,,132.70404899999266,133.35477320000064,133.35477320000064,133.85591060001752,45,45,133.85591060001752,133.85591060001752,133.85591060001752,133.85591060001752,133.85591060001752,133.85591060001752,133.85591060001752,133.85591060001752,133.85591060001752,134.2055987000058,134.2055987000058,134.2055987000058,134.2055987000058,134.2055987000058,134.2055987000058,134.2055987000058,134.2055987000058,134.2055987000058,22,0,,,134.2055987000058,134.4058192000084,6.1,134.4058192000084,0,6.1,1,0,1000,num_1,1.3650357000005897,,20,3,2026-03-02_15h39.26.979,2026A_exp2,2022.2.4,59.90940500535313,
0,0,3.7,0.0,1,0,28,28,83,,,,,135.79039490001742,136.4410549000022,136.4410549000022,136.92525220001698,315,45,136.92525220001698,136.92525220001698,136.92525220001698,136.92525220001698,136.92525220001698,136.92525220001698,136.92525220001698,136.92525220001698,136.92525220001698,137.29195459999028,137.29195459999028,137.29195459999028,137.29195459999028,137.29195459999028,137.29195459999028,137.29195459999028,137.29195459999028,137.29195459999028,7,4,"[0.0007201000116765499, 0.06764900000416674, 0.10045830000308342, 0.26754060000530444]","[0.017382499994710088, 0.08363639999879524, 0.21703400000114925, 0.36797740001929924]",137.29195459999028,137.49219769999036,3.7,137.49219769999036,1,3.7,1,1,1000,num_4,0.8466696000250522,,20,3,2026-03-02_15h39.26.979,2026A_exp2,2022.2.4,59.90940500535313,
1000,1,3.7,0.0,1,0,29,29,55,,,,,138.35958990000654,139.0104308000009,139.0104308000009,139.49475879999227,315,45,139.49475879999227,139.49475879999227,139.49475879999227,139.49475879999227,139.49475879999227,139.49475879999227,139.49475879999227,139.49475879999227,139.49475879999227,139.86119009999675,139.86119009999675,139.86119009999675,139.86119009999675,139.86119009999675,139.86119009999675,139.86119009999675,139.86119009999675,139.86119009999675,23,0,,,139.86119009999675,140.0633349000127,1000,140.0633349000127,1000,1000,1000,1000,0,num_3,1.2921182999853045,,20,3,2026-03-02_15h39.26.979,2026A_exp2,2022.2.4,59.90940500535313,
1,0,0.0,3.7,0,0,30,30,12,,,,,141.37937199999578,142.03002460001153,142.03002460001153,142.5311517000082,45,315,142.5311517000082,142.5311517000082,142.5311517000082,142.5311517000082,142.5311517000082,142.5311517000082,142.5311517000082,142.5311517000082,142.5311517000082,142.8975796000159,142.8975796000159,142.8975796000159,142.8975796000159,142.8975796000159,142.8975796000159,142.8975796000159,142.8975796000159,142.8975796000159,0,1,[0.001204400003189221],[0.3670162999769673],142.8975796000159,143.09779590001563,0.0,143.09779590001563,0,0.0,0,1,1000,num_1,1.8884072999935597,,20,3,2026-03-02_15h39.26.979,2026A_exp2,2022.2.4,59.90940500535313,
1,0,4.9,6.1,1,0,31,31,46,,,,,145.01640880000195,145.66704269999173,145.66704269999173,146.15137880001566,315,315,146.15137880001566,146.15137880001566,146.15137880001566,146.15137880001566,146.15137880001566,146.15137880001566,146.15137880001566,146.15137880001566,146.15137880001566,146.5179846000101,146.5179846000101,146.5179846000101,146.5179846000101,146.5179846000101,146.5179846000101,146.5179846000101,146.5179846000101,146.5179846000101,23,0,,,146.5179846000101,146.71805550000863,6.1,146.71805550000863,1,6.1,1,1,1000,num_4,0.6776092000072822,,20,3,2026-03-02_15h39.26.979,2026A_exp2,2022.2.4,59.90940500535313,
1,0,0.0,0.0,1,0,32,32,73,,,,,147.41868940001586,148.06945050001377,148.06945050001377,148.55372640001588,45,315,148.55372640001588,148.55372640001588,148.55372640001588,148.55372640001588,148.55372640001588,148.55372640001588,148.55372640001588,148.55372640001588,148.55372640001588,148.92030019999947,148.92030019999947,148.92030019999947,148.92030019999947,148.92030019999947,148.92030019999947,148.92030019999947,148.92030019999947,148.92030019999947,0,1,[0.0012304999982006848],[0.3669745000079274],148.92030019999947,149.12036150001222,0.0,149.12036150001222,1,0.0,0,0,1000,num_4,0.8665617000078782,,20,3,2026-03-02_15h39.26.979,2026A_exp2,2022.2.4,59.90940500535313,
1,0,4.9,4.9,0,0,33,33,63,,,,,150.00460240000393,150.65523030000622,150.65523030000622,151.139714799996,45,45,151.139714799996,151.139714799996,151.139714799996,151.139714799996,151.139714799996,151.139714799996,151.139714799996,151.139714799996,151.139714799996,151.5061934000114,151.5061934000114,151.5061934000114,151.5061934000114,151.5061934000114,151.5061934000114,151.5061934000114,151.5061934000114,151.5061934000114,0,1,[0.001243599981535226],[0.36706930000218563],151.5061934000114,151.7063494999893,4.9,151.7063494999893,1,4.9,1,1,1000,num_4,0.8320630000089295,,20,3,2026-03-02_15h39.26.979,2026A_exp2,2022.2.4,59.90940500535313,
1,0,0.0,0.0,1,0,34,34,37,,,,,152.55718360000174,153.20783520000987,153.20783520000987,153.69224030000623,315,315,153.69224030000623,153.69224030000623,153.69224030000623,153.69224030000623,153.69224030000623,153.69224030000623,153.69224030000623,153.69224030000623,153.69224030000623,154.05874880001647,154.05874880001647,154.05874880001647,154.05874880001647,154.05874880001647,154.05874880001647,154.05874880001647,154.05874880001647,154.05874880001647,0,1,[0.0012274999753572047],[0.36709559999872],154.05874880001647,154.25905399999465,0.0,154.25905399999465,1,0.0,0,0,1000,num_4,0.9922465000126977,,20,3,2026-03-02_15h39.26.979,2026A_exp2,2022.2.4,59.90940500535313,
1000,1,4.9,3.7,1,0,35,35,32,,,,,155.2765328999958,155.92716220000875,155.92716220000875,156.41163660000893,315,315,156.41163660000893,156.41163660000893,156.41163660000893,156.41163660000893,156.41163660000893,156.41163660000893,156.41163660000893,156.41163660000893,156.41163660000893,156.77811260000453,156.77811260000453,156.77811260000453,156.77811260000453,156.77811260000453,156.77811260000453,156.77811260000453,156.77811260000453,156.77811260000453,0,1,[0.001204799977131188],[0.3674010999966413],156.77811260000453,156.9797652999987,1000,156.9797652999987,1000,1000,1000,1000,1,num_2,0.8796805999882054,,20,3,2026-03-02_15h39.26.979,2026A_exp2,2022.2.4,59.90940500535313,
1000,1,4.9,4.9,0,0,36,36,42,,,,,157.88266279999516,158.52994090001448,158.52994090001448,159.03129479999188,315,45,159.03129479999188,159.03129479999188,159.03129479999188,159.03129479999188,159.03129479999188,159.03129479999188,159.03129479999188,159.03129479999188,159.03129479999188,159.397358599992,159.397358599992,159.397358599992,159.397358599992,159.397358599992,159.397358599992,159.397358599992,159.397358599992,159.397358599992,23,0,,,159.397358599992,159.59928699999,1000,159.59928699999,1000,1000,1000,1000,0,num_3,0.8118866000149865,,20,3,2026-03-02_15h39.26.979,2026A_exp2,2022.2.4,59.90940500535313,
1,0,4.9,0.0,1,0,37,37,82,,,,,160.43160680000437,161.08245950000128,161.08245950000128,161.5834579000075,315,315,161.5834579000075,161.5834579000075,161.5834579000075,161.5834579000075,161.5834579000075,161.5834579000075,161.5834579000075,161.5834579000075,161.5834579000075,161.94998880001367,161.94998880001367,161.94998880001367,161.94998880001367,161.94998880001367,161.94998880001367,161.94998880001367,161.94998880001367,161.94998880001367,20,1,[0.0012174000148661435],[0.05020890000741929],161.94998880001367,162.1501111999969,0.0,162.1501111999969,0,0.0,0,1,1000,num_1,1.3001021999807563,,20,3,2026-03-02_15h39.26.979,2026A_exp2,2022.2.4,59.90940500535313,
1000,1,3.7,6.1,0,0,38,38,28,,,,,163.46790250000777,164.11216920000152,164.11216920000152,164.60316950001288,315,315,164.60316950001288,164.60316950001288,164.60316950001288,164.60316950001288,164.60316950001288,164.60316950001288,164.60316950001288,164.60316950001288,164.60316950001288,164.96976850001374,164.96976850001374,164.96976850001374,164.96976850001374,164.96976850001374,164.96976850001374,164.96976850001374,164.96976850001374,164.96976850001374,14,4,"[0.0013923000078648329, 0.0335522000095807, 0.08359970001038164, 0.13368850000551902]","[0.017267300019739196, 0.050207799999043345, 0.11696730001131073, 0.2167693999945186]",164.96976850001374,165.1718194000132,1000,165.1718194000132,1000,1000,1000,1000,1,num_2,0.6154214999987744,,20,3,2026-03-02_15h39.26.979,2026A_exp2,2022.2.4,59.90940500535313,
1000,1,0.0,0.0,1,0,39,39,14,,,,,165.80383769999025,166.45451879999018,166.45451879999018,166.95548490001238,315,315,166.95548490001238,166.95548490001238,166.95548490001238,166.95548490001238,166.95548490001238,166.95548490001238,166.95548490001238,166.95548490001238,166.95548490001238,167.32208770001307,167.32208770001307,167.32208770001307,167.32208770001307,167.32208770001307,167.32208770001307,167.32208770001307,167.32208770001307,167.32208770001307,23,0,,,167.32208770001307,167.52439989999402,1000,167.52439989999402,1000,1000,1000,1000,0,num_3,0.5343832000216935,,20,3,2026-03-02_15h39.26.979,2026A_exp2,2022.2.4,59.90940500535313,
1,0,4.9,0.0,1,0,40,40,6,,,,,168.08934169998975,168.74014710000483,168.74014710000483,169.24128230000497,315,315,169.24128230000497,169.24128230000497,169.24128230000497,169.24128230000497,169.24128230000497,169.24128230000497,169.24128230000497,169.24128230000497,169.24128230000497,169.60771949999616,169.60771949999616,169.60771949999616,169.60771949999616,169.60771949999616,169.60771949999616,169.60771949999616,169.60771949999616,169.60771949999616,23,0,,,169.60771949999616,169.8079388999904,0.0,169.8079388999904,0,0.0,0,1,1000,num_1,1.779639100015629,,20,3,2026-03-02_15h39.26.979,2026A_exp2,2022.2.4,59.90940500535313,
1000,1,6.1,3.7,1,0,41,41,0,,,,,171.60957359999884,172.26020509999944,172.26020509999944,172.74462070001755,45,45,172.74462070001755,172.74462070001755,172.74462070001755,172.74462070001755,172.74462070001755,172.74462070001755,172.74462070001755,172.74462070001755,172.74462070001755,173.11091970000416,173.11091970000416,173.11091970000416,173.11091970000416,173.11091970000416,173.11091970000416,173.11091970000416,173.11091970000416,173.11091970000416,1,2,"[0.0012755000207107514, 0.3003861000179313]","[0.283579600014491, 0.36729280001600273]",173.11091970000416,173.31354120001197,1000,173.31354120001197,1000,1000,1000,1000,0,num_3,0.57745129999239,,20,3,2026-03-02_15h39.26.979,2026A_exp2,2022.2.4,59.90940500535313,
1,0,0.0,0.0,0,0,42,42,2,,,,,173.9118556000176,174.57086969999364,174.57086969999364,175.07656449999195,45,45,175.07656449999195,175.07656449999195,175.07656449999195,175.07656449999195,175.07656449999195,175.07656449999195,175.07656449999195,175.07656449999195,175.07656449999195,175.4134924999962,175.4134924999962,175.4134924999962,175.4134924999962,175.4134924999962,175.4134924999962,175.4134924999962,175.4134924999962,175.4134924999962,12,4,"[0.003766499983612448, 0.11451109999325126, 0.16449070000089705, 0.24800910000340082]","[0.06505699999979697, 0.1310755999875255, 0.21436029998585582, 0.281220700009726]",175.4134924999962,175.61352390001412,0.0,175.63041159999557,0,0.0,0,1,1000,num_1,3.4132314000162296,,20,3,2026-03-02_15h39.26.979,2026A_exp2,2022.2.4,59.90940500535313,
0,0,0.0,0.0,1,0,43,43,62,,,,,179.06714160001138,179.7178799000103,179.7178799000103,180.20225790000404,45,45,180.20225790000404,180.20225790000404,180.20225790000404,180.20225790000404,180.20225790000404,180.20225790000404,180.20225790000404,180.20225790000404,180.20225790000404,180.5686677999911,180.5686677999911,180.5686677999911,180.5686677999911,180.5686677999911,180.5686677999911,180.5686677999911,180.5686677999911,180.5686677999911,21,1,[0.31709460000274703],[0.3505810000060592],180.5686677999911,180.76868939999258,0.0,180.76868939999258,1,0.0,0,0,1000,num_4,1.3378910000028554,,20,3,2026-03-02_15h39.26.979,2026A_exp2,2022.2.4,59.90940500535313,
1000,1,6.1,0.0,1,0,44,44,60,,,,,182.13675320000038,182.7874739000108,182.7874739000108,183.2721043000056,315,45,183.2721043000056,183.2721043000056,183.2721043000056,183.2721043000056,183.2721043000056,183.2721043000056,183.2721043000056,183.2721043000056,183.2721043000056,183.63838389999,183.63838389999,183.63838389999,183.63838389999,183.63838389999,183.63838389999,183.63838389999,183.63838389999,183.63838389999,16,5,"[0.017377199983457103, 0.06688489997759461, 0.18397439998807386, 0.21735239998088218, 0.33418549998896196]","[0.033383999980287626, 0.08390139997936785, 0.20074380000005476, 0.25059099998907186, 0.3675318000023253]",183.63838389999,183.840216600016,1000,183.840216600016,1000,1000,1000,1000,0,num_3,0.4751608000078704,,20,3,2026-03-02_15h39.26.979,2026A_exp2,2022.2.4,59.90940500535313,
0,0,0.0,4.9,0,0,45,45,54,,,,,184.33889380001347,184.9897503000102,184.9897503000102,185.4908129000105,315,315,185.4908129000105,185.4908129000105,185.4908129000105,185.4908129000105,185.4908129000105,185.4908129000105,185.4908129000105,185.4908129000105,185.4908129000105,185.85722930001793,185.85722930001793,185.85722930001793,185.85722930001793,185.85722930001793,185.85722930001793,185.85722930001793,185.85722930001793,185.85722930001793,23,0,,,185.85722930001793,186.057298300002,4.9,186.057298300002,1,4.9,1,1,1000,num_4,2.4896565999952145,,20,3,2026-03-02_15h39.26.979,2026A_exp2,2022.2.4,59.90940500535313,
1000,1,6.1,0.0,0,0,46,46,19,,,,,188.57647480000742,189.227275000012,189.227275000012,189.71175360001507,45,45,189.71175360001507,189.71175360001507,189.71175360001507,189.71175360001507,189.71175360001507,189.71175360001507,189.71175360001507,189.71175360001507,189.71175360001507,190.07816530001583,190.07816530001583,190.07816530001583,190.07816530001583,190.07816530001583,190.07816530001583,190.07816530001583,190.07816530001583,190.07816530001583,23,0,,,190.07816530001583,190.2799146999896,1000,190.2799146999896,1000,1000,1000,1000,0,num_3,0.4755240000085905,,20,3,2026-03-02_15h39.26.979,2026A_exp2,2022.2.4,59.90940500535313,
1,0,0.0,0.0,0,0,47,47,81,,,,,190.7787631000101,191.4294724999927,191.4294724999927,191.93048579999595,45,315,191.93048579999595,191.93048579999595,191.93048579999595,191.93048579999595,191.93048579999595,191.93048579999595,191.93048579999595,191.93048579999595,191.93048579999595,192.2970123999985,192.2970123999985,192.2970123999985,192.2970123999985,192.2970123999985,192.2970123999985,192.2970123999985,192.2970123999985,192.2970123999985,1,2,"[0.0012363000132609159, 0.11680379998870194]","[0.10017920000245795, 0.3670730000012554]",192.2970123999985,192.4971341000055,0.0,192.4971341000055,1,0.0,0,0,1000,num_4,0.9138834000041243,,20,3,2026-03-02_15h39.26.979,2026A_exp2,2022.2.4,59.90940500535313,
0,0,0.0,0.0,1,0,48,48,8,,,,,193.43127440000535,194.0822058999911,194.0822058999911,194.56640529999277,315,45,194.56640529999277,194.56640529999277,194.56640529999277,194.56640529999277,194.56640529999277,194.56640529999277,194.56640529999277,194.56640529999277,194.56640529999277,194.93285179999657,194.93285179999657,194.93285179999657,194.93285179999657,194.93285179999657,194.93285179999657,194.93285179999657,194.93285179999657,194.93285179999657,6,2,"[0.0012448999914340675, 0.15021899997373112]","[0.05012419997365214, 0.36710619999212213]",194.93285179999657,195.13326520001283,0.0,195.13326520001283,1,0.0,0,0,1000,num_4,0.5649810000031721,,20,3,2026-03-02_15h39.26.979,2026A_exp2,2022.2.4,59.90940500535313,
1000,1,0.0,4.9,1,0,49,49,51,,,,,195.7172617999895,196.36770850000903,196.36770850000903,196.85228749999078,315,315,196.85228749999078,196.85228749999078,196.85228749999078,196.85228749999078,196.85228749999078,196.85228749999078,196.85228749999078,196.85228749999078,196.85228749999078,197.21853280000505,197.21853280000505,197.21853280000505,197.21853280000505,197.21853280000505,197.21853280000505,197.21853280000505,197.21853280000505,197.21853280000505,10,4,"[0.03370989998802543, 0.08339549999800511, 0.15023649999056943, 0.23330949997762218]","[0.049896899989107624, 0.11658669999451376, 0.16667320000124164, 0.3672725999786053]",197.21853280000505,197.42073370001162,1000,197.42073370001162,1000,1000,1000,1000,1,num_2,0.6135751999972854,,20,3,2026-03-02_15h39.26.979,2026A_exp2,2022.2.4,59.90940500535313,
1,0,4.9,0.0,1,0,50,50,4,,,,,198.05260560000897,198.70338920000358,198.70338920000358,199.20458039999357,315,45,199.20458039999357,199.20458039999357,199.20458039999357,199.20458039999357,199.20458039999357,199.20458039999357,199.20458039999357,199.20458039999357,199.20458039999357,199.5709482000093,199.5709482000093,199.5709482000093,199.5709482000093,199.5709482000093,199.5709482000093,199.5709482000093,199.5709482000093,199.5709482000093,22,1,[0.0012091000098735094],[0.017624300002353266],199.5709482000093,199.77130399999442,0.0,199.77130399999442,0,0.0,0,1,1000,num_1,1.0557609999959823,,20,3,2026-03-02_15h39.26.979,2026A_exp2,2022.2.4,59.90940500535313,
1000,1,4.9,0.0,0,0,51,51,58,,,,,200.8555761000025,201.50623210001504,201.50623210001504,201.99053850001656,45,45,201.99053850001656,201.99053850001656,201.99053850001656,201.99053850001656,201.99053850001656,201.99053850001656,201.99053850001656,201.99053850001656,201.99053850001656,202.35704970001825,202.35704970001825,202.35704970001825,202.35704970001825,202.35704970001825,202.35704970001825,202.35704970001825,202.35704970001825,202.35704970001825,23,0,,,202.35704970001825,202.55921800000942,1000,202.55921800000942,1000,1000,1000,1000,0,num_3,0.4757707000244409,,20,3,2026-03-02_15h39.26.979,2026A_exp2,2022.2.4,59.90940500535313,
1000,1,6.1,3.7,1,0,52,52,24,,,,,203.05771300001652,203.70830530000967,203.70830530000967,204.19288250000682,45,315,204.19288250000682,204.19288250000682,204.19288250000682,204.19288250000682,204.19288250000682,204.19288250000682,204.19288250000682,204.19288250000682,204.19288250000682,204.5592072000145,204.5592072000145,204.5592072000145,204.5592072000145,204.5592072000145,204.5592072000145,204.5592072000145,204.5592072000145,204.5592072000145,23,0,,,204.5592072000145,204.7609374000167,1000,204.7609374000167,1000,1000,1000,1000,0,num_3,0.5546412999974564,,20,3,2026-03-02_15h39.26.979,2026A_exp2,2022.2.4,59.90940500535313,
1,0,4.9,4.9,1,0,53,53,89,,,,,205.34337600000435,205.99406850000378,205.99406850000378,206.49504650000017,45,45,206.49504650000017,206.49504650000017,206.49504650000017,206.49504650000017,206.49504650000017,206.49504650000017,206.49504650000017,206.49504650000017,206.49504650000017,206.84492110001156,206.84492110001156,206.84492110001156,206.84492110001156,206.84492110001156,206.84492110001156,206.84492110001156,206.84492110001156,206.84492110001156,19,3,"[0.03337150000152178, 0.2669251000043005, 0.31718199999886565]","[0.05030380000243895, 0.2837098999880254, 0.3334839000017382]",206.84492110001156,207.04495090001728,4.9,207.04495090001728,1,4.9,1,1,1000,num_4,0.9820584999979474,,20,3,2026-03-02_15h39.26.979,2026A_exp2,2022.2.4,59.90940500535313,
1000,1,0.0,0.0,1,0,54,54,7,,,,,208.0460662000114,208.7069415000151,208.7069415000151,209.19780100000207,315,45,209.19780100000207,209.19780100000207,209.19780100000207,209.19780100000207,209.19780100000207,209.19780100000207,209.19780100000207,209.19780100000207,209.19780100000207,209.56431899999734,209.56431899999734,209.56431899999734,209.56431899999734,209.56431899999734,209.56431899999734,209.56431899999734,209.56431899999734,209.56431899999734,20,2,"[0.06615369999781251, 0.20026379998307675]","[0.09982239999226294, 0.23362519999500364]",209.56431899999734,209.76657999999588,1000,209.76657999999588,1000,1000,1000,1000,0,num_3,1.268035500019323,,20,3,2026-03-02_15h39.26.979,2026A_exp2,2022.2.4,59.90940500535313,
1,0,0.0,4.9,0,0,55,55,17,,,,,211.06594719999703,211.71644560000277,211.71644560000277,212.21766449999996,315,315,212.21766449999996,212.21766449999996,212.21766449999996,212.21766449999996,212.21766449999996,212.21766449999996,212.21766449999996,212.21766449999996,212.21766449999996,212.56732269999338,212.56732269999338,212.56732269999338,212.56732269999338,212.56732269999338,212.56732269999338,212.56732269999338,212.56732269999338,212.56732269999338,3,3,"[0.0012424000015016645, 0.050084999995306134, 0.13358969998080283]","[0.017172399995615706, 0.10028949999832548, 0.350409699982265]",212.56732269999338,212.76743510001688,0.0,212.76743510001688,0,0.0,0,1,1000,num_1,1.035444799985271,,20,3,2026-03-02_15h39.26.979,2026A_exp2,2022.2.4,59.90940500535313,
1,0,0.0,0.0,1,0,56,56,66,,,,,213.8183818999969,214.46908330000588,214.46908330000588,214.95350450000842,45,45,214.95350450000842,214.95350450000842,214.95350450000842,214.95350450000842,214.95350450000842,214.95350450000842,214.95350450000842,214.95350450000842,214.95350450000842,215.32000680000056,215.32000680000056,215.32000680000056,215.32000680000056,215.32000680000056,215.32000680000056,215.32000680000056,215.32000680000056,215.32000680000056,23,0,,,215.32000680000056,215.5199738999945,0.0,215.5199738999945,1,0.0,0,0,1000,num_4,2.2509043000172824,,20,3,2026-03-02_15h39.26.979,2026A_exp2,2022.2.4,59.90940500535313,
1,0,4.9,6.1,0,0,57,57,15,,,,,217.78903539999737,218.4397886999941,218.4397886999941,218.9240744000126,315,45,218.9240744000126,218.9240744000126,218.9240744000126,218.9240744000126,218.9240744000126,218.9240744000126,218.9240744000126,218.9240744000126,218.9240744000126,219.29055959999096,219.29055959999096,219.29055959999096,219.29055959999096,219.29055959999096,219.29055959999096,219.29055959999096,219.29055959999096,219.29055959999096,23,0,,,219.29055959999096,219.49088490000577,4.9,219.49088490000577,0,4.9,1,0,1000,num_1,1.7275590000208467,,20,3,2026-03-02_15h39.26.979,2026A_exp2,2022.2.4,59.90940500535313,
1,0,0.0,6.1,0,0,58,58,68,,,,,221.24254289999953,221.89334609999787,221.89334609999787,222.37774880000507,315,315,222.37774880000507,222.37774880000507,222.37774880000507,222.37774880000507,222.37774880000507,222.37774880000507,222.37774880000507,222.37774880000507,222.37774880000507,222.74408340000082,222.74408340000082,222.74408340000082,222.74408340000082,222.74408340000082,222.74408340000082,222.74408340000082,222.74408340000082,222.74408340000082,23,0,,,222.74408340000082,222.94424440001603,0.0,222.94424440001603,0,0.0,0,1,1000,num_1,0.8188281999900937,,20,3,2026-03-02_15h39.26.979,2026A_exp2,2022.2.4,59.90940500535313,
1,0,0.0,4.9,0,0,59,59,71,,,,,223.79521690000547,224.42924160000985,224.42924160000985,224.9457265000092,45,315,224.9457265000092,224.9457265000092,224.9457265000092,224.9457265000092,224.9457265000092,224.9457265000092,224.9457265000092,224.9457265000092,224.9457265000092,225.29672849999042,225.29672849999042,225.29672849999042,225.29672849999042,225.29672849999042,225.29672849999042,225.29672849999042,225.29672849999042,225.29672849999042,18,4,"[0.05981690000044182, 0.1473788000002969, 0.29746570001589134, 0.3474841999995988]","[0.07019550001132302, 0.16380420001223683, 0.31423780001932755, 0.3642617000150494]",225.29672849999042,225.49699469999177,0.0,225.49699469999177,0,0.0,0,1,1000,num_1,0.5384055000031367,,20,3,2026-03-02_15h39.26.979,2026A_exp2,2022.2.4,59.90940500535313,
1000,1,3.7,3.7,1,0,60,60,40,,,,,226.06393830000889,226.7147671999992,226.7147671999992,227.19926540000597,315,315,227.19926540000597,227.19926540000597,227.19926540000597,227.19926540000597,227.19926540000597,227.19926540000597,227.19926540000597,227.19926540000597,227.19926540000597,227.56559040001594,227.56559040001594,227.56559040001594,227.56559040001594,227.56559040001594,227.56559040001594,227.56559040001594,227.56559040001594,227.56559040001594,18,1,[0.0011956999951507896],[0.08344740001484752],227.56559040001594,227.768067099998,1000,227.768067099998,1000,1000,1000,1000,1,num_2,0.811104799999157,,20,3,2026-03-02_15h39.26.979,2026A_exp2,2022.2.4,59.90940500535313,
0,0,0.0,6.1,1,0,61,61,76,,,,,228.5999237000069,229.25868739999714,229.25868739999714,229.75598439999158,315,315,229.75598439999158,229.75598439999158,229.75598439999158,229.75598439999158,229.75598439999158,229.75598439999158,229.75598439999158,229.75598439999158,229.75598439999158,230.11813770001754,230.11813770001754,230.11813770001754,230.11813770001754,230.11813770001754,230.11813770001754,230.11813770001754,230.11813770001754,230.11813770001754,14,4,"[0.06577439999091439, 0.18272819998674095, 0.24930589998257346, 0.2991184999991674]","[0.13252109999302775, 0.19890469999518245, 0.2825562999933027, 0.33230249999905936]",230.11813770001754,230.3179982000147,0.0,230.3179982000147,0,0.0,0,1,1000,num_1,0.7250206999888178,,20,3,2026-03-02_15h39.26.979,2026A_exp2,2022.2.4,59.90940500535313,
1000,1,6.1,4.9,1,0,62,62,16,,,,,231.06901929999003,231.7197642000101,231.7197642000101,232.20430990000023,315,315,232.20430990000023,232.20430990000023,232.20430990000023,232.20430990000023,232.20430990000023,232.20430990000023,232.20430990000023,232.20430990000023,232.20430990000023,232.5706099999952,232.5706099999952,232.5706099999952,232.5706099999952,232.5706099999952,232.5706099999952,232.5706099999952,232.5706099999952,232.5706099999952,23,0,,,232.5706099999952,232.7709746999899,1000,232.7709746999899,1000,1000,1000,1000,1,num_2,1.0163308999908622,,20,3,2026-03-02_15h39.26.979,2026A_exp2,2022.2.4,59.90940500535313,
1,0,0.0,0.0,1,0,63,63,41,,,,,233.8050086000003,234.45590289999382,234.45590289999382,234.95697050000308,315,45,234.95697050000308,234.95697050000308,234.95697050000308,234.95697050000308,234.95697050000308,234.95697050000308,234.95697050000308,234.95697050000308,234.95697050000308,235.32338129999698,235.32338129999698,235.32338129999698,235.32338129999698,235.32338129999698,235.32338129999698,235.32338129999698,235.32338129999698,235.32338129999698,3,1,[0.05018780002137646],[0.3672861000231933],235.32338129999698,235.52357290001237,0.0,235.52357290001237,0,0.0,0,1,1000,num_1,1.5434413999901153,,20,3,2026-03-02_15h39.26.979,2026A_exp2,2022.2.4,59.90940500535313,
0,0,0.0,3.7,1,0,64,64,21,,,,,237.0916763000132,237.7424011999974,237.7424011999974,238.22679230000358,45,315,238.22679230000358,238.22679230000358,238.22679230000358,238.22679230000358,238.22679230000358,238.22679230000358,238.22679230000358,238.22679230000358,238.22679230000358,238.593303200003,238.593303200003,238.593303200003,238.593303200003,238.593303200003,238.593303200003,238.593303200003,238.593303200003,238.593303200003,1,2,"[0.0012347000010777265, 0.26674999998067506]","[0.24999739998020232, 0.3671846999786794]",238.593303200003,238.7935395000095,0.0,238.7935395000095,0,0.0,0,1,1000,num_1,0.5854300999781117,,20,3,2026-03-02_15h39.26.979,2026A_exp2,2022.2.4,59.90940500535313,
1000,1,0.0,0.0,1,0,65,65,29,,,,,239.41076110000722,240.0613885000057,240.0613885000057,240.54575250000926,315,315,240.54575250000926,240.54575250000926,240.54575250000926,240.54575250000926,240.54575250000926,240.54575250000926,240.54575250000926,240.54575250000926,240.54575250000926,240.91201709999586,240.91201709999586,240.91201709999586,240.91201709999586,240.91201709999586,240.91201709999586,240.91201709999586,240.91201709999586,240.91201709999586,23,0,,,240.91201709999586,241.11472869999125,1000,241.11472869999125,1000,1000,1000,1000,0,num_3,0.9036672000074759,,20,3,2026-03-02_15h39.26.979,2026A_exp2,2022.2.4,59.90940500535313,
0,0,3.7,4.9,1,0,66,66,3,,,,,242.0467392000137,242.69747360001202,242.69747360001202,243.19848479999928,45,45,243.19848479999928,243.19848479999928,243.19848479999928,243.19848479999928,243.19848479999928,243.19848479999928,243.19848479999928,243.19848479999928,243.19848479999928,243.56486610000138,243.56486610000138,243.56486610000138,243.56486610000138,243.56486610000138,243.56486610000138,243.56486610000138,243.56486610000138,243.56486610000138,18,1,[0.0011839999933727086],[0.08307459999923594],243.56486610000138,243.76525329999276,3.7,243.76525329999276,0,3.7,1,0,1000,num_1,0.8941513999889139,,20,3,2026-03-02_15h39.26.979,2026A_exp2,2022.2.4,59.90940500535313,
1,0,6.1,0.0,1,0,67,67,13,,,,,244.68270249999478,245.33341300001484,245.33341300001484,245.8176792000013,315,315,245.8176792000013,245.8176792000013,245.8176792000013,245.8176792000013,245.8176792000013,245.8176792000013,245.8176792000013,245.8176792000013,245.8176792000013,246.18417940000654,246.18417940000654,246.18417940000654,246.18417940000654,246.18417940000654,246.18417940000654,246.18417940000654,246.18417940000654,246.18417940000654,23,0,,,246.18417940000654,246.3843964000116,0.0,246.3843964000116,0,0.0,0,1,1000,num_1,0.8900083999906201,,20,3,2026-03-02_15h39.26.979,2026A_exp2,2022.2.4,59.90940500535313,
1000,1,0.0,0.0,0,0,68,68,20,,,,,247.3018895999994,247.95269229999394,247.95269229999394,248.43711800000165,315,45,248.43711800000165,248.43711800000165,248.43711800000165,248.43711800000165,248.43711800000165,248.43711800000165,248.43711800000165,248.43711800000165,248.43711800000165,248.80336160000297,248.80336160000297,248.80336160000297,248.80336160000297,248.80336160000297,248.80336160000297,248.80336160000297,248.80336160000297,248.80336160000297,23,0,,,248.80336160000297,249.00575660000322,1000,249.00575660000322,1000,1000,1000,1000,1,num_2,0.7657987000129651,,20,3,2026-03-02_15h39.26.979,2026A_exp2,2022.2.4,59.90940500535313,
1,0,3.7,0.0,1,0,69,69,74,,,,,249.79005380001036,250.43939159999718,250.43939159999718,250.93958110001404,315,315,250.93958110001404,250.93958110001404,250.93958110001404,250.93958110001404,250.93958110001404,250.93958110001404,250.93958110001404,250.93958110001404,250.93958110001404,251.30603410000913,251.30603410000913,251.30603410000913,251.30603410000913,251.30603410000913,251.30603410000913,251.30603410000913,251.30603410000913,251.30603410000913,20,2,"[0.20028620000812225, 0.3504508000041824]","[0.21690480000688694, 0.3670189999975264]",251.30603410000913,251.5061066999915,0.0,251.5061066999915,0,0.0,0,1,1000,num_1,1.240012599999318,,20,3,2026-03-02_15h39.26.979,2026A_exp2,2022.2.4,59.90940500535313,
1000,1,0.0,0.0,0,0,70,70,69,,,,,252.77393850000226,253.42467169999145,253.42467169999145,253.90922850000788,45,45,253.90922850000788,253.90922850000788,253.90922850000788,253.90922850000788,253.90922850000788,253.90922850000788,253.90922850000788,253.90922850000788,253.90922850000788,254.27566820001812,254.27566820001812,254.27566820001812,254.27566820001812,254.27566820001812,254.27566820001812,254.27566820001812,254.27566820001812,254.27566820001812,23,0,,,254.27566820001812,254.47782780000125,1000,254.47782780000125,1000,1000,1000,1000,0,num_3,1.645702399982838,,20,3,2026-03-02_15h39.26.979,2026A_exp2,2022.2.4,59.90940500535313,
1000,1,4.9,0.0,1,0,71,71,72,,,,,256.1441048000124,256.79457190001267,256.79457190001267,257.2957681000116,45,45,257.2957681000116,257.2957681000116,257.2957681000116,257.2957681000116,257.2957681000116,257.2957681000116,257.2957681000116,257.2957681000116,257.2957681000116,257.6624271000037,257.6624271000037,257.6624271000037,257.6624271000037,257.6624271000037,257.6624271000037,257.6624271000037,257.6624271000037,257.6624271000037,8,2,"[0.05013619997771457, 0.10010449998662807]","[0.06681039999239147, 0.3337155999906827]",257.6624271000037,257.86440809999476,1000,257.86440809999476,1000,1000,1000,1000,0,num_3,0.46577339997747913,,20,3,2026-03-02_15h39.26.979,2026A_exp2,2022.2.4,59.90940500535313,
1,0,0.0,4.9,1,0,72,72,45,,,,,258.34626389999175,258.99711430000025,258.99711430000025,259.4981941000151,45,45,259.4981941000151,259.4981941000151,259.4981941000151,259.4981941000151,259.4981941000151,259.4981941000151,259.4981941000151,259.4981941000151,259.4981941000151,259.86448270000983,259.86448270000983,259.86448270000983,259.86448270000983,259.86448270000983,259.86448270000983,259.86448270000983,259.86448270000983,259.86448270000983,11,3,"[0.067052500002319, 0.1670303999853786, 0.36719479999737814]","[0.08352109999395907, 0.3339259999920614, 0.36720019998028874]",259.86448270000983,260.0646351999894,4.9,260.0646351999894,1,4.9,1,1,1000,num_4,0.6825402999820653,,20,3,2026-03-02_15h39.26.979,2026A_exp2,2022.2.4,59.90940500535313,
1000,1,0.0,6.1,1,0,73,73,88,,,,,260.76537440001266,261.4161252999911,261.4161252999911,261.9004644000088,45,45,261.9004644000088,261.9004644000088,261.9004644000088,261.9004644000088,261.9004644000088,261.9004644000088,261.9004644000088,261.9004644000088,261.9004644000088,262.2670455999905,262.2670455999905,262.2670455999905,262.2670455999905,262.2670455999905,262.2670455999905,262.2670455999905,262.2670455999905,262.2670455999905,4,2,"[0.033467000001110137, 0.11694360000547022]","[0.08355730000766926, 0.36730650000390597]",262.2670455999905,262.4691265000147,1000,262.4691265000147,1000,1000,1000,1000,1,num_2,0.7100431000289973,,20,3,2026-03-02_15h39.26.979,2026A_exp2,2022.2.4,59.90940500535313,
1000,1,0.0,6.1,0,0,74,74,34,,,,,263.2012090999924,263.851791699999,263.851791699999,264.35305239999434,315,315,264.35305239999434,264.35305239999434,264.35305239999434,264.35305239999434,264.35305239999434,264.35305239999434,264.35305239999434,264.35305239999434,264.35305239999434,264.70268109999597,264.70268109999597,264.70268109999597,264.70268109999597,264.70268109999597,264.70268109999597,264.70268109999597,264.70268109999597,264.70268109999597,7,5,"[0.0012522000179160386, 0.06701640001847409, 0.10037960001500323, 0.2838820999895688, 0.31720099999802187]","[0.03357130000949837, 0.08365990000311285, 0.26710430000093766, 0.30059490000712685, 0.35054280000622384]",264.70268109999597,264.9045946999977,1000,264.9045946999977,1000,1000,1000,1000,1,num_2,0.4107984000002034,,20,3,2026-03-02_15h39.26.979,2026A_exp2,2022.2.4,59.90940500535313,
1000,1,0.0,0.0,0,0,75,75,61,,,,,265.33681959999376,265.98723900000914,265.98723900000914,266.4718483000179,315,315,266.4718483000179,266.4718483000179,266.4718483000179,266.4718483000179,266.4718483000179,266.4718483000179,266.4718483000179,266.4718483000179,266.4718483000179,266.83816990000196,266.83816990000196,266.83816990000196,266.83816990000196,266.83816990000196,266.83816990000196,266.83816990000196,266.83816990000196,266.83816990000196,23,0,,,266.83816990000196,267.0403173000086,1000,267.0403173000086,1000,1000,1000,1000,0,num_3,1.7625039000122342,,20,3,2026-03-02_15h39.26.979,2026A_exp2,2022.2.4,59.90940500535313,
1,0,3.7,4.9,1,0,76,76,39,,,,,268.82342930001323,269.47420379999676,269.47420379999676,269.97521309999865,315,315,269.97521309999865,269.97521309999865,269.97521309999865,269.97521309999865,269.97521309999865,269.97521309999865,269.97521309999865,269.97521309999865,269.97521309999865,270.3249566000013,270.3249566000013,270.3249566000013,270.3249566000013,270.3249566000013,270.3249566000013,270.3249566000013,270.3249566000013,270.3249566000013,17,4,"[0.0013119999784976244, 0.050078999978723004, 0.10002879999228753, 0.20035899998038076]","[0.016899399983230978, 0.06669769997824915, 0.11663409997709095, 0.23364299998502247]",270.3249566000013,270.52517710000393,4.9,270.54195240000263,1,4.9,1,1,1000,num_4,0.7488476999860723,,20,3,2026-03-02_15h39.26.979,2026A_exp2,2022.2.4,59.90940500535313,
1000,1,0.0,4.9,0,0,77,77,11,,,,,271.3092256000091,271.9600103000121,271.9600103000121,272.4444947000011,315,45,272.4444947000011,272.4444947000011,272.4444947000011,272.4444947000011,272.4444947000011,272.4444947000011,272.4444947000011,272.4444947000011,272.4444947000011,272.81083259999286,272.81083259999286,272.81083259999286,272.81083259999286,272.81083259999286,272.81083259999286,272.81083259999286,272.81083259999286,272.81083259999286,2,2,"[0.0012107999937143177, 0.08358750000479631]","[0.06677549998858012, 0.36721259998739697]",272.81083259999286,273.01273879999644,1000,273.01273879999644,1000,1000,1000,1000,1,num_2,0.622604100004537,,20,3,2026-03-02_15h39.26.979,2026A_exp2,2022.2.4,59.90940500535313,
1,0,0.0,0.0,1,0,78,78,18,,,,,273.66160210000817,274.3123900000064,274.3123900000064,274.8135229999898,45,45,274.8135229999898,274.8135229999898,274.8135229999898,274.8135229999898,274.8135229999898,274.8135229999898,274.8135229999898,274.8135229999898,274.8135229999898,275.17993780001416,275.17993780001416,275.17993780001416,275.17993780001416,275.17993780001416,275.17993780001416,275.17993780001416,275.17993780001416,275.17993780001416,23,0,,,275.17993780001416,275.3801262000052,0.0,275.3801262000052,1,0.0,0,0,1000,num_4,1.3266777000098955,,20,3,2026-03-02_15h39.26.979,2026A_exp2,2022.2.4,59.90940500535313,
1,0,0.0,0.0,0,0,79,79,64,,,,,276.73134240001673,277.3821370000078,277.3821370000078,277.86641380001674,315,315,277.86641380001674,277.86641380001674,277.86641380001674,277.86641380001674,277.86641380001674,277.86641380001674,277.86641380001674,277.86641380001674,277.86641380001674,278.2329338999989,278.2329338999989,278.2329338999989,278.2329338999989,278.2329338999989,278.2329338999989,278.2329338999989,278.2329338999989,278.2329338999989,17,3,"[0.05037420001463033, 0.20037010000669397, 0.3172950000152923]","[0.08318960000178777, 0.2502419000084046, 0.33351029999903403]",278.2329338999989,278.4330675000092,0.0,278.4330675000092,0,0.0,0,1,1000,num_1,1.137581200018758,,20,3,2026-03-02_15h39.26.979,2026A_exp2,2022.2.4,59.90940500535313,
1,0,0.0,6.1,0,0,80,80,5,,,,,279.6009769999946,280.2516750000068,280.2516750000068,280.75269709998975,45,45,280.75269709998975,280.75269709998975,280.75269709998975,280.75269709998975,280.75269709998975,280.75269709998975,280.75269709998975,280.75269709998975,280.75269709998975,281.10245599999325,281.10245599999325,281.10245599999325,281.10245599999325,281.10245599999325,281.10245599999325,281.10245599999325,281.10245599999325,281.10245599999325,19,1,[0.10034030000679195],[0.15041530001326464],281.10245599999325,281.3025704000029,0.0,281.3025704000029,0,0.0,0,1,1000,num_1,0.7882007000152953,,20,3,2026-03-02_15h39.26.979,2026A_exp2,2022.2.4,59.90940500535313,
0,0,0.0,4.9,1,0,81,81,56,,,,,282.11999919998925,282.7708538000006,282.7708538000006,283.2548431000032,45,315,283.2548431000032,283.2548431000032,283.2548431000032,283.2548431000032,283.2548431000032,283.2548431000032,283.2548431000032,283.2548431000032,283.2548431000032,283.62165270000696,283.62165270000696,283.62165270000696,283.62165270000696,283.62165270000696,283.62165270000696,283.62165270000696,283.62165270000696,283.62165270000696,23,0,,,283.62165270000696,283.82161690000794,0.0,283.82161690000794,0,0.0,0,1,1000,num_1,0.7254804000258446,,20,3,2026-03-02_15h39.26.979,2026A_exp2,2022.2.4,59.90940500535313,
1,0,0.0,0.0,1,0,82,82,43,,,,,284.57250850001583,285.2233369000023,285.2233369000023,285.7077011000074,315,315,285.7077011000074,285.7077011000074,285.7077011000074,285.7077011000074,285.7077011000074,285.7077011000074,285.7077011000074,285.7077011000074,285.7077011000074,286.07407060000696,286.07407060000696,286.07407060000696,286.07407060000696,286.07407060000696,286.07407060000696,286.07407060000696,286.07407060000696,286.07407060000696,23,0,,,286.07407060000696,286.27417499999865,0.0,286.27417499999865,1,0.0,0,0,1000,num_4,0.935966000019107,,20,3,2026-03-02_15h39.26.979,2026A_exp2,2022.2.4,59.90940500535313,
1000,1,6.1,3.7,1,0,83,83,10,,,,,287.2418726000178,287.8926104000129,287.8926104000129,288.3770444999973,45,45,288.3770444999973,288.3770444999973,288.3770444999973,288.3770444999973,288.3770444999973,288.3770444999973,288.3770444999973,288.3770444999973,288.3770444999973,288.7434324999922,288.7434324999922,288.7434324999922,288.7434324999922,288.7434324999922,288.7434324999922,288.7434324999922,288.7434324999922,288.7434324999922,23,0,,,288.7434324999922,288.9459121999971,1000,288.9459121999971,1000,1000,1000,1000,0,num_3,0.47262939999927767,,20,3,2026-03-02_15h39.26.979,2026A_exp2,2022.2.4,59.90940500535313,
1,0,4.9,0.0,0,0,84,84,48,,,,,289.44402650001575,290.0949445000151,290.0949445000151,290.59598159999587,45,45,290.59598159999587,290.59598159999587,290.59598159999587,290.59598159999587,290.59598159999587,290.59598159999587,290.59598159999587,290.59598159999587,290.59598159999587,290.9623276999919,290.9623276999919,290.9623276999919,290.9623276999919,290.9623276999919,290.9623276999919,290.9623276999919,290.9623276999919,290.9623276999919,21,1,[0.001219199999468401],[0.033169600006658584],290.9623276999919,291.162458900013,4.9,291.162458900013,1,4.9,1,1,1000,num_4,0.7685640999989118,,20,3,2026-03-02_15h39.26.979,2026A_exp2,2022.2.4,59.90940500535313,
1,0,0.0,0.0,1,0,85,85,70,,,,,291.94639830000233,292.59728300001007,292.59728300001007,293.0817448000016,45,315,293.0817448000016,293.0817448000016,293.0817448000016,293.0817448000016,293.0817448000016,293.0817448000016,293.0817448000016,293.0817448000016,293.0817448000016,293.44813710000017,293.44813710000017,293.44813710000017,293.44813710000017,293.44813710000017,293.44813710000017,293.44813710000017,293.44813710000017,293.44813710000017,21,1,[0.16679680001107045],[0.1999898999929428],293.44813710000017,293.6482983000169,0.0,293.6482983000169,1,0.0,0,0,1000,num_4,1.594581699988339,,20,3,2026-03-02_15h39.26.979,2026A_exp2,2022.2.4,59.90940500535313,
1000,1,0.0,0.0,1,0,86,86,47,,,,,295.2666257999954,295.91724030001205,295.91724030001205,296.4183817000012,45,45,296.4183817000012,296.4183817000012,296.4183817000012,296.4183817000012,296.4183817000012,296.4183817000012,296.4183817000012,296.4183817000012,296.4183817000012,296.768173199991,296.768173199991,296.768173199991,296.768173199991,296.768173199991,296.768173199991,296.768173199991,296.768173199991,296.768173199991,20,1,[0.2672267999732867],[0.28397489999770187],296.768173199991,296.9700578000047,1000,296.98501160001615,1000,1000,1000,1000,1,num_2,0.8340851000102703,,20,3,2026-03-02_15h39.26.979,2026A_exp2,2022.2.4,59.90940500535313,
1000,1,4.9,0.0,0,0,87,87,36,,,,,297.835857099999,298.48655490000965,298.48655490000965,298.98752049999894,45,45,298.98752049999894,298.98752049999894,298.98752049999894,298.98752049999894,298.98752049999894,298.98752049999894,298.98752049999894,298.98752049999894,298.98752049999894,299.3540570999903,299.3540570999903,299.3540570999903,299.3540570999903,299.3540570999903,299.3540570999903,299.3540570999903,299.3540570999903,299.3540570999903,16,5,"[0.0011989000195171684, 0.1502704000158701, 0.18367769999895245, 0.26706270000431687, 0.3505721999972593]","[0.017255200014915317, 0.16692000001785345, 0.20037239999510348, 0.3003898000170011, 0.3670987000223249]",299.3540570999903,299.5560107000056,1000,299.5560107000056,1000,1000,1000,1000,0,num_3,0.4622525000013411,,20,3,2026-03-02_15h39.26.979,2026A_exp2,2022.2.4,59.90940500535313,
1000,1,4.9,3.7,1,0,88,88,67,,,,,300.0381246000179,300.68872229999397,300.68872229999397,301.18986980000045,45,45,301.18986980000045,301.18986980000045,301.18986980000045,301.18986980000045,301.18986980000045,301.18986980000045,301.18986980000045,301.18986980000045,301.18986980000045,301.55624460001127,301.55624460001127,301.55624460001127,301.55624460001127,301.55624460001127,301.55624460001127,301.55624460001127,301.55624460001127,301.55624460001127,16,3,"[0.13360269999247976, 0.25029260001610965, 0.3506165000144392]","[0.15019340001163073, 0.31730620001326315, 0.3671772000088822]",301.55624460001127,301.7583264000132,1000,301.7583264000132,1000,1000,1000,1000,1,num_2,0.9558038000250235,,20,3,2026-03-02_15h39.26.979,2026A_exp2,2022.2.4,59.90940500535313,
1000,1,0.0,0.0,1,0,89,89,23,,,,,302.74075040000025,303.39153379999334,303.39153379999334,303.8925725000154,45,45,303.8925725000154,303.8925725000154,303.8925725000154,303.8925725000154,303.8925725000154,303.8925725000154,303.8925725000154,303.8925725000154,303.8925725000154,304.2589542999922,304.2589542999922,304.2589542999922,304.2589542999922,304.2589542999922,304.2589542999922,304.2589542999922,304.2589542999922,304.2589542999922,17,5,"[0.033683399989968166, 0.08354639998287894, 0.11709869999322109, 0.16656129999319091, 0.2501607000012882]","[0.06700069998623803, 0.10021959998994134, 0.13364600000204518, 0.18319270000210963, 0.2669445000065025]",304.2589542999922,304.4611919000163,1000,304.4611919000163,1000,1000,1000,1000,0,num_3,0.4937420000205748,,20,3,2026-03-02_15h39.26.979,2026A_exp2,2022.2.4,59.90940500535313,
,,,,,,,,,,,,,,,,,,,,,,,,,,,,,,,,,,,,,,,,,,,,,,,,,,,,304.98484419999295,,,,,,,
