validity,detectorcomp,contrastCW,contrastCCW,precueCWorCCW,block_80trials.thisRepN,block_80trials.thisTrialN,block_80trials.thisN,block_80trials.thisIndex,etRecord.started,etRecord.stopped,text.started,text.stopped,text_4.started,text_4.stopped,text_6.started,text_6.stopped,oriCW,oriCCW,roi_2.started,grating_UR.started,grating_UL.started,grating_LR.started,grating_LL.started,noise_UR.started,noise_UL.started,noise_LR.started,noise_LL.started,roi_2.stopped,grating_UR.stopped,grating_UL.stopped,grating_LR.stopped,grating_LL.stopped,noise_UR.stopped,noise_UL.stopped,noise_LR.stopped,noise_LL.stopped,outframe,roi_2.numLooks,roi_2.timesOn,roi_2.timesOff,text_2.started,text_2.stopped,probedcontrast,key_resp.started,respdetect,relevantContrast,correctDetect,TorFdetect,respCWorCCW,key_resp.keys,key_resp.rt,feedback_display_.started,participantNo,blockNo,date,expName,psychopyVersion,frameRate,
1,0,0.0,0.0,1,0,0,0,20,3.960001049563289e-05,3.960001049563289e-05,49.74125650001224,51.75018779997481,51.75018779997481,52.37765739997849,52.37765739997849,52.89549530000659,315,45,52.89549530000659,52.89549530000659,52.89549530000659,52.89549530000659,52.89549530000659,52.89549530000659,52.89549530000659,52.89549530000659,52.89549530000659,53.24527610000223,53.24527610000223,53.24527610000223,53.24527610000223,53.24527610000223,53.24527610000223,53.24527610000223,53.24527610000223,53.24527610000223,1,2,"[0.0009157000458799303, 0.13447240000823513]","[0.11705679999431595, 0.3674788000062108]",53.24527610000223,53.445344000007026,0.0,53.445344000007026,0,0.0,0,1,1000,num_1,0.32251349999569356,,25,7,2026-03-04_17h44.40.942,2026A_exp2,2022.2.4,59.709513223658824,
1,0,0.0,4.9,1,0,1,1,41,,,,,53.79581199999666,54.44670849997783,54.44670849997783,54.93082339997636,45,45,54.93082339997636,54.93082339997636,54.93082339997636,54.93082339997636,54.93082339997636,54.93082339997636,54.93082339997636,54.93082339997636,54.93082339997636,55.297351599961985,55.297351599961985,55.297351599961985,55.297351599961985,55.297351599961985,55.297351599961985,55.297351599961985,55.297351599961985,55.297351599961985,23,0,,,55.297351599961985,55.497483299986925,4.9,55.497483299986925,0,4.9,1,0,1000,num_1,0.30157660000259057,,25,7,2026-03-04_17h44.40.942,2026A_exp2,2022.2.4,59.709513223658824,
1000,1,3.7,3.7,1,0,2,2,54,,,,,55.83075089997146,56.46518100000685,56.46518100000685,56.96615779999411,315,315,56.96615779999411,56.96615779999411,56.96615779999411,56.96615779999411,56.96615779999411,56.96615779999411,56.96615779999411,56.96615779999411,56.96615779999411,57.332779999997,57.332779999997,57.332779999997,57.332779999997,57.332779999997,57.332779999997,57.332779999997,57.332779999997,57.332779999997,0,1,[0.0012234000023454428],[0.3668875000439584],57.332779999997,57.537555399991106,1000,57.537555399991106,1000,1000,1000,1000,1,num_2,0.23878929996863008,,25,7,2026-03-04_17h44.40.942,2026A_exp2,2022.2.4,59.709513223658824,
1000,1,3.7,0.0,1,0,3,3,78,,,,,57.79977899999358,58.45377289998578,58.45377289998578,58.95963559998199,315,315,58.95963559998199,58.95963559998199,58.95963559998199,58.95963559998199,58.95963559998199,58.95963559998199,58.95963559998199,58.95963559998199,58.95963559998199,59.31787909998093,59.31787909998093,59.31787909998093,59.31787909998093,59.31787909998093,59.31787909998093,59.31787909998093,59.31787909998093,59.31787909998093,23,0,,,59.31787909998093,59.51936430000933,1000,59.51936430000933,1000,1000,1000,1000,1,num_2,0.2562807999784127,,25,7,2026-03-04_17h44.40.942,2026A_exp2,2022.2.4,59.709513223658824,
1000,1,4.9,0.0,0,0,4,4,12,,,,,59.80181380000431,60.45222569996258,60.45222569996258,60.95345390000148,315,45,60.95345390000148,60.95345390000148,60.95345390000148,60.95345390000148,60.95345390000148,60.95345390000148,60.95345390000148,60.95345390000148,60.95345390000148,61.31999899999937,61.31999899999937,61.31999899999937,61.31999899999937,61.31999899999937,61.31999899999937,61.31999899999937,61.31999899999937,61.31999899999937,23,0,,,61.31999899999937,61.521891699987464,1000,61.521891699987464,1000,1000,1000,1000,1,num_2,0.14940910000586882,,25,7,2026-03-04_17h44.40.942,2026A_exp2,2022.2.4,59.709513223658824,
1,0,4.9,0.0,0,0,5,5,47,,,,,61.68674989999272,62.33748679998098,62.33748679998098,62.8388302999665,315,45,62.8388302999665,62.8388302999665,62.8388302999665,62.8388302999665,62.8388302999665,62.8388302999665,62.8388302999665,62.8388302999665,62.8388302999665,63.2051784999785,63.2051784999785,63.2051784999785,63.2051784999785,63.2051784999785,63.2051784999785,63.2051784999785,63.2051784999785,63.2051784999785,23,0,,,63.2051784999785,63.40521210001316,4.9,63.40521210001316,1,4.9,1,1,1000,num_4,0.17071709997253492,,25,7,2026-03-04_17h44.40.942,2026A_exp2,2022.2.4,59.709513223658824,
1,0,3.7,0.0,0,0,6,6,10,,,,,63.60550239996519,64.2561943999608,64.2561943999608,64.74058869999135,45,45,64.74058869999135,64.74058869999135,64.74058869999135,64.74058869999135,64.74058869999135,64.74058869999135,64.74058869999135,64.74058869999135,64.74058869999135,65.10695139999734,65.10695139999734,65.10695139999734,65.10695139999734,65.10695139999734,65.10695139999734,65.10695139999734,65.10695139999734,65.10695139999734,23,0,,,65.10695139999734,65.30724659998668,3.7,65.30724659998668,0,3.7,1,0,1000,num_1,0.21318010002141818,,25,7,2026-03-04_17h44.40.942,2026A_exp2,2022.2.4,59.709513223658824,
1,0,3.7,3.7,0,0,7,7,8,,,,,65.54066699999385,66.19157989998348,66.19157989998348,66.67592959996546,315,315,66.67592959996546,66.67592959996546,66.67592959996546,66.67592959996546,66.67592959996546,66.67592959996546,66.67592959996546,66.67592959996546,66.67592959996546,67.04240659996867,67.04240659996867,67.04240659996867,67.04240659996867,67.04240659996867,67.04240659996867,67.04240659996867,67.04240659996867,67.04240659996867,23,0,,,67.04240659996867,67.24253619997762,3.7,67.24253619997762,1,3.7,1,1,1000,num_4,0.197604900051374,,25,7,2026-03-04_17h44.40.942,2026A_exp2,2022.2.4,59.709513223658824,
1000,1,3.7,0.0,1,0,8,8,52,,,,,67.45924349996494,68.09330790000968,68.09330790000968,68.59439969999949,45,45,68.59439969999949,68.59439969999949,68.59439969999949,68.59439969999949,68.59439969999949,68.59439969999949,68.59439969999949,68.59439969999949,68.59439969999949,68.96107949997531,68.96107949997531,68.96107949997531,68.96107949997531,68.96107949997531,68.96107949997531,68.96107949997531,68.96107949997531,68.96107949997531,23,0,,,68.96107949997531,69.1664507999667,1000,69.1664507999667,1000,1000,1000,1000,0,num_3,0.1455779999960214,,25,7,2026-03-04_17h44.40.942,2026A_exp2,2022.2.4,59.709513223658824,
1000,1,3.7,0.0,1,0,9,9,19,,,,,69.32790059997933,69.9786216999637,69.9786216999637,70.47976560000097,45,45,70.47976560000097,70.47976560000097,70.47976560000097,70.47976560000097,70.47976560000097,70.47976560000097,70.47976560000097,70.47976560000097,70.47976560000097,70.84608539997134,70.84608539997134,70.84608539997134,70.84608539997134,70.84608539997134,70.84608539997134,70.84608539997134,70.84608539997134,70.84608539997134,23,0,,,70.84608539997134,71.04861349996645,1000,71.04861349996645,1000,1000,1000,1000,1,num_2,0.4068076999974437,,25,7,2026-03-04_17h44.40.942,2026A_exp2,2022.2.4,59.709513223658824,
1,0,0.0,0.0,0,0,10,10,6,,,,,71.4800534999813,72.13063579995651,72.13063579995651,72.63219039997784,45,315,72.63219039997784,72.63219039997784,72.63219039997784,72.63219039997784,72.63219039997784,72.63219039997784,72.63219039997784,72.63219039997784,72.63219039997784,72.99834799999371,72.99834799999371,72.99834799999371,72.99834799999371,72.99834799999371,72.99834799999371,72.99834799999371,72.99834799999371,72.99834799999371,23,0,,,72.99834799999371,73.19848439999623,0.0,73.19848439999623,1,0.0,0,0,1000,num_4,0.17801510001299903,,25,7,2026-03-04_17h44.40.942,2026A_exp2,2022.2.4,59.709513223658824,
1,0,0.0,3.7,1,0,11,11,30,,,,,73.39846469997428,74.04935340001248,74.04935340001248,74.53377340000588,45,315,74.53377340000588,74.53377340000588,74.53377340000588,74.53377340000588,74.53377340000588,74.53377340000588,74.53377340000588,74.53377340000588,74.53377340000588,74.9002032999997,74.9002032999997,74.9002032999997,74.9002032999997,74.9002032999997,74.9002032999997,74.9002032999997,74.9002032999997,74.9002032999997,23,0,,,74.9002032999997,75.10034209996229,3.7,75.10034209996229,0,3.7,1,0,1000,num_1,0.19563979998929426,,25,7,2026-03-04_17h44.40.942,2026A_exp2,2022.2.4,59.709513223658824,
1000,1,6.1,4.9,1,0,12,12,15,,,,,75.31714759999886,75.96790029999102,75.96790029999102,76.45245839998825,315,315,76.45245839998825,76.45245839998825,76.45245839998825,76.45245839998825,76.45245839998825,76.45245839998825,76.45245839998825,76.45245839998825,76.45245839998825,76.81875209999271,76.81875209999271,76.81875209999271,76.81875209999271,76.81875209999271,76.81875209999271,76.81875209999271,76.81875209999271,76.81875209999271,23,0,,,76.81875209999271,77.0211342999828,1000,77.0211342999828,1000,1000,1000,1000,0,num_3,0.23495529999490827,,25,7,2026-03-04_17h44.40.942,2026A_exp2,2022.2.4,59.709513223658824,
1000,1,0.0,4.9,1,0,13,13,72,,,,,77.28589209995698,77.93646180001087,77.93646180001087,78.43746749998536,315,45,78.43746749998536,78.43746749998536,78.43746749998536,78.43746749998536,78.43746749998536,78.43746749998536,78.43746749998536,78.43746749998536,78.43746749998536,78.80416219995823,78.80416219995823,78.80416219995823,78.80416219995823,78.80416219995823,78.80416219995823,78.80416219995823,78.80416219995823,78.80416219995823,21,1,[0.31657239998457953],[0.3502817999687977],78.80416219995823,79.02321379998466,1000,79.02321379998466,1000,1000,1000,1000,1,num_2,0.09586300002411008,,25,7,2026-03-04_17h44.40.942,2026A_exp2,2022.2.4,59.709513223658824,
1,0,6.1,0.0,0,0,14,14,77,,,,,79.13760179997189,79.7884241999709,79.7884241999709,80.28945559996646,315,45,80.28945559996646,80.28945559996646,80.28945559996646,80.28945559996646,80.28945559996646,80.28945559996646,80.28945559996646,80.28945559996646,80.28945559996646,80.65595599997323,80.65595599997323,80.65595599997323,80.65595599997323,80.65595599997323,80.65595599997323,80.65595599997323,80.65595599997323,80.65595599997323,23,0,,,80.65595599997323,80.85608259995934,6.1,80.85608259995934,0,6.1,1,0,1000,num_1,0.015132300031837076,,25,7,2026-03-04_17h44.40.942,2026A_exp2,2022.2.4,59.709513223658824,
0,0,0.0,6.1,1,0,15,15,46,,,,,80.88964000000851,81.52351059997454,81.52351059997454,82.0246014999575,45,315,82.0246014999575,82.0246014999575,82.0246014999575,82.0246014999575,82.0246014999575,82.0246014999575,82.0246014999575,82.0246014999575,82.0246014999575,82.39111719996436,82.39111719996436,82.39111719996436,82.39111719996436,82.39111719996436,82.39111719996436,82.39111719996436,82.39111719996436,82.39111719996436,23,0,,,82.39111719996436,82.59093760000542,0.0,82.59093760000542,1,0.0,0,0,1000,num_4,0.17723520001163706,,25,7,2026-03-04_17h44.40.942,2026A_exp2,2022.2.4,59.709513223658824,
1000,1,0.0,0.0,0,0,16,16,2,,,,,82.79138219996821,83.44214989995817,83.44214989995817,83.92659849999472,45,45,83.92659849999472,83.92659849999472,83.92659849999472,83.92659849999472,83.92659849999472,83.92659849999472,83.92659849999472,83.92659849999472,83.92659849999472,84.29301879997365,84.29301879997365,84.29301879997365,84.29301879997365,84.29301879997365,84.29301879997365,84.29301879997365,84.29301879997365,84.29301879997365,0,1,[0.0012523999903351068],[0.36702150001656264],84.29301879997365,84.49333119997755,1000,84.49333119997755,1000,1000,1000,1000,0,num_3,0.11464699998032302,,25,7,2026-03-04_17h44.40.942,2026A_exp2,2022.2.4,59.709513223658824,
1000,1,4.9,0.0,1,0,17,17,56,,,,,84.62659509998048,85.28318819997367,85.28318819997367,85.76162459998159,45,45,85.76162459998159,85.76162459998159,85.76162459998159,85.76162459998159,85.76162459998159,85.76162459998159,85.76162459998159,85.76162459998159,85.76162459998159,86.12812720000511,86.12812720000511,86.12812720000511,86.12812720000511,86.12812720000511,86.12812720000511,86.12812720000511,86.12812720000511,86.12812720000511,23,0,,,86.12812720000511,86.3304780999897,1000,86.3304780999897,1000,1000,1000,1000,1,num_2,0.22900320001645014,,25,7,2026-03-04_17h44.40.942,2026A_exp2,2022.2.4,59.709513223658824,
0,0,0.0,4.9,1,0,18,18,33,,,,,86.57827649998944,87.22914439998567,87.22914439998567,87.73031989997253,45,45,87.73031989997253,87.73031989997253,87.73031989997253,87.73031989997253,87.73031989997253,87.73031989997253,87.73031989997253,87.73031989997253,87.73031989997253,88.09670910000568,88.09670910000568,88.09670910000568,88.09670910000568,88.09670910000568,88.09670910000568,88.09670910000568,88.09670910000568,88.09670910000568,23,0,,,88.09670910000568,88.2968767999555,0.0,88.2968767999555,0,0.0,0,1,1000,num_1,0.10268959996756166,,25,7,2026-03-04_17h44.40.942,2026A_exp2,2022.2.4,59.709513223658824,
0,0,6.1,6.1,1,0,19,19,48,,,,,88.4303391999565,89.06447300000582,89.06447300000582,89.56555719999596,315,45,89.56555719999596,89.56555719999596,89.56555719999596,89.56555719999596,89.56555719999596,89.56555719999596,89.56555719999596,89.56555719999596,89.56555719999596,89.93188819999341,89.93188819999341,89.93188819999341,89.93188819999341,89.93188819999341,89.93188819999341,89.93188819999341,89.93188819999341,89.93188819999341,23,0,,,89.93188819999341,90.1321829999797,6.1,90.1321829999797,1,6.1,1,1,1000,num_4,0.8354057000251487,,25,7,2026-03-04_17h44.40.942,2026A_exp2,2022.2.4,59.709513223658824,
1,0,0.0,4.9,1,0,20,20,73,,,,,90.99964539997745,91.65032539999811,91.65032539999811,92.13490319997072,45,45,92.13490319997072,92.13490319997072,92.13490319997072,92.13490319997072,92.13490319997072,92.13490319997072,92.13490319997072,92.13490319997072,92.13490319997072,92.50104969996028,92.50104969996028,92.50104969996028,92.50104969996028,92.50104969996028,92.50104969996028,92.50104969996028,92.50104969996028,92.50104969996028,23,0,,,92.50104969996028,92.70114179997472,4.9,92.70114179997472,0,4.9,1,0,1000,num_1,0.20984759996645153,,25,7,2026-03-04_17h44.40.942,2026A_exp2,2022.2.4,59.709513223658824,
1000,1,6.1,0.0,0,0,21,21,21,,,,,92.934956699959,93.56852549995529,93.56852549995529,94.06970659998478,45,315,94.06970659998478,94.06970659998478,94.06970659998478,94.06970659998478,94.06970659998478,94.06970659998478,94.06970659998478,94.06970659998478,94.06970659998478,94.43606679997174,94.43606679997174,94.43606679997174,94.43606679997174,94.43606679997174,94.43606679997174,94.43606679997174,94.43606679997174,94.43606679997174,23,0,,,94.43606679997174,94.6364392999676,1000,94.6364392999676,1000,1000,1000,1000,1,num_2,0.20283639995614067,,25,7,2026-03-04_17h44.40.942,2026A_exp2,2022.2.4,59.709513223658824,
1,0,6.1,6.1,0,0,22,22,89,,,,,94.86998239997774,95.50415890000295,95.50415890000295,96.00524169998243,45,315,96.00524169998243,96.00524169998243,96.00524169998243,96.00524169998243,96.00524169998243,96.00524169998243,96.00524169998243,96.00524169998243,96.00524169998243,96.37167299998691,96.37167299998691,96.37167299998691,96.37167299998691,96.37167299998691,96.37167299998691,96.37167299998691,96.37167299998691,96.37167299998691,23,0,,,96.37167299998691,96.5719328999985,6.1,96.5719328999985,1,6.1,1,1,1000,num_4,0.4758873999817297,,25,7,2026-03-04_17h44.40.942,2026A_exp2,2022.2.4,59.709513223658824,
0,0,0.0,0.0,1,0,23,23,80,,,,,97.07227929995861,97.7231785999611,97.7231785999611,98.20738899998832,315,315,98.20738899998832,98.20738899998832,98.20738899998832,98.20738899998832,98.20738899998832,98.20738899998832,98.20738899998832,98.20738899998832,98.20738899998832,98.57390759995906,98.57390759995906,98.57390759995906,98.57390759995906,98.57390759995906,98.57390759995906,98.57390759995906,98.57390759995906,98.57390759995906,23,0,,,98.57390759995906,98.77406199998222,0.0,98.77406199998222,0,0.0,0,1,1000,num_1,0.5852695000357926,,25,7,2026-03-04_17h44.40.942,2026A_exp2,2022.2.4,59.709513223658824,
1000,1,0.0,0.0,1,0,24,24,88,,,,,99.39123089995701,100.04183219996048,100.04183219996048,100.526382299955,315,45,100.526382299955,100.526382299955,100.526382299955,100.526382299955,100.526382299955,100.526382299955,100.526382299955,100.526382299955,100.526382299955,100.89284729998326,100.89284729998326,100.89284729998326,100.89284729998326,100.89284729998326,100.89284729998326,100.89284729998326,100.89284729998326,100.89284729998326,23,0,,,100.89284729998326,101.09539309999673,1000,101.09539309999673,1000,1000,1000,1000,1,num_2,0.13590889994520694,,25,7,2026-03-04_17h44.40.942,2026A_exp2,2022.2.4,59.709513223658824,
1,0,6.1,6.1,1,0,25,25,49,,,,,101.25984869996319,101.91042510000989,101.91042510000989,102.39492900000187,45,315,102.39492900000187,102.39492900000187,102.39492900000187,102.39492900000187,102.39492900000187,102.39492900000187,102.39492900000187,102.39492900000187,102.39492900000187,102.76141859998461,102.76141859998461,102.76141859998461,102.76141859998461,102.76141859998461,102.76141859998461,102.76141859998461,102.76141859998461,102.76141859998461,23,0,,,102.76141859998461,102.96147969999583,6.1,102.96147969999583,0,6.1,1,0,1000,num_1,0.542703100014478,,25,7,2026-03-04_17h44.40.942,2026A_exp2,2022.2.4,59.709513223658824,
0,0,0.0,4.9,1,0,26,26,0,,,,,103.52871559996856,104.17963450000389,104.17963450000389,104.66374629997881,45,315,104.66374629997881,104.66374629997881,104.66374629997881,104.66374629997881,104.66374629997881,104.66374629997881,104.66374629997881,104.66374629997881,104.66374629997881,105.0303886999609,105.0303886999609,105.0303886999609,105.0303886999609,105.0303886999609,105.0303886999609,105.0303886999609,105.0303886999609,105.0303886999609,23,0,,,105.0303886999609,105.23052209999878,0.0,105.23052209999878,0,0.0,0,1,1000,num_1,0.06491050001932308,,25,7,2026-03-04_17h44.40.942,2026A_exp2,2022.2.4,59.709513223658824,
1000,1,0.0,6.1,0,0,27,27,27,,,,,105.31371269997908,105.96457899996312,105.96457899996312,106.44907339999918,315,315,106.44907339999918,106.44907339999918,106.44907339999918,106.44907339999918,106.44907339999918,106.44907339999918,106.44907339999918,106.44907339999918,106.44907339999918,106.81530670000939,106.81530670000939,106.81530670000939,106.81530670000939,106.81530670000939,106.81530670000939,106.81530670000939,106.81530670000939,106.81530670000939,23,0,,,106.81530670000939,107.01743179996265,1000,107.01743179996265,1000,1000,1000,1000,1,num_2,0.07786920003127307,,25,7,2026-03-04_17h44.40.942,2026A_exp2,2022.2.4,59.709513223658824,
1,0,0.0,0.0,0,0,28,28,85,,,,,107.11562449997291,107.76633569999831,107.76633569999831,108.26758290000726,315,45,108.26758290000726,108.26758290000726,108.26758290000726,108.26758290000726,108.26758290000726,108.26758290000726,108.26758290000726,108.26758290000726,108.26758290000726,108.63394269999117,108.63394269999117,108.63394269999117,108.63394269999117,108.63394269999117,108.63394269999117,108.63394269999117,108.63394269999117,108.63394269999117,23,0,,,108.63394269999117,108.83403309999267,0.0,108.83403309999267,1,0.0,0,0,1000,num_4,0.2063266999903135,,25,7,2026-03-04_17h44.40.942,2026A_exp2,2022.2.4,59.709513223658824,
1000,1,0.0,0.0,1,0,29,29,34,,,,,109.06775200000266,109.71854460000759,109.71854460000759,110.2029734000098,315,315,110.2029734000098,110.2029734000098,110.2029734000098,110.2029734000098,110.2029734000098,110.2029734000098,110.2029734000098,110.2029734000098,110.2029734000098,110.56912469997769,110.56912469997769,110.56912469997769,110.56912469997769,110.56912469997769,110.56912469997769,110.56912469997769,110.56912469997769,110.56912469997769,23,0,,,110.56912469997769,110.7712915999582,1000,110.7712915999582,1000,1000,1000,1000,0,num_3,0.4686838000197895,,25,7,2026-03-04_17h44.40.942,2026A_exp2,2022.2.4,59.709513223658824,
1,0,0.0,3.7,0,0,30,30,31,,,,,111.26978239999153,111.92031259997748,111.92031259997748,112.40492389997235,45,315,112.40492389997235,112.40492389997235,112.40492389997235,112.40492389997235,112.40492389997235,112.40492389997235,112.40492389997235,112.40492389997235,112.40492389997235,112.77138849999756,112.77138849999756,112.77138849999756,112.77138849999756,112.77138849999756,112.77138849999756,112.77138849999756,112.77138849999756,112.77138849999756,23,0,,,112.77138849999756,112.97169729997404,0.0,112.97169729997404,1,0.0,0,0,1000,num_4,0.6123971000197344,,25,7,2026-03-04_17h44.40.942,2026A_exp2,2022.2.4,59.709513223658824,
1000,1,6.1,6.1,1,0,31,31,53,,,,,113.60542699997313,114.25626860000193,114.25626860000193,114.740737599961,315,45,114.740737599961,114.740737599961,114.740737599961,114.740737599961,114.740737599961,114.740737599961,114.740737599961,114.740737599961,114.740737599961,115.10712549998425,115.10712549998425,115.10712549998425,115.10712549998425,115.10712549998425,115.10712549998425,115.10712549998425,115.10712549998425,115.10712549998425,23,0,,,115.10712549998425,115.30941019998863,1000,115.30941019998863,1000,1000,1000,1000,1,num_2,0.2432550999801606,,25,7,2026-03-04_17h44.40.942,2026A_exp2,2022.2.4,59.709513223658824,
1000,1,3.7,0.0,1,0,32,32,38,,,,,115.57418160000816,116.22494659997756,116.22494659997756,116.72604719997616,315,45,116.72604719997616,116.72604719997616,116.72604719997616,116.72604719997616,116.72604719997616,116.72604719997616,116.72604719997616,116.72604719997616,116.72604719997616,117.07582079997519,117.07582079997519,117.07582079997519,117.07582079997519,117.07582079997519,117.07582079997519,117.07582079997519,117.07582079997519,117.07582079997519,22,0,,,117.07582079997519,117.27586819999851,1000,117.27586819999851,1000,1000,1000,1000,0,num_3,0.41970709996530786,,25,7,2026-03-04_17h44.40.942,2026A_exp2,2022.2.4,59.709513223658824,
1000,1,0.0,3.7,1,0,33,33,82,,,,,117.72629699995741,118.3768516999553,118.3768516999553,118.87811319995672,315,45,118.87811319995672,118.87811319995672,118.87811319995672,118.87811319995672,118.87811319995672,118.87811319995672,118.87811319995672,118.87811319995672,118.87811319995672,119.244595199998,119.244595199998,119.244595199998,119.244595199998,119.244595199998,119.244595199998,119.244595199998,119.244595199998,119.244595199998,23,0,,,119.244595199998,119.44639950001147,1000,119.44639950001147,1000,1000,1000,1000,1,num_2,0.6174748000339605,,25,7,2026-03-04_17h44.40.942,2026A_exp2,2022.2.4,59.709513223658824,
1,0,3.7,0.0,0,0,34,34,9,,,,,120.0954580999678,120.74604569998337,120.74604569998337,121.24705909995828,45,315,121.24705909995828,121.24705909995828,121.24705909995828,121.24705909995828,121.24705909995828,121.24705909995828,121.24705909995828,121.24705909995828,121.24705909995828,121.59698319999734,121.59698319999734,121.59698319999734,121.59698319999734,121.59698319999734,121.59698319999734,121.59698319999734,121.59698319999734,121.59698319999734,22,0,,,121.59698319999734,121.80325239995727,3.7,121.80325239995727,0,3.7,1,0,1000,num_1,0.14829889999236912,,25,7,2026-03-04_17h44.40.942,2026A_exp2,2022.2.4,59.709513223658824,
1,0,4.9,4.9,0,0,35,35,28,,,,,121.98096849996364,122.63157749996753,122.63157749996753,123.13237339997431,315,45,123.13237339997431,123.13237339997431,123.13237339997431,123.13237339997431,123.13237339997431,123.13237339997431,123.13237339997431,123.13237339997431,123.13237339997431,123.49881550000282,123.49881550000282,123.49881550000282,123.49881550000282,123.49881550000282,123.49881550000282,123.49881550000282,123.49881550000282,123.49881550000282,23,0,,,123.49881550000282,123.69908499997109,4.9,123.69908499997109,0,4.9,1,0,1000,num_1,0.1408437000354752,,25,7,2026-03-04_17h44.40.942,2026A_exp2,2022.2.4,59.709513223658824,
0,0,0.0,0.0,1,0,36,36,14,,,,,123.86596610001288,124.51640510000288,124.51640510000288,125.01764959999127,315,315,125.01764959999127,125.01764959999127,125.01764959999127,125.01764959999127,125.01764959999127,125.01764959999127,125.01764959999127,125.01764959999127,125.01764959999127,125.36735829996178,125.36735829996178,125.36735829996178,125.36735829996178,125.36735829996178,125.36735829996178,125.36735829996178,125.36735829996178,125.36735829996178,22,0,,,125.36735829996178,125.56747700000415,0.0,125.56747700000415,0,0.0,0,1,1000,num_1,0.1606552000157535,,25,7,2026-03-04_17h44.40.942,2026A_exp2,2022.2.4,59.709513223658824,
1,0,0.0,0.0,0,0,37,37,32,,,,,125.75112410000293,126.40177799999947,126.40177799999947,126.8860629000119,45,315,126.8860629000119,126.8860629000119,126.8860629000119,126.8860629000119,126.8860629000119,126.8860629000119,126.8860629000119,126.8860629000119,126.8860629000119,127.25249290000647,127.25249290000647,127.25249290000647,127.25249290000647,127.25249290000647,127.25249290000647,127.25249290000647,127.25249290000647,127.25249290000647,23,0,,,127.25249290000647,127.45277669996722,0.0,127.45277669996722,1,0.0,0,0,1000,num_4,0.1953499999945052,,25,7,2026-03-04_17h44.40.942,2026A_exp2,2022.2.4,59.709513223658824,
1000,1,3.7,6.1,1,0,38,38,43,,,,,127.66969489998883,128.32046969997464,128.32046969997464,128.80477769998834,315,45,128.80477769998834,128.80477769998834,128.80477769998834,128.80477769998834,128.80477769998834,128.80477769998834,128.80477769998834,128.80477769998834,128.80477769998834,129.17111060000025,129.17111060000025,129.17111060000025,129.17111060000025,129.17111060000025,129.17111060000025,129.17111060000025,129.17111060000025,129.17111060000025,23,0,,,129.17111060000025,129.37335149996215,1000,129.37335149996215,1000,1000,1000,1000,1,num_2,0.13088880002032965,,25,7,2026-03-04_17h44.40.942,2026A_exp2,2022.2.4,59.709513223658824,
1,0,0.0,0.0,0,0,39,39,61,,,,,129.52157849998912,130.1721719999914,130.1721719999914,130.673222399957,45,315,130.673222399957,130.673222399957,130.673222399957,130.673222399957,130.673222399957,130.673222399957,130.673222399957,130.673222399957,130.673222399957,131.03973670001142,131.03973670001142,131.03973670001142,131.03973670001142,131.03973670001142,131.03973670001142,131.03973670001142,131.03973670001142,131.03973670001142,23,0,,,131.03973670001142,131.23977419995936,0.0,131.23977419995936,1,0.0,0,0,1000,num_4,0.15946230001281947,,25,7,2026-03-04_17h44.40.942,2026A_exp2,2022.2.4,59.709513223658824,
1,0,0.0,6.1,1,0,40,40,5,,,,,131.42350119998446,132.0741038999986,132.0741038999986,132.55851729999995,45,315,132.55851729999995,132.55851729999995,132.55851729999995,132.55851729999995,132.55851729999995,132.55851729999995,132.55851729999995,132.55851729999995,132.55851729999995,132.92483719997108,132.92483719997108,132.92483719997108,132.92483719997108,132.92483719997108,132.92483719997108,132.92483719997108,132.92483719997108,132.92483719997108,23,0,,,132.92483719997108,133.12501590000466,6.1,133.12501590000466,0,6.1,1,0,1000,num_1,0.10626279999269173,,25,7,2026-03-04_17h44.40.942,2026A_exp2,2022.2.4,59.709513223658824,
1000,1,0.0,0.0,0,0,41,41,24,,,,,133.2585653999704,133.90924159996212,133.90924159996212,134.39361669996288,315,45,134.39361669996288,134.39361669996288,134.39361669996288,134.39361669996288,134.39361669996288,134.39361669996288,134.39361669996288,134.39361669996288,134.39361669996288,134.7600558999693,134.7600558999693,134.7600558999693,134.7600558999693,134.7600558999693,134.7600558999693,134.7600558999693,134.7600558999693,134.7600558999693,23,0,,,134.7600558999693,134.96179629996186,1000,134.96179629996186,1000,1000,1000,1000,1,num_2,0.3172252000076696,,25,7,2026-03-04_17h44.40.942,2026A_exp2,2022.2.4,59.709513223658824,
1,0,0.0,0.0,1,0,42,42,66,,,,,135.31076009996468,135.9612984000123,135.9612984000123,136.46245970000746,315,315,136.46245970000746,136.46245970000746,136.46245970000746,136.46245970000746,136.46245970000746,136.46245970000746,136.46245970000746,136.46245970000746,136.46245970000746,136.8120176999946,136.8120176999946,136.8120176999946,136.8120176999946,136.8120176999946,136.8120176999946,136.8120176999946,136.8120176999946,136.8120176999946,19,1,[0.0012969999806955457],[0.050384200003463775],136.8120176999946,137.02032700000564,0.0,137.02032700000564,1,0.0,0,0,1000,num_4,0.3155257999897003,,25,7,2026-03-04_17h44.40.942,2026A_exp2,2022.2.4,59.709513223658824,
0,0,0.0,4.9,0,0,43,43,65,,,,,137.3626951999613,138.01842669997131,138.01842669997131,138.51411270000972,45,45,138.51411270000972,138.51411270000972,138.51411270000972,138.51411270000972,138.51411270000972,138.51411270000972,138.51411270000972,138.51411270000972,138.51411270000972,138.88088539999444,138.88088539999444,138.88088539999444,138.88088539999444,138.88088539999444,138.88088539999444,138.88088539999444,138.88088539999444,138.88088539999444,23,0,,,138.88088539999444,139.0892947000102,4.9,139.0892947000102,1,4.9,1,1,1000,num_4,0.2060834000003524,,25,7,2026-03-04_17h44.40.942,2026A_exp2,2022.2.4,59.709513223658824,
1000,1,0.0,0.0,1,0,44,44,44,,,,,139.31476559996372,139.9652475999901,139.9652475999901,140.46787930000573,315,315,140.46787930000573,140.46787930000573,140.46787930000573,140.46787930000573,140.46787930000573,140.46787930000573,140.46787930000573,140.46787930000573,140.46787930000573,140.83292289997917,140.83292289997917,140.83292289997917,140.83292289997917,140.83292289997917,140.83292289997917,140.83292289997917,140.83292289997917,140.83292289997917,23,0,,,140.83292289997917,141.03553930000635,1000,141.03553930000635,1000,1000,1000,1000,0,num_3,0.07661190000362694,,25,7,2026-03-04_17h44.40.942,2026A_exp2,2022.2.4,59.709513223658824,
1,0,0.0,0.0,1,0,45,45,59,,,,,141.1328807999962,141.78378120000707,141.78378120000707,142.2847674000077,45,315,142.2847674000077,142.2847674000077,142.2847674000077,142.2847674000077,142.2847674000077,142.2847674000077,142.2847674000077,142.2847674000077,142.2847674000077,142.63482519995887,142.63482519995887,142.63482519995887,142.63482519995887,142.63482519995887,142.63482519995887,142.63482519995887,142.63482519995887,142.63482519995887,22,0,,,142.63482519995887,142.83496269996976,0.0,142.83496269996976,1,0.0,0,0,1000,num_4,0.0043738000094890594,,25,7,2026-03-04_17h44.40.942,2026A_exp2,2022.2.4,59.709513223658824,
0,0,6.1,4.9,1,0,46,46,42,,,,,142.8681294999551,143.5187247999711,143.5187247999711,144.00327819999075,45,45,144.00327819999075,144.00327819999075,144.00327819999075,144.00327819999075,144.00327819999075,144.00327819999075,144.00327819999075,144.00327819999075,144.00327819999075,144.36953059997177,144.36953059997177,144.36953059997177,144.36953059997177,144.36953059997177,144.36953059997177,144.36953059997177,144.36953059997177,144.36953059997177,23,0,,,144.36953059997177,144.56995589996222,6.1,144.56995589996222,0,6.1,1,0,1000,num_1,0.9412836999981664,,25,7,2026-03-04_17h44.40.942,2026A_exp2,2022.2.4,59.709513223658824,
1,0,3.7,0.0,0,0,47,47,3,,,,,145.53755299997283,146.18800460000057,146.18800460000057,146.6725099000032,315,45,146.6725099000032,146.6725099000032,146.6725099000032,146.6725099000032,146.6725099000032,146.6725099000032,146.6725099000032,146.6725099000032,146.6725099000032,147.03870219999226,147.03870219999226,147.03870219999226,147.03870219999226,147.03870219999226,147.03870219999226,147.03870219999226,147.03870219999226,147.03870219999226,23,0,,,147.03870219999226,147.2391732999822,3.7,147.2391732999822,0,3.7,1,0,1000,num_1,0.16145210003014654,,25,7,2026-03-04_17h44.40.942,2026A_exp2,2022.2.4,59.709513223658824,
1000,1,6.1,6.1,0,0,48,48,87,,,,,147.42268439999316,148.07382170000346,148.07382170000346,148.55786399997305,45,45,148.55786399997305,148.55786399997305,148.55786399997305,148.55786399997305,148.55786399997305,148.55786399997305,148.55786399997305,148.55786399997305,148.55786399997305,148.92425479996018,148.92425479996018,148.92425479996018,148.92425479996018,148.92425479996018,148.92425479996018,148.92425479996018,148.92425479996018,148.92425479996018,23,0,,,148.92425479996018,149.12591860000975,1000,149.12591860000975,1000,1000,1000,1000,1,num_2,0.23349970002891496,,25,7,2026-03-04_17h44.40.942,2026A_exp2,2022.2.4,59.709513223658824,
1000,1,0.0,0.0,1,0,49,49,68,,,,,149.3747788000037,150.02536540001165,150.02536540001165,150.52645649999613,45,45,150.52645649999613,150.52645649999613,150.52645649999613,150.52645649999613,150.52645649999613,150.52645649999613,150.52645649999613,150.52645649999613,150.52645649999613,150.89290029997937,150.89290029997937,150.89290029997937,150.89290029997937,150.89290029997937,150.89290029997937,150.89290029997937,150.89290029997937,150.89290029997937,23,0,,,150.89290029997937,151.0946935999673,1000,151.0946935999673,1000,1000,1000,1000,1,num_2,0.2005003999802284,,25,7,2026-03-04_17h44.40.942,2026A_exp2,2022.2.4,59.709513223658824,
1000,1,3.7,4.9,0,0,50,50,25,,,,,151.326708699984,151.97725830000127,151.97725830000127,152.47830959997373,45,45,152.47830959997373,152.47830959997373,152.47830959997373,152.47830959997373,152.47830959997373,152.47830959997373,152.47830959997373,152.47830959997373,152.47830959997373,152.84487969998736,152.84487969998736,152.84487969998736,152.84487969998736,152.84487969998736,152.84487969998736,152.84487969998736,152.84487969998736,152.84487969998736,23,0,,,152.84487969998736,153.04685899999458,1000,153.04685899999458,1000,1000,1000,1000,1,num_2,0.24838979996275157,,25,7,2026-03-04_17h44.40.942,2026A_exp2,2022.2.4,59.709513223658824,
1,0,0.0,3.7,0,0,51,51,76,,,,,153.31212839996442,153.96249979996355,153.96249979996355,154.44709799997509,315,315,154.44709799997509,154.44709799997509,154.44709799997509,154.44709799997509,154.44709799997509,154.44709799997509,154.44709799997509,154.44709799997509,154.44709799997509,154.81328820000635,154.81328820000635,154.81328820000635,154.81328820000635,154.81328820000635,154.81328820000635,154.81328820000635,154.81328820000635,154.81328820000635,23,0,,,154.81328820000635,155.0137848999584,0.0,155.0137848999584,0,0.0,0,1,1000,num_1,0.1462012999691069,,25,7,2026-03-04_17h44.40.942,2026A_exp2,2022.2.4,59.709513223658824,
1000,1,3.7,0.0,0,0,52,52,81,,,,,155.18056239996804,155.83116150001297,155.83116150001297,156.3154363000067,315,315,156.3154363000067,156.3154363000067,156.3154363000067,156.3154363000067,156.3154363000067,156.3154363000067,156.3154363000067,156.3154363000067,156.3154363000067,156.68203540000832,156.68203540000832,156.68203540000832,156.68203540000832,156.68203540000832,156.68203540000832,156.68203540000832,156.68203540000832,156.68203540000832,23,0,,,156.68203540000832,156.88378679996822,1000,156.88378679996822,1000,1000,1000,1000,1,num_2,0.11700909998035058,,25,7,2026-03-04_17h44.40.942,2026A_exp2,2022.2.4,59.709513223658824,
1,0,4.9,4.9,1,0,53,53,18,,,,,157.03204099996947,157.6829155999585,157.6829155999585,158.18416870001238,45,315,158.18416870001238,158.18416870001238,158.18416870001238,158.18416870001238,158.18416870001238,158.18416870001238,158.18416870001238,158.18416870001238,158.18416870001238,158.55055189999985,158.55055189999985,158.55055189999985,158.55055189999985,158.55055189999985,158.55055189999985,158.55055189999985,158.55055189999985,158.55055189999985,23,0,,,158.55055189999985,158.75065179995727,4.9,158.75065179995727,1,4.9,1,1,1000,num_4,0.10545500001171604,,25,7,2026-03-04_17h44.40.942,2026A_exp2,2022.2.4,59.709513223658824,
1000,1,4.9,0.0,0,0,54,54,45,,,,,158.88419789995532,159.51820459996816,159.51820459996816,160.01916969998274,315,45,160.01916969998274,160.01916969998274,160.01916969998274,160.01916969998274,160.01916969998274,160.01916969998274,160.01916969998274,160.01916969998274,160.01916969998274,160.38572389999172,160.38572389999172,160.38572389999172,160.38572389999172,160.38572389999172,160.38572389999172,160.38572389999172,160.38572389999172,160.38572389999172,23,0,,,160.38572389999172,160.5878584999591,1000,160.5878584999591,1000,1000,1000,1000,1,num_2,0.2517598000122234,,25,7,2026-03-04_17h44.40.942,2026A_exp2,2022.2.4,59.709513223658824,
1000,1,4.9,3.7,0,0,55,55,40,,,,,160.8694358000066,161.519971599977,161.519971599977,162.00448489998234,315,45,162.00448489998234,162.00448489998234,162.00448489998234,162.00448489998234,162.00448489998234,162.00448489998234,162.00448489998234,162.00448489998234,162.00448489998234,162.37104840000393,162.37104840000393,162.37104840000393,162.37104840000393,162.37104840000393,162.37104840000393,162.37104840000393,162.37104840000393,162.37104840000393,23,0,,,162.37104840000393,162.57126239995705,1000,162.57126239995705,1000,1000,1000,1000,0,num_3,0.08408429997507483,,25,7,2026-03-04_17h44.40.942,2026A_exp2,2022.2.4,59.709513223658824,
1000,1,0.0,0.0,0,0,56,56,79,,,,,162.67138690000866,163.32194970001,163.32194970001,163.8230188000016,315,315,163.8230188000016,163.8230188000016,163.8230188000016,163.8230188000016,163.8230188000016,163.8230188000016,163.8230188000016,163.8230188000016,163.8230188000016,164.18955309997546,164.18955309997546,164.18955309997546,164.18955309997546,164.18955309997546,164.18955309997546,164.18955309997546,164.18955309997546,164.18955309997546,23,0,,,164.18955309997546,164.39130949997343,1000,164.39130949997343,1000,1000,1000,1000,1,num_2,0.13638659997377545,,25,7,2026-03-04_17h44.40.942,2026A_exp2,2022.2.4,59.709513223658824,
1,0,6.1,0.0,1,0,57,57,17,,,,,164.55666659999406,165.20723609998822,165.20723609998822,165.70835959998658,45,315,165.70835959998658,165.70835959998658,165.70835959998658,165.70835959998658,165.70835959998658,165.70835959998658,165.70835959998658,165.70835959998658,165.70835959998658,166.07474899996305,166.07474899996305,166.07474899996305,166.07474899996305,166.07474899996305,166.07474899996305,166.07474899996305,166.07474899996305,166.07474899996305,23,0,,,166.07474899996305,166.27493539999705,0.0,166.27493539999705,0,0.0,0,1,1000,num_1,0.061497699993196875,,25,7,2026-03-04_17h44.40.942,2026A_exp2,2022.2.4,59.709513223658824,
1,0,3.7,0.0,0,0,58,58,7,,,,,166.35839249996934,167.00901079998584,167.00901079998584,167.49341509997612,45,315,167.49341509997612,167.49341509997612,167.49341509997612,167.49341509997612,167.49341509997612,167.49341509997612,167.49341509997612,167.49341509997612,167.49341509997612,167.85991880000802,167.85991880000802,167.85991880000802,167.85991880000802,167.85991880000802,167.85991880000802,167.85991880000802,167.85991880000802,167.85991880000802,22,1,[0.0669435000163503],[0.08352179999928921],167.85991880000802,168.0737822999945,3.7,168.0737822999945,0,3.7,1,0,1000,num_1,0.022041399963200092,,25,7,2026-03-04_17h44.40.942,2026A_exp2,2022.2.4,59.709513223658824,
1,0,3.7,6.1,1,0,59,59,75,,,,,168.11012470000423,168.76169489999302,168.76169489999302,169.26178080000682,315,315,169.26178080000682,169.26178080000682,169.26178080000682,169.26178080000682,169.26178080000682,169.26178080000682,169.26178080000682,169.26178080000682,169.26178080000682,169.6286953999661,169.6286953999661,169.6286953999661,169.6286953999661,169.6286953999661,169.6286953999661,169.6286953999661,169.6286953999661,169.6286953999661,23,0,,,169.6286953999661,169.82851269998355,6.1,169.82851269998355,1,6.1,1,1,1000,num_4,0.15596120001282543,,25,7,2026-03-04_17h44.40.942,2026A_exp2,2022.2.4,59.709513223658824,
1000,1,4.9,0.0,1,0,60,60,74,,,,,170.01205489999847,170.66264150000643,170.66264150000643,171.14712219999637,45,45,171.14712219999637,171.14712219999637,171.14712219999637,171.14712219999637,171.14712219999637,171.14712219999637,171.14712219999637,171.14712219999637,171.14712219999637,171.51339739997638,171.51339739997638,171.51339739997638,171.51339739997638,171.51339739997638,171.51339739997638,171.51339739997638,171.51339739997638,171.51339739997638,23,0,,,171.51339739997638,171.71561069996096,1000,171.71561069996096,1000,1000,1000,1000,1,num_2,0.11542149999877438,,25,7,2026-03-04_17h44.40.942,2026A_exp2,2022.2.4,59.709513223658824,
0,0,4.9,6.1,1,0,61,61,70,,,,,171.84712389996275,172.4978307999554,172.4978307999554,172.99887109996052,315,45,172.99887109996052,172.99887109996052,172.99887109996052,172.99887109996052,172.99887109996052,172.99887109996052,172.99887109996052,172.99887109996052,172.99887109996052,173.36511489999248,173.36511489999248,173.36511489999248,173.36511489999248,173.36511489999248,173.36511489999248,173.36511489999248,173.36511489999248,173.36511489999248,23,0,,,173.36511489999248,173.57961019995855,4.9,173.57961019995855,0,4.9,1,0,1000,num_1,0.15631789999315515,,25,7,2026-03-04_17h44.40.942,2026A_exp2,2022.2.4,59.709513223658824,
1,0,4.9,3.7,1,0,62,62,71,,,,,173.76584209996508,174.4163224999793,174.4163224999793,174.9175045999582,315,45,174.9175045999582,174.9175045999582,174.9175045999582,174.9175045999582,174.9175045999582,174.9175045999582,174.9175045999582,174.9175045999582,174.9175045999582,175.28384950000327,175.28384950000327,175.28384950000327,175.28384950000327,175.28384950000327,175.28384950000327,175.28384950000327,175.28384950000327,175.28384950000327,23,0,,,175.28384950000327,175.48418319999473,3.7,175.48418319999473,0,3.7,1,0,1000,num_1,0.6037561999983154,,25,7,2026-03-04_17h44.40.942,2026A_exp2,2022.2.4,59.709513223658824,
1,0,3.7,3.7,0,0,63,63,60,,,,,176.11830679996638,176.77745719999075,176.77745719999075,177.26990519999526,315,45,177.26990519999526,177.26990519999526,177.26990519999526,177.26990519999526,177.26990519999526,177.26990519999526,177.26990519999526,177.26990519999526,177.26990519999526,177.63629100000253,177.63629100000253,177.63629100000253,177.63629100000253,177.63629100000253,177.63629100000253,177.63629100000253,177.63629100000253,177.63629100000253,23,0,,,177.63629100000253,177.83647599996766,3.7,177.83647599996766,1,3.7,1,1,1000,num_4,0.5398558999877423,,25,7,2026-03-04_17h44.40.942,2026A_exp2,2022.2.4,59.709513223658824,
1,0,0.0,0.0,0,0,64,64,11,,,,,178.40372669999488,179.03779879998183,179.03779879998183,179.5388474999927,315,45,179.5388474999927,179.5388474999927,179.5388474999927,179.5388474999927,179.5388474999927,179.5388474999927,179.5388474999927,179.5388474999927,179.5388474999927,179.90523719997145,179.90523719997145,179.90523719997145,179.90523719997145,179.90523719997145,179.90523719997145,179.90523719997145,179.90523719997145,179.90523719997145,23,0,,,179.90523719997145,180.1053574999678,0.0,180.1053574999678,1,0.0,0,0,1000,num_4,0.2466944000334479,,25,7,2026-03-04_17h44.40.942,2026A_exp2,2022.2.4,59.709513223658824,
1000,1,0.0,4.9,1,0,65,65,57,,,,,180.3723821999738,181.02316629997222,181.02316629997222,181.50750740000512,315,45,181.50750740000512,181.50750740000512,181.50750740000512,181.50750740000512,181.50750740000512,181.50750740000512,181.50750740000512,181.50750740000512,181.50750740000512,181.87380609998945,181.87380609998945,181.87380609998945,181.87380609998945,181.87380609998945,181.87380609998945,181.87380609998945,181.87380609998945,181.87380609998945,23,0,,,181.87380609998945,182.07586569996784,1000,182.07586569996784,1000,1000,1000,1000,0,num_3,0.19649140001274645,,25,7,2026-03-04_17h44.40.942,2026A_exp2,2022.2.4,59.709513223658824,
1,0,0.0,0.0,1,0,66,66,4,,,,,182.29102579999017,182.9269783999771,182.9269783999771,183.43011899996782,45,45,183.43011899996782,183.43011899996782,183.43011899996782,183.43011899996782,183.43011899996782,183.43011899996782,183.43011899996782,183.43011899996782,183.43011899996782,183.79222949995892,183.79222949995892,183.79222949995892,183.79222949995892,183.79222949995892,183.79222949995892,183.79222949995892,183.79222949995892,183.79222949995892,23,0,,,183.79222949995892,183.9926684999955,0.0,183.9926684999955,1,0.0,0,0,1000,num_4,0.5503822999889962,,25,7,2026-03-04_17h44.40.942,2026A_exp2,2022.2.4,59.709513223658824,
1000,1,6.1,4.9,1,0,67,67,86,,,,,184.55990829999791,185.21042319998378,185.21042319998378,185.69499649998033,315,45,185.69499649998033,185.69499649998033,185.69499649998033,185.69499649998033,185.69499649998033,185.69499649998033,185.69499649998033,185.69499649998033,185.69499649998033,186.06136499997228,186.06136499997228,186.06136499997228,186.06136499997228,186.06136499997228,186.06136499997228,186.06136499997228,186.06136499997228,186.06136499997228,23,0,,,186.06136499997228,186.2636120999814,1000,186.2636120999814,1000,1000,1000,1000,0,num_3,0.19192139996448532,,25,7,2026-03-04_17h44.40.942,2026A_exp2,2022.2.4,59.709513223658824,
1,0,6.1,3.7,1,0,68,68,16,,,,,186.48126659996342,187.12899559998186,187.12899559998186,187.63023589999648,315,45,187.63023589999648,187.63023589999648,187.63023589999648,187.63023589999648,187.63023589999648,187.63023589999648,187.63023589999648,187.63023589999648,187.63023589999648,187.99667500000214,187.99667500000214,187.99667500000214,187.99667500000214,187.99667500000214,187.99667500000214,187.99667500000214,187.99667500000214,187.99667500000214,23,0,,,187.99667500000214,188.19688299996778,3.7,188.19688299996778,0,3.7,1,0,1000,num_1,0.5391722999629565,,25,7,2026-03-04_17h44.40.942,2026A_exp2,2022.2.4,59.709513223658824,
1000,1,0.0,3.7,0,0,69,69,50,,,,,188.76412199996412,189.41481129999738,189.41481129999738,189.89915640000254,45,45,189.89915640000254,189.89915640000254,189.89915640000254,189.89915640000254,189.89915640000254,189.89915640000254,189.89915640000254,189.89915640000254,189.89915640000254,190.26559570000973,190.26559570000973,190.26559570000973,190.26559570000973,190.26559570000973,190.26559570000973,190.26559570000973,190.26559570000973,190.26559570000973,23,0,,,190.26559570000973,190.46739649999654,1000,190.46739649999654,1000,1000,1000,1000,0,num_3,0.21268520003650337,,25,7,2026-03-04_17h44.40.942,2026A_exp2,2022.2.4,59.709513223658824,
1,0,6.1,3.7,1,0,70,70,83,,,,,190.69945769995684,191.34999269997934,191.34999269997934,191.85096939996583,315,45,191.85096939996583,191.85096939996583,191.85096939996583,191.85096939996583,191.85096939996583,191.85096939996583,191.85096939996583,191.85096939996583,191.85096939996583,192.21752860001288,192.21752860001288,192.21752860001288,192.21752860001288,192.21752860001288,192.21752860001288,192.21752860001288,192.21752860001288,192.21752860001288,23,0,,,192.21752860001288,192.41768660000525,3.7,192.41768660000525,1,3.7,1,1,1000,num_4,0.07798349997028708,,25,7,2026-03-04_17h44.40.942,2026A_exp2,2022.2.4,59.709513223658824,
1000,1,0.0,0.0,1,0,71,71,63,,,,,192.51784210000187,193.16836219996912,193.16836219996912,193.65291159995832,315,315,193.65291159995832,193.65291159995832,193.65291159995832,193.65291159995832,193.65291159995832,193.65291159995832,193.65291159995832,193.65291159995832,193.65291159995832,194.0194033999578,194.0194033999578,194.0194033999578,194.0194033999578,194.0194033999578,194.0194033999578,194.0194033999578,194.0194033999578,194.0194033999578,23,0,,,194.0194033999578,194.22127469995758,1000,194.22127469995758,1000,1000,1000,1000,0,num_3,1.1072521000169218,,25,7,2026-03-04_17h44.40.942,2026A_exp2,2022.2.4,59.709513223658824,
0,0,4.9,0.0,1,0,72,72,26,,,,,195.35401409998303,196.00470639998093,196.00470639998093,196.50569550000364,45,45,196.50569550000364,196.50569550000364,196.50569550000364,196.50569550000364,196.50569550000364,196.50569550000364,196.50569550000364,196.50569550000364,196.50569550000364,196.8722565000062,196.8722565000062,196.8722565000062,196.8722565000062,196.8722565000062,196.8722565000062,196.8722565000062,196.8722565000062,196.8722565000062,23,0,,,196.8722565000062,197.07239559997106,4.9,197.07239559997106,0,4.9,1,0,1000,num_1,0.04671049996977672,,25,7,2026-03-04_17h44.40.942,2026A_exp2,2022.2.4,59.709513223658824,
0,0,3.7,3.7,1,0,73,73,62,,,,,197.13905539998086,197.78966319997562,197.78966319997562,198.2742636000039,45,315,198.2742636000039,198.2742636000039,198.2742636000039,198.2742636000039,198.2742636000039,198.2742636000039,198.2742636000039,198.2742636000039,198.2742636000039,198.6570694000111,198.6570694000111,198.6570694000111,198.6570694000111,198.6570694000111,198.6570694000111,198.6570694000111,198.6570694000111,198.6570694000111,11,2,"[0.15047200000844896, 0.28292140003759414]","[0.24952290003420785, 0.38311850000172853]",198.6570694000111,198.85765879997052,3.7,198.85765879997052,1,3.7,1,1,1000,num_4,0.17366289999336004,,25,7,2026-03-04_17h44.40.942,2026A_exp2,2022.2.4,59.709513223658824,
1,0,4.9,6.1,0,0,74,74,29,,,,,199.0576651999727,199.70829300000332,199.70829300000332,200.19265809998615,315,45,200.19265809998615,200.19265809998615,200.19265809998615,200.19265809998615,200.19265809998615,200.19265809998615,200.19265809998615,200.19265809998615,200.19265809998615,200.55922489997465,200.55922489997465,200.55922489997465,200.55922489997465,200.55922489997465,200.55922489997465,200.55922489997465,200.55922489997465,200.55922489997465,23,0,,,200.55922489997465,200.75947719998658,4.9,200.75947719998658,0,4.9,1,0,1000,num_1,0.5450495000113733,,25,7,2026-03-04_17h44.40.942,2026A_exp2,2022.2.4,59.709513223658824,
1000,1,3.7,0.0,0,0,75,75,55,,,,,201.32653749996098,201.9771664,201.9771664,202.46164609998232,315,315,202.46164609998232,202.46164609998232,202.46164609998232,202.46164609998232,202.46164609998232,202.46164609998232,202.46164609998232,202.46164609998232,202.46164609998232,202.82813320000423,202.82813320000423,202.82813320000423,202.82813320000423,202.82813320000423,202.82813320000423,202.82813320000423,202.82813320000423,202.82813320000423,23,0,,,202.82813320000423,203.03001320001204,1000,203.03001320001204,1000,1000,1000,1000,1,num_2,0.14570270001422614,,25,7,2026-03-04_17h44.40.942,2026A_exp2,2022.2.4,59.709513223658824,
1000,1,0.0,3.7,1,0,76,76,67,,,,,203.19529740000144,203.84569489996647,203.84569489996647,204.34692699997686,45,315,204.34692699997686,204.34692699997686,204.34692699997686,204.34692699997686,204.34692699997686,204.34692699997686,204.34692699997686,204.34692699997686,204.34692699997686,204.71337919996586,204.71337919996586,204.71337919996586,204.71337919996586,204.71337919996586,204.71337919996586,204.71337919996586,204.71337919996586,204.71337919996586,23,0,,,204.71337919996586,204.91526239999803,1000,204.91526239999803,1000,1000,1000,1000,0,num_3,0.14126310002757236,,25,7,2026-03-04_17h44.40.942,2026A_exp2,2022.2.4,59.709513223658824,
1,0,0.0,0.0,0,0,77,77,22,,,,,205.0805709999986,205.73107629996957,205.73107629996957,206.2320519000059,315,45,206.2320519000059,206.2320519000059,206.2320519000059,206.2320519000059,206.2320519000059,206.2320519000059,206.2320519000059,206.2320519000059,206.2320519000059,206.59861240000464,206.59861240000464,206.59861240000464,206.59861240000464,206.59861240000464,206.59861240000464,206.59861240000464,206.59861240000464,206.59861240000464,15,1,[0.2501752999960445],[0.366905200004112],206.59861240000464,206.7988658999675,0.0,206.7988658999675,0,0.0,0,1,1000,num_1,0.41670000000158325,,25,7,2026-03-04_17h44.40.942,2026A_exp2,2022.2.4,59.709513223658824,
1,0,0.0,3.7,0,0,78,78,64,,,,,207.23257279995596,207.88320559996646,207.88320559996646,208.36767979996512,45,45,208.36767979996512,208.36767979996512,208.36767979996512,208.36767979996512,208.36767979996512,208.36767979996512,208.36767979996512,208.36767979996512,208.36767979996512,208.7340885999729,208.7340885999729,208.7340885999729,208.7340885999729,208.7340885999729,208.7340885999729,208.7340885999729,208.7340885999729,208.7340885999729,23,0,,,208.7340885999729,208.93444739998085,0.0,208.93444739998085,1,0.0,0,0,1000,num_4,0.21758529997896403,,25,7,2026-03-04_17h44.40.942,2026A_exp2,2022.2.4,59.709513223658824,
1000,1,6.1,0.0,0,0,79,79,69,,,,,209.16785639995942,209.81832359998953,209.81832359998953,210.30292379995808,315,45,210.30292379995808,210.30292379995808,210.30292379995808,210.30292379995808,210.30292379995808,210.30292379995808,210.30292379995808,210.30292379995808,210.30292379995808,210.66929869999876,210.66929869999876,210.66929869999876,210.66929869999876,210.66929869999876,210.66929869999876,210.66929869999876,210.66929869999876,210.66929869999876,23,0,,,210.66929869999876,210.8703460000106,1000,210.8703460000106,1000,1000,1000,1000,1,num_2,0.16932139999698848,,25,7,2026-03-04_17h44.40.942,2026A_exp2,2022.2.4,59.709513223658824,
1000,1,0.0,4.9,0,0,80,80,23,,,,,211.0697419999633,211.72023599996464,211.72023599996464,212.221426300006,45,45,212.221426300006,212.221426300006,212.221426300006,212.221426300006,212.221426300006,212.221426300006,212.221426300006,212.221426300006,212.221426300006,212.58802829997148,212.58802829997148,212.58802829997148,212.58802829997148,212.58802829997148,212.58802829997148,212.58802829997148,212.58802829997148,212.58802829997148,23,0,,,212.58802829997148,212.78826489998028,1000,212.78826489998028,1000,1000,1000,1000,0,num_3,0.14767519995803013,,25,7,2026-03-04_17h44.40.942,2026A_exp2,2022.2.4,59.709513223658824,
1,0,0.0,0.0,0,0,81,81,39,,,,,212.95497089996934,213.60561659996165,213.60561659996165,214.1066430999781,45,315,214.1066430999781,214.1066430999781,214.1066430999781,214.1066430999781,214.1066430999781,214.1066430999781,214.1066430999781,214.1066430999781,214.1066430999781,214.47315390000585,214.47315390000585,214.47315390000585,214.47315390000585,214.47315390000585,214.47315390000585,214.47315390000585,214.47315390000585,214.47315390000585,23,0,,,214.47315390000585,214.67340849997709,0.0,214.67340849997709,0,0.0,0,1,1000,num_1,0.3496385999605991,,25,7,2026-03-04_17h44.40.942,2026A_exp2,2022.2.4,59.709513223658824,
1000,1,4.9,0.0,1,0,82,82,84,,,,,215.04023599997163,215.69098309997935,215.69098309997935,216.1753959999769,45,45,216.1753959999769,216.1753959999769,216.1753959999769,216.1753959999769,216.1753959999769,216.1753959999769,216.1753959999769,216.1753959999769,216.1753959999769,216.54171349998796,216.54171349998796,216.54171349998796,216.54171349998796,216.54171349998796,216.54171349998796,216.54171349998796,216.54171349998796,216.54171349998796,23,0,,,216.54171349998796,216.74373069999274,1000,216.74373069999274,1000,1000,1000,1000,0,num_3,0.16755889996420592,,25,7,2026-03-04_17h44.40.942,2026A_exp2,2022.2.4,59.709513223658824,
1,0,0.0,0.0,1,0,83,83,58,,,,,216.94223819999024,217.592910700012,217.592910700012,218.09407039999496,315,315,218.09407039999496,218.09407039999496,218.09407039999496,218.09407039999496,218.09407039999496,218.09407039999496,218.09407039999496,218.09407039999496,218.09407039999496,218.460348099994,218.460348099994,218.460348099994,218.460348099994,218.460348099994,218.460348099994,218.460348099994,218.460348099994,218.460348099994,23,0,,,218.460348099994,218.66070839995518,0.0,218.66070839995518,0,0.0,0,1,1000,num_1,0.38683799997670576,,25,7,2026-03-04_17h44.40.942,2026A_exp2,2022.2.4,59.709513223658824,
1000,1,4.9,0.0,0,0,84,84,37,,,,,219.07775719999336,219.72843869996723,219.72843869996723,220.2126438000123,45,45,220.2126438000123,220.2126438000123,220.2126438000123,220.2126438000123,220.2126438000123,220.2126438000123,220.2126438000123,220.2126438000123,220.2126438000123,220.5791806000052,220.5791806000052,220.5791806000052,220.5791806000052,220.5791806000052,220.5791806000052,220.5791806000052,220.5791806000052,220.5791806000052,23,0,,,220.5791806000052,220.7813737000106,1000,220.7813737000106,1000,1000,1000,1000,0,num_3,0.08345800003735349,,25,7,2026-03-04_17h44.40.942,2026A_exp2,2022.2.4,59.709513223658824,
1000,1,0.0,3.7,1,0,85,85,1,,,,,220.8962486999808,221.54686399997445,221.54686399997445,222.0482715999824,45,45,222.0482715999824,222.0482715999824,222.0482715999824,222.0482715999824,222.0482715999824,222.0482715999824,222.0482715999824,222.0482715999824,222.0482715999824,222.39764799998375,222.39764799998375,222.39764799998375,222.39764799998375,222.39764799998375,222.39764799998375,222.39764799998375,222.39764799998375,222.39764799998375,22,0,,,222.39764799998375,222.5997782999766,1000,222.61483949999092,1000,1000,1000,1000,1,num_2,0.8403960000141524,,25,7,2026-03-04_17h44.40.942,2026A_exp2,2022.2.4,59.709513223658824,
1000,1,0.0,0.0,0,0,86,86,13,,,,,223.48208230000455,224.13279349997174,224.13279349997174,224.63392900000326,315,315,224.63392900000326,224.63392900000326,224.63392900000326,224.63392900000326,224.63392900000326,224.63392900000326,224.63392900000326,224.63392900000326,224.63392900000326,225.0003163999645,225.0003163999645,225.0003163999645,225.0003163999645,225.0003163999645,225.0003163999645,225.0003163999645,225.0003163999645,225.0003163999645,23,0,,,225.0003163999645,225.20221899996977,1000,225.20221899996977,1000,1000,1000,1000,1,num_2,0.1817221000092104,,25,7,2026-03-04_17h44.40.942,2026A_exp2,2022.2.4,59.709513223658824,
1,0,4.9,6.1,1,0,87,87,36,,,,,225.40089079999598,226.05141869996442,226.05141869996442,226.5525556000066,315,315,226.5525556000066,226.5525556000066,226.5525556000066,226.5525556000066,226.5525556000066,226.5525556000066,226.5525556000066,226.5525556000066,226.5525556000066,226.91908779996447,226.91908779996447,226.91908779996447,226.91908779996447,226.91908779996447,226.91908779996447,226.91908779996447,226.91908779996447,226.91908779996447,23,0,,,226.91908779996447,227.11913239996647,6.1,227.11913239996647,0,6.1,1,0,1000,num_1,0.21632680000038818,,25,7,2026-03-04_17h44.40.942,2026A_exp2,2022.2.4,59.709513223658824,
1000,1,0.0,0.0,1,0,88,88,35,,,,,227.35267289995681,228.0034042999614,228.0034042999614,228.487805199984,45,45,228.487805199984,228.487805199984,228.487805199984,228.487805199984,228.487805199984,228.487805199984,228.487805199984,228.487805199984,228.487805199984,228.85407050000504,228.85407050000504,228.85407050000504,228.85407050000504,228.85407050000504,228.85407050000504,228.85407050000504,228.85407050000504,228.85407050000504,23,0,,,228.85407050000504,229.05630180001026,1000,229.05630180001026,1000,1000,1000,1000,1,num_2,0.5107511000242084,,25,7,2026-03-04_17h44.40.942,2026A_exp2,2022.2.4,59.709513223658824,
1,0,6.1,0.0,0,0,89,89,51,,,,,229.5883133999887,230.23914550000336,230.23914550000336,230.74004509998485,315,45,230.74004509998485,230.74004509998485,230.74004509998485,230.74004509998485,230.74004509998485,230.74004509998485,230.74004509998485,230.74004509998485,230.74004509998485,231.10643649997655,231.10643649997655,231.10643649997655,231.10643649997655,231.10643649997655,231.10643649997655,231.10643649997655,231.10643649997655,231.10643649997655,23,0,,,231.10643649997655,231.3066070000059,6.1,231.3066070000059,0,6.1,1,0,1000,num_1,0.32574270002078265,,25,7,2026-03-04_17h44.40.942,2026A_exp2,2022.2.4,59.709513223658824,
,,,,,,,,,,,,,,,,,,,,,,,,,,,,,,,,,,,,,,,,,,,,,,,,,,,,231.68801919999532,,,,,,,
