validity,detectorcomp,contrastCW,contrastCCW,precueCWorCCW,block_80trials.thisRepN,block_80trials.thisTrialN,block_80trials.thisN,block_80trials.thisIndex,etRecord.started,etRecord.stopped,text.started,text.stopped,text_4.started,text_4.stopped,text_6.started,text_6.stopped,oriCW,oriCCW,roi_2.started,grating_UR.started,grating_UL.started,grating_LR.started,grating_LL.started,noise_UR.started,noise_UL.started,noise_LR.started,noise_LL.started,roi_2.stopped,grating_UR.stopped,grating_UL.stopped,grating_LR.stopped,grating_LL.stopped,noise_UR.stopped,noise_UL.stopped,noise_LR.stopped,noise_LL.stopped,outframe,roi_2.numLooks,roi_2.timesOn,roi_2.timesOff,text_2.started,text_2.stopped,probedcontrast,key_resp.started,respdetect,relevantContrast,correctDetect,TorFdetect,respCWorCCW,key_resp.keys,key_resp.rt,feedback_display_.started,participantNo,blockNo,date,expName,psychopyVersion,frameRate,
0,0,3.7,0.0,1,0,0,0,1,5.940001574344933e-05,5.940001574344933e-05,60.75716399998055,62.76146579999477,62.76146579999477,63.39405399997486,63.39405399997486,63.9143118999782,45,45,63.9143118999782,63.9143118999782,63.9143118999782,63.9143118999782,63.9143118999782,63.9143118999782,63.9143118999782,63.9143118999782,63.9143118999782,64.26155049999943,64.26155049999943,64.26155049999943,64.26155049999943,64.26155049999943,64.26155049999943,64.26155049999943,64.26155049999943,64.26155049999943,23,0,,,64.26155049999943,64.46176989999367,3.7,64.46176989999367,1,3.7,1,1,1000,num_4,0.713228499982506,,20,13,2026-03-02_16h34.22.763,2026A_exp2,2022.2.4,59.91227644294633,
1000,1,0.0,3.7,0,0,1,1,21,,,,,65.19587789999787,65.84658519999357,65.84658519999357,66.34772679998423,315,315,66.34772679998423,66.34772679998423,66.34772679998423,66.34772679998423,66.34772679998423,66.34772679998423,66.34772679998423,66.34772679998423,66.34772679998423,66.69743369999924,66.69743369999924,66.69743369999924,66.69743369999924,66.69743369999924,66.69743369999924,66.69743369999924,66.69743369999924,66.69743369999924,22,0,,,66.69743369999924,66.90211199998157,1000,66.90211199998157,1000,1000,1000,1000,1,num_2,0.5446463999978732,,20,13,2026-03-02_16h34.22.763,2026A_exp2,2022.2.4,59.91227644294633,
1000,1,0.0,3.7,1,0,2,2,88,,,,,67.46493369998643,68.11540859998786,68.11540859998786,68.61646920000203,45,45,68.61646920000203,68.61646920000203,68.61646920000203,68.61646920000203,68.61646920000203,68.61646920000203,68.61646920000203,68.61646920000203,68.61646920000203,68.9661730999942,68.9661730999942,68.9661730999942,68.9661730999942,68.9661730999942,68.9661730999942,68.9661730999942,68.9661730999942,68.9661730999942,22,0,,,68.9661730999942,69.16817099999753,1000,69.18307780000032,1000,1000,1000,1000,1,num_2,0.5119490999786649,,20,13,2026-03-02_16h34.22.763,2026A_exp2,2022.2.4,59.91227644294633,
1,0,6.1,6.1,1,0,3,3,47,,,,,69.71721439997782,70.36763090000022,70.36763090000022,70.86611239999183,315,45,70.86611239999183,70.86611239999183,70.86611239999183,70.86611239999183,70.86611239999183,70.86611239999183,70.86611239999183,70.86611239999183,70.86611239999183,71.21846429997822,71.21846429997822,71.21846429997822,71.21846429997822,71.21846429997822,71.21846429997822,71.21846429997822,71.21846429997822,71.21846429997822,20,2,"[0.28128490000381134, 0.3479120999982115]","[0.29771790001541376, 0.36460190001525916]",71.21846429997822,71.41876579998643,6.1,71.41876579998643,1,6.1,1,1,1000,num_4,0.7477882000093814,,20,13,2026-03-02_16h34.22.763,2026A_exp2,2022.2.4,59.91227644294633,
1000,1,0.0,4.9,1,0,4,4,37,,,,,72.1862091999792,72.83685229998082,72.83685229998082,73.3211856999842,315,45,73.3211856999842,73.3211856999842,73.3211856999842,73.3211856999842,73.3211856999842,73.3211856999842,73.3211856999842,73.3211856999842,73.3211856999842,73.68751920000068,73.68751920000068,73.68751920000068,73.68751920000068,73.68751920000068,73.68751920000068,73.68751920000068,73.68751920000068,73.68751920000068,0,1,[0.0013166999851819128],[0.3671604999981355],73.68751920000068,73.8894024999754,1000,73.8894024999754,1000,1000,1000,1000,1,num_2,0.46169369999552146,,20,13,2026-03-02_16h34.22.763,2026A_exp2,2022.2.4,59.91227644294633,
1000,1,0.0,0.0,1,0,5,5,56,,,,,74.37169569998514,75.02240499999607,75.02240499999607,75.52312499997788,315,315,75.52312499997788,75.52312499997788,75.52312499997788,75.52312499997788,75.52312499997788,75.52312499997788,75.52312499997788,75.52312499997788,75.52312499997788,75.8732504999789,75.8732504999789,75.8732504999789,75.8732504999789,75.8732504999789,75.8732504999789,75.8732504999789,75.8732504999789,75.8732504999789,0,1,[0.000746000005165115],[0.3514218000054825],75.8732504999789,76.07531989997369,1000,76.07531989997369,1000,1000,1000,1000,1,num_2,0.4356178999878466,,20,13,2026-03-02_16h34.22.763,2026A_exp2,2022.2.4,59.91227644294633,
0,0,6.1,3.7,0,0,6,6,49,,,,,76.5404489999928,77.1912835999974,77.1912835999974,77.69228639997891,315,45,77.69228639997891,77.69228639997891,77.69228639997891,77.69228639997891,77.69228639997891,77.69228639997891,77.69228639997891,77.69228639997891,77.69228639997891,78.05875759999617,78.05875759999617,78.05875759999617,78.05875759999617,78.05875759999617,78.05875759999617,78.05875759999617,78.05875759999617,78.05875759999617,0,1,[0.0012079000007361174],[0.3669962999993004],78.05875759999617,78.25883879998582,3.7,78.25883879998582,0,3.7,1,0,1000,num_1,0.6835204999952111,,20,13,2026-03-02_16h34.22.763,2026A_exp2,2022.2.4,59.91227644294633,
1,0,0.0,6.1,1,0,7,7,46,,,,,78.95975359997828,79.59369629999856,79.59369629999856,80.09455759997945,45,45,80.09455759997945,80.09455759997945,80.09455759997945,80.09455759997945,80.09455759997945,80.09455759997945,80.09455759997945,80.09455759997945,80.09455759997945,80.46109999998589,80.46109999998589,80.46109999998589,80.46109999998589,80.46109999998589,80.46109999998589,80.46109999998589,80.46109999998589,80.46109999998589,0,1,[0.001204700005473569],[0.36721629998646677],80.46109999998589,80.66131709999172,6.1,80.66131709999172,1,6.1,1,1,1000,num_4,0.4490845999971498,,20,13,2026-03-02_16h34.22.763,2026A_exp2,2022.2.4,59.91227644294633,
0,0,0.0,3.7,1,0,8,8,53,,,,,81.12830949999625,81.77910089999205,81.77910089999205,82.26354159999755,45,315,82.26354159999755,82.26354159999755,82.26354159999755,82.26354159999755,82.26354159999755,82.26354159999755,82.26354159999755,82.26354159999755,82.26354159999755,82.63000419997843,82.63000419997843,82.63000419997843,82.63000419997843,82.63000419997843,82.63000419997843,82.63000419997843,82.63000419997843,82.63000419997843,1,2,"[0.001196700002765283, 0.06673660001251847]","[0.05009340000106022, 0.36718679999466985]",82.63000419997843,82.83013859999483,0.0,82.83013859999483,0,0.0,0,1,1000,num_1,0.5523732999863569,,20,13,2026-03-02_16h34.22.763,2026A_exp2,2022.2.4,59.91227644294633,
1000,1,3.7,0.0,0,0,9,9,39,,,,,83.41394099997706,84.06460689997766,84.06460689997766,84.54921050000121,315,315,84.54921050000121,84.54921050000121,84.54921050000121,84.54921050000121,84.54921050000121,84.54921050000121,84.54921050000121,84.54921050000121,84.54921050000121,84.91562980000162,84.91562980000162,84.91562980000162,84.91562980000162,84.91562980000162,84.91562980000162,84.91562980000162,84.91562980000162,84.91562980000162,1,2,"[0.0012119000020902604, 0.23370929999509826]","[0.21721400000387803, 0.36728959999163635]",84.91562980000162,85.11742199998116,1000,85.11742199998116,1000,1000,1000,1000,0,num_3,0.38605840000673197,,20,13,2026-03-02_16h34.22.763,2026A_exp2,2022.2.4,59.91227644294633,
1,0,0.0,6.1,0,0,10,10,24,,,,,85.53274979998241,86.18359159998363,86.18359159998363,86.68467509999755,315,315,86.68467509999755,86.68467509999755,86.68467509999755,86.68467509999755,86.68467509999755,86.68467509999755,86.68467509999755,86.68467509999755,86.68467509999755,87.03425359999528,87.03425359999528,87.03425359999528,87.03425359999528,87.03425359999528,87.03425359999528,87.03425359999528,87.03425359999528,87.03425359999528,0,1,[0.001210299989907071],[0.35063140001147985],87.03425359999528,87.23461389998556,0.0,87.25129159999778,0,0.0,0,1,1000,num_1,1.1713487999804784,,20,13,2026-03-02_16h34.22.763,2026A_exp2,2022.2.4,59.91227644294633,
1000,1,0.0,6.1,1,0,11,11,42,,,,,88.4524887999869,89.08632409997517,89.08632409997517,89.58740599997691,45,45,89.58740599997691,89.58740599997691,89.58740599997691,89.58740599997691,89.58740599997691,89.58740599997691,89.58740599997691,89.58740599997691,89.58740599997691,89.95389119998435,89.95389119998435,89.95389119998435,89.95389119998435,89.95389119998435,89.95389119998435,89.95389119998435,89.95389119998435,89.95389119998435,0,1,[0.0012944999907631427],[0.36719239997910336],89.95389119998435,90.15590529999463,1000,90.15590529999463,1000,1000,1000,1000,1,num_2,0.7226039999804925,,20,13,2026-03-02_16h34.22.763,2026A_exp2,2022.2.4,59.91227644294633,
1000,1,0.0,6.1,1,0,12,12,13,,,,,90.90506129999994,91.55559099998209,91.55559099998209,92.0400140999991,315,45,92.0400140999991,92.0400140999991,92.0400140999991,92.0400140999991,92.0400140999991,92.0400140999991,92.0400140999991,92.0400140999991,92.0400140999991,92.40639879999799,92.40639879999799,92.40639879999799,92.40639879999799,92.40639879999799,92.40639879999799,92.40639879999799,92.40639879999799,92.40639879999799,12,1,[0.20048459997633472],[0.3673361999972258],92.40639879999799,92.60808779997751,1000,92.60808779997751,1000,1000,1000,1000,1,num_2,0.39100829997914843,,20,13,2026-03-02_16h34.22.763,2026A_exp2,2022.2.4,59.91227644294633,
1,0,3.7,0.0,0,0,13,13,10,,,,,93.02354259998538,93.67430509999394,93.67430509999394,94.17536309998832,45,45,94.17536309998832,94.17536309998832,94.17536309998832,94.17536309998832,94.17536309998832,94.17536309998832,94.17536309998832,94.17536309998832,94.17536309998832,94.54171979997773,94.54171979997773,94.54171979997773,94.54171979997773,94.54171979997773,94.54171979997773,94.54171979997773,94.54171979997773,94.54171979997773,0,1,[0.0012515000125858933],[0.3669614999962505],94.54171979997773,94.74196459999075,3.7,94.74196459999075,1,3.7,1,1,1000,num_4,0.6174160999944434,,20,13,2026-03-02_16h34.22.763,2026A_exp2,2022.2.4,59.91227644294633,
1000,1,4.9,3.7,0,0,14,14,28,,,,,95.37615139997797,96.02694909999263,96.02694909999263,96.51102349997382,315,45,96.51102349997382,96.51102349997382,96.51102349997382,96.51102349997382,96.51102349997382,96.51102349997382,96.51102349997382,96.51102349997382,96.51102349997382,96.87747379997745,96.87747379997745,96.87747379997745,96.87747379997745,96.87747379997745,96.87747379997745,96.87747379997745,96.87747379997745,96.87747379997745,2,2,"[0.0012387999740894884, 0.23382669998682104]","[0.21704989997670054, 0.36719159997301176]",96.87747379997745,97.07971919997362,1000,97.07971919997362,1000,1000,1000,1000,0,num_3,0.5992416999943089,,20,13,2026-03-02_16h34.22.763,2026A_exp2,2022.2.4,59.91227644294633,
1000,1,0.0,0.0,0,0,15,15,7,,,,,97.69493469997542,98.34541099998751,98.34541099998751,98.84668319998309,315,45,98.84668319998309,98.84668319998309,98.84668319998309,98.84668319998309,98.84668319998309,98.84668319998309,98.84668319998309,98.84668319998309,98.84668319998309,99.21311719997902,99.21311719997902,99.21311719997902,99.21311719997902,99.21311719997902,99.21311719997902,99.21311719997902,99.21311719997902,99.21311719997902,0,1,[0.0007415000000037253],[0.36767609999515116],99.21311719997902,99.41530589998001,1000,99.41530589998001,1000,1000,1000,1000,1,num_2,0.7520484999986365,,20,13,2026-03-02_16h34.22.763,2026A_exp2,2022.2.4,59.91227644294633,
1,0,0.0,0.0,0,0,16,16,80,,,,,100.19741639998392,100.84782399999676,100.84782399999676,101.34933349999483,315,45,101.34933349999483,101.34933349999483,101.34933349999483,101.34933349999483,101.34933349999483,101.34933349999483,101.34933349999483,101.34933349999483,101.34933349999483,101.7154620999936,101.7154620999936,101.7154620999936,101.7154620999936,101.7154620999936,101.7154620999936,101.7154620999936,101.7154620999936,101.7154620999936,0,1,[0.0012174000148661435],[0.3672214000253007],101.7154620999936,101.91575669997837,0.0,101.91575669997837,0,0.0,0,1,1000,num_1,0.7798805000202265,,20,13,2026-03-02_16h34.22.763,2026A_exp2,2022.2.4,59.91227644294633,
1,0,0.0,0.0,1,0,17,17,31,,,,,102.71654129997478,103.36732739998843,103.36732739998843,103.85184170000139,315,315,103.85184170000139,103.85184170000139,103.85184170000139,103.85184170000139,103.85184170000139,103.85184170000139,103.85184170000139,103.85184170000139,103.85184170000139,104.21818849997362,104.21818849997362,104.21818849997362,104.21818849997362,104.21818849997362,104.21818849997362,104.21818849997362,104.21818849997362,104.21818849997362,0,1,[0.0010073000157717615],[0.36728770000627264],104.21818849997362,104.41842319999705,0.0,104.41842319999705,1,0.0,0,0,1000,num_4,0.700600400014082,,20,13,2026-03-02_16h34.22.763,2026A_exp2,2022.2.4,59.91227644294633,
1000,1,6.1,0.0,1,0,18,18,79,,,,,105.13589229999343,105.78645239997422,105.78645239997422,106.27075699999114,45,315,106.27075699999114,106.27075699999114,106.27075699999114,106.27075699999114,106.27075699999114,106.27075699999114,106.27075699999114,106.27075699999114,106.27075699999114,106.63732169999275,106.63732169999275,106.63732169999275,106.63732169999275,106.63732169999275,106.63732169999275,106.63732169999275,106.63732169999275,106.63732169999275,0,1,[0.0012320999812800437],[0.3672163999872282],106.63732169999275,106.83944509999128,1000,106.83944509999128,1000,1000,1000,1000,0,num_3,0.319605099997716,,20,13,2026-03-02_16h34.22.763,2026A_exp2,2022.2.4,59.91227644294633,
1,0,6.1,0.0,0,0,19,19,85,,,,,107.18776739999885,107.83847769998829,107.83847769998829,108.33973899998819,45,45,108.33973899998819,108.33973899998819,108.33973899998819,108.33973899998819,108.33973899998819,108.33973899998819,108.33973899998819,108.33973899998819,108.33973899998819,108.70606109997607,108.70606109997607,108.70606109997607,108.70606109997607,108.70606109997607,108.70606109997607,108.70606109997607,108.70606109997607,108.70606109997607,0,1,[0.0014429000148084015],[0.3668885999941267],108.70606109997607,108.90616079999018,6.1,108.90616079999018,1,6.1,1,1,1000,num_4,0.6770441000116989,,20,13,2026-03-02_16h34.22.763,2026A_exp2,2022.2.4,59.91227644294633,
1000,1,0.0,0.0,0,0,20,20,62,,,,,109.60680749997846,110.25760799998534,110.25760799998534,110.7421134999895,45,315,110.7421134999895,110.7421134999895,110.7421134999895,110.7421134999895,110.7421134999895,110.7421134999895,110.7421134999895,110.7421134999895,110.7421134999895,111.1084445999877,111.1084445999877,111.1084445999877,111.1084445999877,111.1084445999877,111.1084445999877,111.1084445999877,111.1084445999877,111.1084445999877,4,3,"[0.01734950000536628, 0.10009530000388622, 0.13351040001725778]","[0.083530800009612, 0.11682890000520274, 0.36718160001328215]",111.1084445999877,111.31023419997655,1000,111.31023419997655,1000,1000,1000,1000,1,num_2,0.5841406999970786,,20,13,2026-03-02_16h34.22.763,2026A_exp2,2022.2.4,59.91227644294633,
0,0,4.9,0.0,0,0,21,21,40,,,,,111.92605619999813,112.57683340000222,112.57683340000222,113.07753650000086,315,45,113.07753650000086,113.07753650000086,113.07753650000086,113.07753650000086,113.07753650000086,113.07753650000086,113.07753650000086,113.07753650000086,113.07753650000086,113.44412790000206,113.44412790000206,113.44412790000206,113.44412790000206,113.44412790000206,113.44412790000206,113.44412790000206,113.44412790000206,113.44412790000206,1,2,"[0.0011905999854207039, 0.24960559999453835]","[0.23275399999693036, 0.36596180000924505]",113.44412790000206,113.64423969999189,0.0,113.64423969999189,0,0.0,0,1,1000,num_1,0.530301499995403,,20,13,2026-03-02_16h34.22.763,2026A_exp2,2022.2.4,59.91227644294633,
1000,1,0.0,0.0,0,0,22,22,64,,,,,114.19498579998617,114.82883159999619,114.82883159999619,115.32985169999301,45,315,115.32985169999301,115.32985169999301,115.32985169999301,115.32985169999301,115.32985169999301,115.32985169999301,115.32985169999301,115.32985169999301,115.32985169999301,115.6962658999837,115.6962658999837,115.6962658999837,115.6962658999837,115.6962658999837,115.6962658999837,115.6962658999837,115.6962658999837,115.6962658999837,12,6,"[0.03303109999978915, 0.08308909999323077, 0.16688189998967573, 0.23357809998560697, 0.28354330000001937, 0.3671829999948386]","[0.049741199996788055, 0.11655330000212416, 0.20035289999214, 0.2503177000035066, 0.3504374999902211, 0.3671877000015229]",115.6962658999837,115.89647149998927,1000,115.89647149998927,1000,1000,1000,1000,1,num_2,0.4464715999783948,,20,13,2026-03-02_16h34.22.763,2026A_exp2,2022.2.4,59.91227644294633,
0,0,6.1,0.0,0,0,23,23,41,,,,,116.36358089998248,117.0142275999824,117.0142275999824,117.51537369997823,315,45,117.51537369997823,117.51537369997823,117.51537369997823,117.51537369997823,117.51537369997823,117.51537369997823,117.51537369997823,117.51537369997823,117.51537369997823,117.8821123999951,117.8821123999951,117.8821123999951,117.8821123999951,117.8821123999951,117.8821123999951,117.8821123999951,117.8821123999951,117.8821123999951,1,2,"[0.001195799995912239, 0.3004908000002615]","[0.28382719997898676, 0.36715199999161996]",117.8821123999951,118.08206109999446,0.0,118.08206109999446,0,0.0,0,1,1000,num_1,0.46924760000547394,,20,13,2026-03-02_16h34.22.763,2026A_exp2,2022.2.4,59.91227644294633,
1000,1,4.9,3.7,1,0,24,24,78,,,,,118.58245589997387,119.2332660999964,119.2332660999964,119.71756619997905,45,45,119.71756619997905,119.71756619997905,119.71756619997905,119.71756619997905,119.71756619997905,119.71756619997905,119.71756619997905,119.71756619997905,119.71756619997905,120.08403949998319,120.08403949998319,120.08403949998319,120.08403949998319,120.08403949998319,120.08403949998319,120.08403949998319,120.08403949998319,120.08403949998319,1,2,"[0.0011966000020038337, 0.25053719998686574]","[0.23356709998915903, 0.36732540000230074]",120.08403949998319,120.28618599998299,1000,120.28618599998299,1000,1000,1000,1000,0,num_3,0.3775436000141781,,20,13,2026-03-02_16h34.22.763,2026A_exp2,2022.2.4,59.91227644294633,
1,0,4.9,4.9,1,0,25,25,9,,,,,120.68460919999052,121.3353462999803,121.3353462999803,121.8363547999761,45,315,121.8363547999761,121.8363547999761,121.8363547999761,121.8363547999761,121.8363547999761,121.8363547999761,121.8363547999761,121.8363547999761,121.8363547999761,122.20286249998026,122.20286249998026,122.20286249998026,122.20286249998026,122.20286249998026,122.20286249998026,122.20286249998026,122.20286249998026,122.20286249998026,0,1,[0.0012174000148661435],[0.36740450002253056],122.20286249998026,122.40298629997415,4.9,122.40298629997415,1,4.9,1,1,1000,num_4,0.9243978000013158,,20,13,2026-03-02_16h34.22.763,2026A_exp2,2022.2.4,59.91227644294633,
1000,1,0.0,3.7,0,0,26,26,23,,,,,123.35385999997379,124.00469399997382,124.00469399997382,124.48880529997405,45,45,124.48880529997405,124.48880529997405,124.48880529997405,124.48880529997405,124.48880529997405,124.48880529997405,124.48880529997405,124.48880529997405,124.48880529997405,124.85539019998396,124.85539019998396,124.85539019998396,124.85539019998396,124.85539019998396,124.85539019998396,124.85539019998396,124.85539019998396,124.85539019998396,5,3,"[0.03322779998416081, 0.3169614000071306, 0.3505128999822773]","[0.2837807000032626, 0.3338433000026271, 0.3670566999935545]",124.85539019998396,125.0574467999977,1000,125.0574467999977,1000,1000,1000,1000,1,num_2,0.4291250000242144,,20,13,2026-03-02_16h34.22.763,2026A_exp2,2022.2.4,59.91227644294633,
1000,1,0.0,0.0,1,0,27,27,55,,,,,125.50607279999531,126.15674489998491,126.15674489998491,126.6579293999821,315,315,126.6579293999821,126.6579293999821,126.6579293999821,126.6579293999821,126.6579293999821,126.6579293999821,126.6579293999821,126.6579293999821,126.6579293999821,127.02428769998369,127.02428769998369,127.02428769998369,127.02428769998369,127.02428769998369,127.02428769998369,127.02428769998369,127.02428769998369,127.02428769998369,23,0,,,127.02428769998369,127.22680059997947,1000,127.22680059997947,1000,1000,1000,1000,1,num_2,0.556520999991335,,20,13,2026-03-02_16h34.22.763,2026A_exp2,2022.2.4,59.91227644294633,
1000,1,4.9,0.0,1,0,28,28,48,,,,,127.80893989998731,128.45886439998867,128.45886439998867,128.9654571999854,45,45,128.9654571999854,128.9654571999854,128.9654571999854,128.9654571999854,128.9654571999854,128.9654571999854,128.9654571999854,128.9654571999854,128.9654571999854,129.30982279998716,129.30982279998716,129.30982279998716,129.30982279998716,129.30982279998716,129.30982279998716,129.30982279998716,129.30982279998716,129.30982279998716,22,0,,,129.30982279998716,129.51196899998467,1000,129.52677319999202,1000,1000,1000,1000,0,num_3,0.36902199999894947,,20,13,2026-03-02_16h34.22.763,2026A_exp2,2022.2.4,59.91227644294633,
1000,1,4.9,0.0,0,0,29,29,50,,,,,129.92727939999895,130.57780659999116,130.57780659999116,131.07904459998826,45,315,131.07904459998826,131.07904459998826,131.07904459998826,131.07904459998826,131.07904459998826,131.07904459998826,131.07904459998826,131.07904459998826,131.07904459998826,131.44546969997464,131.44546969997464,131.44546969997464,131.44546969997464,131.44546969997464,131.44546969997464,131.44546969997464,131.44546969997464,131.44546969997464,17,3,"[0.0012304999982006848, 0.13345759999356233, 0.26685169999836944]","[0.03333899998688139, 0.1831081999989692, 0.28348849999019876]",131.44546969997464,131.64730989999953,1000,131.64730989999953,1000,1000,1000,1000,0,num_3,0.3520925999910105,,20,13,2026-03-02_16h34.22.763,2026A_exp2,2022.2.4,59.91227644294633,
1,0,3.7,0.0,1,0,30,30,30,,,,,132.02921300000162,132.6800623999734,132.6800623999734,133.18112379999366,45,45,133.18112379999366,133.18112379999366,133.18112379999366,133.18112379999366,133.18112379999366,133.18112379999366,133.18112379999366,133.18112379999366,133.18112379999366,133.53077829998801,133.53077829998801,133.53077829998801,133.53077829998801,133.53077829998801,133.53077829998801,133.53077829998801,133.53077829998801,133.53077829998801,11,7,"[0.0012140000180806965, 0.03349200001684949, 0.13383920001797378, 0.20036899999831803, 0.25043929999810643, 0.3169640999985859, 0.35022160000517033]","[0.017349000001559034, 0.06685520001337864, 0.15023100000689737, 0.23366009999881499, 0.30043629999272525, 0.3335183000017423, 0.3502250000019558]",133.53077829998801,133.7309783999808,0.0,133.7309783999808,0,0.0,0,1,1000,num_1,0.7081355999980588,,20,13,2026-03-02_16h34.22.763,2026A_exp2,2022.2.4,59.91227644294633,
1000,1,6.1,0.0,0,0,31,31,27,,,,,134.4650346999988,135.1158156999736,135.1158156999736,135.60015019998536,315,315,135.60015019998536,135.60015019998536,135.60015019998536,135.60015019998536,135.60015019998536,135.60015019998536,135.60015019998536,135.60015019998536,135.60015019998536,135.96658349997597,135.96658349997597,135.96658349997597,135.96658349997597,135.96658349997597,135.96658349997597,135.96658349997597,135.96658349997597,135.96658349997597,9,2,"[0.0007234000077005476, 0.31757819998892955]","[0.21698729999479838, 0.3342578999872785]",135.96658349997597,136.16678239998873,1000,136.16678239998873,1000,1000,1000,1000,0,num_3,0.39235579999512993,,20,13,2026-03-02_16h34.22.763,2026A_exp2,2022.2.4,59.91227644294633,
1000,1,0.0,0.0,0,0,32,32,65,,,,,136.58375989997876,137.23459029998048,137.23459029998048,137.7355050999904,315,45,137.7355050999904,137.7355050999904,137.7355050999904,137.7355050999904,137.7355050999904,137.7355050999904,137.7355050999904,137.7355050999904,137.7355050999904,138.08539539997582,138.08539539997582,138.08539539997582,138.08539539997582,138.08539539997582,138.08539539997582,138.08539539997582,138.08539539997582,138.08539539997582,0,1,[0.0012332999904174358],[0.3505307999730576],138.08539539997582,138.28746579997824,1000,138.28746579997824,1000,1000,1000,1000,1,num_2,0.6722672999894712,,20,13,2026-03-02_16h34.22.763,2026A_exp2,2022.2.4,59.91227644294633,
1000,1,6.1,3.7,1,0,33,33,11,,,,,138.98617349998676,139.63705779999145,139.63705779999145,140.12155619999976,45,45,140.12155619999976,140.12155619999976,140.12155619999976,140.12155619999976,140.12155619999976,140.12155619999976,140.12155619999976,140.12155619999976,140.12155619999976,140.48771889999625,140.48771889999625,140.48771889999625,140.48771889999625,140.48771889999625,140.48771889999625,140.48771889999625,140.48771889999625,140.48771889999625,0,1,[0.0007200000109151006],[0.3678481999959331],140.48771889999625,140.68992129998514,1000,140.68992129998514,1000,1000,1000,1000,0,num_3,0.38935339997988194,,20,13,2026-03-02_16h34.22.763,2026A_exp2,2022.2.4,59.91227644294633,
1000,1,3.7,4.9,1,0,34,34,71,,,,,141.10504090000177,141.75576109997928,141.75576109997928,142.25676029999158,315,315,142.25676029999158,142.25676029999158,142.25676029999158,142.25676029999158,142.25676029999158,142.25676029999158,142.25676029999158,142.25676029999158,142.25676029999158,142.62325819997932,142.62325819997932,142.62325819997932,142.62325819997932,142.62325819997932,142.62325819997932,142.62325819997932,142.62325819997932,142.62325819997932,2,2,"[0.0012404999870341271, 0.3167451999906916]","[0.30004689999623224, 0.36696839999058284]",142.62325819997932,142.82553199998802,1000,142.82553199998802,1000,1000,1000,1000,1,num_2,0.5017275999998674,,20,13,2026-03-02_16h34.22.763,2026A_exp2,2022.2.4,59.91227644294633,
1,0,0.0,0.0,1,0,35,35,38,,,,,143.35723059999873,144.0080318999826,144.0080318999826,144.50911199999973,315,45,144.50911199999973,144.50911199999973,144.50911199999973,144.50911199999973,144.50911199999973,144.50911199999973,144.50911199999973,144.50911199999973,144.50911199999973,144.8754842999915,144.8754842999915,144.8754842999915,144.8754842999915,144.8754842999915,144.8754842999915,144.8754842999915,144.8754842999915,144.8754842999915,0,1,[0.001295800000661984],[0.36698079999769107],144.8754842999915,145.07566099998076,0.0,145.07566099998076,0,0.0,0,1,1000,num_1,1.4836021000228357,,20,13,2026-03-02_16h34.22.763,2026A_exp2,2022.2.4,59.91227644294633,
1,0,0.0,0.0,1,0,36,36,6,,,,,146.57709129998693,147.22785549997934,147.22785549997934,147.71244859998114,45,315,147.71244859998114,147.71244859998114,147.71244859998114,147.71244859998114,147.71244859998114,147.71244859998114,147.71244859998114,147.71244859998114,147.71244859998114,148.07850259999395,148.07850259999395,148.07850259999395,148.07850259999395,148.07850259999395,148.07850259999395,148.07850259999395,148.07850259999395,148.07850259999395,0,1,[0.0006922000029589981],[0.3674050999979954],148.07850259999395,148.27898189998814,0.0,148.27898189998814,0,0.0,0,1,1000,num_1,0.6644886000140104,,20,13,2026-03-02_16h34.22.763,2026A_exp2,2022.2.4,59.91227644294633,
1,0,4.9,6.1,0,0,37,37,82,,,,,148.9628238999867,149.61364479997428,149.61364479997428,150.0980251999863,45,315,150.0980251999863,150.0980251999863,150.0980251999863,150.0980251999863,150.0980251999863,150.0980251999863,150.0980251999863,150.0980251999863,150.0980251999863,150.464393799979,150.464393799979,150.464393799979,150.464393799979,150.464393799979,150.464393799979,150.464393799979,150.464393799979,150.464393799979,23,0,,,150.464393799979,150.6647391000006,4.9,150.6647391000006,0,4.9,1,0,1000,num_1,0.774401399976341,,20,13,2026-03-02_16h34.22.763,2026A_exp2,2022.2.4,59.91227644294633,
1000,1,6.1,4.9,0,0,38,38,81,,,,,151.46525319997454,152.09941359999357,152.09941359999357,152.6005350999767,45,315,152.6005350999767,152.6005350999767,152.6005350999767,152.6005350999767,152.6005350999767,152.6005350999767,152.6005350999767,152.6005350999767,152.6005350999767,152.9668446999858,152.9668446999858,152.9668446999858,152.9668446999858,152.9668446999858,152.9668446999858,152.9668446999858,152.9668446999858,152.9668446999858,6,2,"[0.001299199997447431, 0.35058900000876747]","[0.25047270001959987, 0.36710130001301877]",152.9668446999858,153.16908999998122,1000,153.16908999998122,1000,1000,1000,1000,1,num_2,0.5174345999839716,,20,13,2026-03-02_16h34.22.763,2026A_exp2,2022.2.4,59.91227644294633,
1000,1,0.0,6.1,0,0,39,39,20,,,,,153.71758969998336,154.36838259999058,154.36838259999058,154.86950709999655,45,45,154.86950709999655,154.86950709999655,154.86950709999655,154.86950709999655,154.86950709999655,154.86950709999655,154.86950709999655,154.86950709999655,154.86950709999655,155.2358566999901,155.2358566999901,155.2358566999901,155.2358566999901,155.2358566999901,155.2358566999901,155.2358566999901,155.2358566999901,155.2358566999901,23,0,,,155.2358566999901,155.43820379997487,1000,155.43820379997487,1000,1000,1000,1000,1,num_2,0.36909860000014305,,20,13,2026-03-02_16h34.22.763,2026A_exp2,2022.2.4,59.91227644294633,
1000,1,4.9,6.1,0,0,40,40,36,,,,,155.8364701999817,156.48722129999078,156.48722129999078,156.98814989998937,315,45,156.98814989998937,156.98814989998937,156.98814989998937,156.98814989998937,156.98814989998937,156.98814989998937,156.98814989998937,156.98814989998937,156.98814989998937,157.35453949999646,157.35453949999646,157.35453949999646,157.35453949999646,157.35453949999646,157.35453949999646,157.35453949999646,157.35453949999646,157.35453949999646,20,2,"[0.2837809000047855, 0.35050699999555945]","[0.30069549998734146, 0.3670564999920316]",157.35453949999646,157.55667929997435,1000,157.55667929997435,1000,1000,1000,1000,1,num_2,0.4270771000010427,,20,13,2026-03-02_16h34.22.763,2026A_exp2,2022.2.4,59.91227644294633,
1000,1,0.0,6.1,1,0,41,41,74,,,,,158.0052321999974,158.65606149999076,158.65606149999076,159.15699829999357,45,315,159.15699829999357,159.15699829999357,159.15699829999357,159.15699829999357,159.15699829999357,159.15699829999357,159.15699829999357,159.15699829999357,159.15699829999357,159.50688509998145,159.50688509998145,159.50688509998145,159.50688509998145,159.50688509998145,159.50688509998145,159.50688509998145,159.50688509998145,159.50688509998145,22,0,,,159.50688509998145,159.70908159998362,1000,159.70908159998362,1000,1000,1000,1000,1,num_2,0.4180728000064846,,20,13,2026-03-02_16h34.22.763,2026A_exp2,2022.2.4,59.91227644294633,
1000,1,0.0,4.9,0,0,42,42,8,,,,,160.1574020999833,160.80820119997952,160.80820119997952,161.30909249998513,315,45,161.30909249998513,161.30909249998513,161.30909249998513,161.30909249998513,161.30909249998513,161.30909249998513,161.30909249998513,161.30909249998513,161.30909249998513,161.67574249999598,161.67574249999598,161.67574249999598,161.67574249999598,161.67574249999598,161.67574249999598,161.67574249999598,161.67574249999598,161.67574249999598,22,1,[0.0011938999814447016],[0.01713749999180436],161.67574249999598,161.8761132999789,1000,161.8761132999789,1000,1000,1000,1000,1,num_2,1.3223277000070084,,20,13,2026-03-02_16h34.22.763,2026A_exp2,2022.2.4,59.91227644294633,
1000,1,0.0,0.0,0,0,43,43,45,,,,,163.22713329998078,163.8777727999841,163.8777727999841,164.37902919997578,45,315,164.37902919997578,164.37902919997578,164.37902919997578,164.37902919997578,164.37902919997578,164.37902919997578,164.37902919997578,164.37902919997578,164.37902919997578,164.74541289999615,164.74541289999615,164.74541289999615,164.74541289999615,164.74541289999615,164.74541289999615,164.74541289999615,164.74541289999615,164.74541289999615,23,0,,,164.74541289999615,164.94708299997728,1000,164.94708299997728,1000,1000,1000,1000,1,num_2,0.5797346000035759,,20,13,2026-03-02_16h34.22.763,2026A_exp2,2022.2.4,59.91227644294633,
1,0,6.1,0.0,1,0,44,44,17,,,,,165.54624869997497,166.19689029999427,166.19689029999427,166.6978787999833,315,315,166.6978787999833,166.6978787999833,166.6978787999833,166.6978787999833,166.6978787999833,166.6978787999833,166.6978787999833,166.6978787999833,166.6978787999833,167.06439449999016,167.06439449999016,167.06439449999016,167.06439449999016,167.06439449999016,167.06439449999016,167.06439449999016,167.06439449999016,167.06439449999016,23,0,,,167.06439449999016,167.26459979999345,0.0,167.26459979999345,0,0.0,0,1,1000,num_1,0.5822620000108145,,20,13,2026-03-02_16h34.22.763,2026A_exp2,2022.2.4,59.91227644294633,
1000,1,0.0,3.7,0,0,45,45,76,,,,,167.8652004999749,168.51589159999276,168.51589159999276,169.00032539997483,45,315,169.00032539997483,169.00032539997483,169.00032539997483,169.00032539997483,169.00032539997483,169.00032539997483,169.00032539997483,169.00032539997483,169.00032539997483,169.36668409997947,169.36668409997947,169.36668409997947,169.36668409997947,169.36668409997947,169.36668409997947,169.36668409997947,169.36668409997947,169.36668409997947,20,1,[0.26730100001441315],[0.31747490001725964],169.36668409997947,169.5689401999989,1000,169.5689401999989,1000,1000,1000,1000,0,num_3,0.42212600001948886,,20,13,2026-03-02_16h34.22.763,2026A_exp2,2022.2.4,59.91227644294633,
1000,1,0.0,3.7,1,0,46,46,4,,,,,170.0172564999957,170.6680038999766,170.6680038999766,171.16909260000102,315,315,171.16909260000102,171.16909260000102,171.16909260000102,171.16909260000102,171.16909260000102,171.16909260000102,171.16909260000102,171.16909260000102,171.16909260000102,171.53542229998857,171.53542229998857,171.53542229998857,171.53542229998857,171.53542229998857,171.53542229998857,171.53542229998857,171.53542229998857,171.53542229998857,8,2,"[0.0013261999993119389, 0.36652520002098754]","[0.2336537000082899, 0.3665278000116814]",171.53542229998857,171.73818779998692,1000,171.73818779998692,1000,1000,1000,1000,1,num_2,0.5403280999744311,,20,13,2026-03-02_16h34.22.763,2026A_exp2,2022.2.4,59.91227644294633,
1000,1,0.0,3.7,0,0,47,47,63,,,,,172.30287569999928,172.95357379998313,172.95357379998313,173.45475429997896,45,45,173.45475429997896,173.45475429997896,173.45475429997896,173.45475429997896,173.45475429997896,173.45475429997896,173.45475429997896,173.45475429997896,173.45475429997896,173.82131319999462,173.82131319999462,173.82131319999462,173.82131319999462,173.82131319999462,173.82131319999462,173.82131319999462,173.82131319999462,173.82131319999462,21,1,[0.133571899990784],[0.16665610001655295],173.82131319999462,174.02316419998533,1000,174.02316419998533,1000,1000,1000,1000,1,num_2,0.4328473999921698,,20,13,2026-03-02_16h34.22.763,2026A_exp2,2022.2.4,59.91227644294633,
0,0,3.7,4.9,0,0,48,48,77,,,,,174.47484159999294,175.12250499997754,175.12250499997754,175.6234535999829,315,315,175.6234535999829,175.6234535999829,175.6234535999829,175.6234535999829,175.6234535999829,175.6234535999829,175.6234535999829,175.6234535999829,175.6234535999829,175.9899911999819,175.9899911999819,175.9899911999819,175.9899911999819,175.9899911999819,175.9899911999819,175.9899911999819,175.9899911999819,175.9899911999819,23,0,,,175.9899911999819,176.1900921999768,4.9,176.1900921999768,1,4.9,1,1,1000,num_4,1.2013343999860808,,20,13,2026-03-02_16h34.22.763,2026A_exp2,2022.2.4,59.91227644294633,
1000,1,0.0,3.7,0,0,49,49,43,,,,,177.4079324999766,178.05871339997975,178.05871339997975,178.55972709998605,315,45,178.55972709998605,178.55972709998605,178.55972709998605,178.55972709998605,178.55972709998605,178.55972709998605,178.55972709998605,178.55972709998605,178.55972709998605,178.9096845999884,178.9096845999884,178.9096845999884,178.9096845999884,178.9096845999884,178.9096845999884,178.9096845999884,178.9096845999884,178.9096845999884,22,0,,,178.9096845999884,179.10994819999905,1000,179.10994819999905,1000,1000,1000,1000,1,num_2,0.41656830001738854,,20,13,2026-03-02_16h34.22.763,2026A_exp2,2022.2.4,59.91227644294633,
1000,1,0.0,0.0,1,0,50,50,73,,,,,179.54345109997666,180.19414399997913,180.19414399997913,180.69519899997977,315,315,180.69519899997977,180.69519899997977,180.69519899997977,180.69519899997977,180.69519899997977,180.69519899997977,180.69519899997977,180.69519899997977,180.69519899997977,181.06172050000168,181.06172050000168,181.06172050000168,181.06172050000168,181.06172050000168,181.06172050000168,181.06172050000168,181.06172050000168,181.06172050000168,23,0,,,181.06172050000168,181.26375149999512,1000,181.26375149999512,1000,1000,1000,1000,0,num_3,0.670838799997,,20,13,2026-03-02_16h34.22.763,2026A_exp2,2022.2.4,59.91227644294633,
1,0,4.9,0.0,1,0,51,51,34,,,,,181.96251610000036,182.62148539998452,182.62148539998452,183.1144190999912,315,315,183.1144190999912,183.1144190999912,183.1144190999912,183.1144190999912,183.1144190999912,183.1144190999912,183.1144190999912,183.1144190999912,183.1144190999912,183.48084999999264,183.48084999999264,183.48084999999264,183.48084999999264,183.48084999999264,183.48084999999264,183.48084999999264,183.48084999999264,183.48084999999264,23,0,,,183.48084999999264,183.69497479998972,0.0,183.69497479998972,0,0.0,0,1,1000,num_1,0.4643690999946557,,20,13,2026-03-02_16h34.22.763,2026A_exp2,2022.2.4,59.91227644294633,
1000,1,0.0,6.1,0,0,52,52,16,,,,,184.18133899997338,184.83218379999744,184.83218379999744,185.31655979997595,315,45,185.31655979997595,185.31655979997595,185.31655979997595,185.31655979997595,185.31655979997595,185.31655979997595,185.31655979997595,185.31655979997595,185.31655979997595,185.6830899999768,185.6830899999768,185.6830899999768,185.6830899999768,185.6830899999768,185.6830899999768,185.6830899999768,185.6830899999768,185.6830899999768,23,0,,,185.6830899999768,185.88513109998894,1000,185.88513109998894,1000,1000,1000,1000,1,num_2,0.36160870001185685,,20,13,2026-03-02_16h34.22.763,2026A_exp2,2022.2.4,59.91227644294633,
1,0,0.0,0.0,1,0,53,53,33,,,,,186.26683589999448,186.92837789998157,186.92837789998157,187.42042529999162,315,45,187.42042529999162,187.42042529999162,187.42042529999162,187.42042529999162,187.42042529999162,187.42042529999162,187.42042529999162,187.42042529999162,187.42042529999162,187.7851241999888,187.7851241999888,187.7851241999888,187.7851241999888,187.7851241999888,187.7851241999888,187.7851241999888,187.7851241999888,187.7851241999888,22,1,[0.08372749999398366],[0.1003025000100024],187.7851241999888,187.9857878999901,0.0,187.9857878999901,1,0.0,0,0,1000,num_4,0.7806506999768317,,20,13,2026-03-02_16h34.22.763,2026A_exp2,2022.2.4,59.91227644294633,
1000,1,0.0,6.1,0,0,54,54,61,,,,,188.78607589998865,189.43082439998398,189.43082439998398,189.93750999998883,315,315,189.93750999998883,189.93750999998883,189.93750999998883,189.93750999998883,189.93750999998883,189.93750999998883,189.93750999998883,189.93750999998883,189.93750999998883,190.2877752999775,190.2877752999775,190.2877752999775,190.2877752999775,190.2877752999775,190.2877752999775,190.2877752999775,190.2877752999775,190.2877752999775,23,0,,,190.2877752999775,190.48880239998107,1000,190.48880239998107,1000,1000,1000,1000,1,num_2,0.4146234999934677,,20,13,2026-03-02_16h34.22.763,2026A_exp2,2022.2.4,59.91227644294633,
1000,1,6.1,0.0,0,0,55,55,58,,,,,190.92142989998683,191.57227459998103,191.57227459998103,192.07751939998707,315,45,192.07751939998707,192.07751939998707,192.07751939998707,192.07751939998707,192.07751939998707,192.07751939998707,192.07751939998707,192.07751939998707,192.07751939998707,192.43977839997387,192.43977839997387,192.43977839997387,192.43977839997387,192.43977839997387,192.43977839997387,192.43977839997387,192.43977839997387,192.43977839997387,23,0,,,192.43977839997387,192.64160519998404,1000,192.64160519998404,1000,1000,1000,1000,0,num_3,0.35684829999809153,,20,13,2026-03-02_16h34.22.763,2026A_exp2,2022.2.4,59.91227644294633,
1000,1,3.7,3.7,0,0,56,56,59,,,,,193.0237435999734,193.6744182999828,193.6744182999828,194.15862269999343,315,45,194.15862269999343,194.15862269999343,194.15862269999343,194.15862269999343,194.15862269999343,194.15862269999343,194.15862269999343,194.15862269999343,194.15862269999343,194.5252376999997,194.5252376999997,194.5252376999997,194.5252376999997,194.5252376999997,194.5252376999997,194.5252376999997,194.5252376999997,194.5252376999997,23,0,,,194.5252376999997,194.72709639999084,1000,194.72709639999084,1000,1000,1000,1000,0,num_3,0.5591832999780308,,20,13,2026-03-02_16h34.22.763,2026A_exp2,2022.2.4,59.91227644294633,
1,0,0.0,4.9,1,0,57,57,54,,,,,195.30903689999832,195.9532302999869,195.9532302999869,196.4598510999931,315,315,196.4598510999931,196.4598510999931,196.4598510999931,196.4598510999931,196.4598510999931,196.4598510999931,196.4598510999931,196.4598510999931,196.4598510999931,196.81077019998338,196.81077019998338,196.81077019998338,196.81077019998338,196.81077019998338,196.81077019998338,196.81077019998338,196.81077019998338,196.81077019998338,23,0,,,196.81077019998338,197.0106307999813,4.9,197.0106307999813,1,4.9,1,1,1000,num_4,1.1963145000045188,,20,13,2026-03-02_16h34.22.763,2026A_exp2,2022.2.4,59.91227644294633,
1,0,0.0,4.9,0,0,58,58,32,,,,,198.22876410000026,198.87954929997795,198.87954929997795,199.36378409998724,45,45,199.36378409998724,199.36378409998724,199.36378409998724,199.36378409998724,199.36378409998724,199.36378409998724,199.36378409998724,199.36378409998724,199.36378409998724,199.73031590000028,199.73031590000028,199.73031590000028,199.73031590000028,199.73031590000028,199.73031590000028,199.73031590000028,199.73031590000028,199.73031590000028,12,6,"[0.0011969000042881817, 0.15018219998455606, 0.18374420001055114, 0.23384229998919182, 0.33383600000524893, 0.36699069998576306]","[0.10023899999214336, 0.16699179998249747, 0.20030969998333603, 0.2503098000015598, 0.35046769998734817, 0.366995099990163]",199.73031590000028,199.93061339997803,0.0,199.93061339997803,0,0.0,0,1,1000,num_1,0.5798312000115402,,20,13,2026-03-02_16h34.22.763,2026A_exp2,2022.2.4,59.91227644294633,
1000,1,3.7,0.0,0,0,59,59,69,,,,,200.5310455999861,201.18180019999272,201.18180019999272,201.66632189997472,315,45,201.66632189997472,201.66632189997472,201.66632189997472,201.66632189997472,201.66632189997472,201.66632189997472,201.66632189997472,201.66632189997472,201.66632189997472,202.03272920000018,202.03272920000018,202.03272920000018,202.03272920000018,202.03272920000018,202.03272920000018,202.03272920000018,202.03272920000018,202.03272920000018,23,0,,,202.03272920000018,202.23462219999055,1000,202.23462219999055,1000,1000,1000,1000,0,num_3,0.33170419998350553,,20,13,2026-03-02_16h34.22.763,2026A_exp2,2022.2.4,59.91227644294633,
1000,1,6.1,4.9,0,0,60,60,51,,,,,202.583226799994,203.23370989999967,203.23370989999967,203.73491639998974,45,315,203.73491639998974,203.73491639998974,203.73491639998974,203.73491639998974,203.73491639998974,203.73491639998974,203.73491639998974,203.73491639998974,203.73491639998974,204.10149489998003,204.10149489998003,204.10149489998003,204.10149489998003,204.10149489998003,204.10149489998003,204.10149489998003,204.10149489998003,204.10149489998003,23,0,,,204.10149489998003,204.30331309998292,1000,204.30331309998292,1000,1000,1000,1000,0,num_3,0.4389143999724183,,20,13,2026-03-02_16h34.22.763,2026A_exp2,2022.2.4,59.91227644294633,
1000,1,0.0,0.0,1,0,61,61,2,,,,,204.76901989997714,205.41940319997957,205.41940319997957,205.903891199996,45,315,205.903891199996,205.903891199996,205.903891199996,205.903891199996,205.903891199996,205.903891199996,205.903891199996,205.903891199996,205.903891199996,206.2702377999958,206.2702377999958,206.2702377999958,206.2702377999958,206.2702377999958,206.2702377999958,206.2702377999958,206.2702377999958,206.2702377999958,2,3,"[0.0012110000243410468, 0.03366549999918789, 0.367164800001774]","[0.017440800002077594, 0.350441700022202, 0.3671696000092197]",206.2702377999958,206.47243979998166,1000,206.47243979998166,1000,1000,1000,1000,1,num_2,0.5426656999916304,,20,13,2026-03-02_16h34.22.763,2026A_exp2,2022.2.4,59.91227644294633,
1,0,3.7,0.0,0,0,62,62,26,,,,,207.0375320999883,207.69633569999132,207.69633569999132,208.18950959999347,45,315,208.18950959999347,208.18950959999347,208.18950959999347,208.18950959999347,208.18950959999347,208.18950959999347,208.18950959999347,208.18950959999347,208.18950959999347,208.5557810999744,208.5557810999744,208.5557810999744,208.5557810999744,208.5557810999744,208.5557810999744,208.5557810999744,208.5557810999744,208.5557810999744,23,0,,,208.5557810999744,208.7560153999948,3.7,208.7560153999948,1,3.7,1,1,1000,num_4,0.7148084999935236,,20,13,2026-03-02_16h34.22.763,2026A_exp2,2022.2.4,59.91227644294633,
0,0,6.1,0.0,1,0,63,63,52,,,,,209.4902089999814,210.13008750000154,210.13008750000154,210.6251474999881,45,315,210.6251474999881,210.6251474999881,210.6251474999881,210.6251474999881,210.6251474999881,210.6251474999881,210.6251474999881,210.6251474999881,210.6251474999881,210.9916940999974,210.9916940999974,210.9916940999974,210.9916940999974,210.9916940999974,210.9916940999974,210.9916940999974,210.9916940999974,210.9916940999974,21,1,[0.25019649998284876],[0.2835893000010401],210.9916940999974,211.19174769998062,6.1,211.19174769998062,0,6.1,1,0,1000,num_1,0.6469915000197943,,20,13,2026-03-02_16h34.22.763,2026A_exp2,2022.2.4,59.91227644294633,
1,0,0.0,0.0,0,0,64,64,87,,,,,211.85954749997472,212.5178448999941,212.5178448999941,213.0108594999765,315,315,213.0108594999765,213.0108594999765,213.0108594999765,213.0108594999765,213.0108594999765,213.0108594999765,213.0108594999765,213.0108594999765,213.0108594999765,213.37734579999233,213.37734579999233,213.37734579999233,213.37734579999233,213.37734579999233,213.37734579999233,213.37734579999233,213.37734579999233,213.37734579999233,12,3,"[0.10026239999569952, 0.18392609999864362, 0.25044490001164377]","[0.13363600001321174, 0.20047179999528453, 0.3673754000046756]",213.37734579999233,213.57758109999122,0.0,213.57758109999122,0,0.0,0,1,1000,num_1,0.6376303999859374,,20,13,2026-03-02_16h34.22.763,2026A_exp2,2022.2.4,59.91227644294633,
1000,1,4.9,6.1,1,0,65,65,5,,,,,214.2447017999948,214.895589199994,214.895589199994,215.37989359998028,45,315,215.37989359998028,215.37989359998028,215.37989359998028,215.37989359998028,215.37989359998028,215.37989359998028,215.37989359998028,215.37989359998028,215.37989359998028,215.74624239999685,215.74624239999685,215.74624239999685,215.74624239999685,215.74624239999685,215.74624239999685,215.74624239999685,215.74624239999685,215.74624239999685,6,5,"[0.001370599988149479, 0.05015830000047572, 0.2501433999859728, 0.28355669998563826, 0.35005909999017604]","[0.03350230000796728, 0.23362949999864213, 0.26692029999685474, 0.29989880000357516, 0.3668708000041079]",215.74624239999685,215.9482347999874,1000,215.9482347999874,1000,1000,1000,1000,1,num_2,0.44344689999707043,,20,13,2026-03-02_16h34.22.763,2026A_exp2,2022.2.4,59.91227644294633,
1000,1,3.7,0.0,0,0,66,66,35,,,,,216.413479299983,217.06441709998762,217.06441709998762,217.57300009997562,45,45,217.57300009997562,217.57300009997562,217.57300009997562,217.57300009997562,217.57300009997562,217.57300009997562,217.57300009997562,217.57300009997562,217.57300009997562,217.91531089998898,217.91531089998898,217.91531089998898,217.91531089998898,217.91531089998898,217.91531089998898,217.91531089998898,217.91531089998898,217.91531089998898,9,5,"[0.003835000010440126, 0.11567790000117384, 0.18209590000333264, 0.24773490001098253, 0.2834545000223443]","[0.09899750002659857, 0.1490205000154674, 0.21430730001884513, 0.26430450001498684, 0.3167498000257183]",217.91531089998898,218.12487209998653,1000,218.12487209998653,1000,1000,1000,1000,0,num_3,0.3216293000150472,,20,13,2026-03-02_16h34.22.763,2026A_exp2,2022.2.4,59.91227644294633,
0,0,0.0,0.0,1,0,67,67,44,,,,,218.46577239999897,219.1165310999786,219.1165310999786,219.61768119997578,315,45,219.61768119997578,219.61768119997578,219.61768119997578,219.61768119997578,219.61768119997578,219.61768119997578,219.61768119997578,219.61768119997578,219.61768119997578,219.96740659998613,219.96740659998613,219.96740659998613,219.96740659998613,219.96740659998613,219.96740659998613,219.96740659998613,219.96740659998613,219.96740659998613,22,0,,,219.96740659998613,220.178176299989,0.0,220.178176299989,0,0.0,0,1,1000,num_1,0.6132536999939475,,20,13,2026-03-02_16h34.22.763,2026A_exp2,2022.2.4,59.91227644294633,
1000,1,0.0,0.0,1,0,68,68,3,,,,,220.8179748999828,221.46882569999434,221.46882569999434,221.98562120000133,315,315,221.98562120000133,221.98562120000133,221.98562120000133,221.98562120000133,221.98562120000133,221.98562120000133,221.98562120000133,221.98562120000133,221.98562120000133,222.3363657000009,222.3363657000009,222.3363657000009,222.3363657000009,222.3363657000009,222.3363657000009,222.3363657000009,222.3363657000009,222.3363657000009,17,3,"[0.03351259999908507, 0.08371460001217201, 0.16541509999660775]","[0.0517806000134442, 0.1327441000030376, 0.18247749999864027]",222.3363657000009,222.55011199999717,1000,222.55011199999717,1000,1000,1000,1000,1,num_2,0.5289372999977786,,20,13,2026-03-02_16h34.22.763,2026A_exp2,2022.2.4,59.91227644294633,
1000,1,0.0,0.0,0,0,69,69,57,,,,,223.10376159998123,223.75444599997718,223.75444599997718,224.2442241999961,45,315,224.2442241999961,224.2442241999961,224.2442241999961,224.2442241999961,224.2442241999961,224.2442241999961,224.2442241999961,224.2442241999961,224.2442241999961,224.60521629999857,224.60521629999857,224.60521629999857,224.60521629999857,224.60521629999857,224.60521629999857,224.60521629999857,224.60521629999857,224.60521629999857,23,0,,,224.60521629999857,224.80756509999628,1000,224.80756509999628,1000,1000,1000,1000,1,num_2,0.45535080000991,,20,13,2026-03-02_16h34.22.763,2026A_exp2,2022.2.4,59.91227644294633,
1000,1,4.9,0.0,1,0,70,70,12,,,,,225.28909799997928,225.93995099997846,225.93995099997846,226.44978659998742,45,315,226.44978659998742,226.44978659998742,226.44978659998742,226.44978659998742,226.44978659998742,226.44978659998742,226.44978659998742,226.44978659998742,226.44978659998742,226.80758399999468,226.80758399999468,226.80758399999468,226.80758399999468,226.80758399999468,226.80758399999468,226.80758399999468,226.80758399999468,226.80758399999468,21,1,[0.34784960001707077],[0.36463510000612587],226.80758399999468,227.01938699997845,1000,227.01938699997845,1000,1000,1000,1000,0,num_3,0.3391931999940425,,20,13,2026-03-02_16h34.22.763,2026A_exp2,2022.2.4,59.91227644294633,
1000,1,0.0,0.0,1,0,71,71,29,,,,,227.37468429998262,228.02539899997646,228.02539899997646,228.53687250000075,45,315,228.53687250000075,228.53687250000075,228.53687250000075,228.53687250000075,228.53687250000075,228.53687250000075,228.53687250000075,228.53687250000075,228.53687250000075,228.8931868999789,228.8931868999789,228.8931868999789,228.8931868999789,228.8931868999789,228.8931868999789,228.8931868999789,228.8931868999789,228.8931868999789,23,0,,,228.8931868999789,229.09430619998602,1000,229.09430619998602,1000,1000,1000,1000,1,num_2,0.4804320999828633,,20,13,2026-03-02_16h34.22.763,2026A_exp2,2022.2.4,59.91227644294633,
0,0,6.1,0.0,1,0,72,72,25,,,,,229.59351889998652,230.24410349997925,230.24410349997925,230.75113209997653,315,315,230.75113209997653,230.75113209997653,230.75113209997653,230.75113209997653,230.75113209997653,230.75113209997653,230.75113209997653,230.75113209997653,230.75113209997653,231.11170649999985,231.11170649999985,231.11170649999985,231.11170649999985,231.11170649999985,231.11170649999985,231.11170649999985,231.11170649999985,231.11170649999985,21,2,"[0.06682189999264665, 0.1989999999932479]","[0.08353139998507686, 0.21586259998730384]",231.11170649999985,231.31185949998326,6.1,231.31185949998326,1,6.1,1,1,1000,num_4,0.7024414999759756,,20,13,2026-03-02_16h34.22.763,2026A_exp2,2022.2.4,59.91227644294633,
0,0,4.9,0.0,0,0,73,73,84,,,,,232.0457885999931,232.69667629999458,232.69667629999458,233.18101999998908,45,45,233.18101999998908,233.18101999998908,233.18101999998908,233.18101999998908,233.18101999998908,233.18101999998908,233.18101999998908,233.18101999998908,233.18101999998908,233.54753149999306,233.54753149999306,233.54753149999306,233.54753149999306,233.54753149999306,233.54753149999306,233.54753149999306,233.54753149999306,233.54753149999306,23,0,,,233.54753149999306,233.7476049999823,0.0,233.7476049999823,0,0.0,0,1,1000,num_1,0.6029651999706402,,20,13,2026-03-02_16h34.22.763,2026A_exp2,2022.2.4,59.91227644294633,
1000,1,6.1,6.1,1,0,74,74,22,,,,,234.3817382999987,235.01568879999104,235.01568879999104,235.51681619999,45,45,235.51681619999,235.51681619999,235.51681619999,235.51681619999,235.51681619999,235.51681619999,235.51681619999,235.51681619999,235.51681619999,235.8832077999832,235.8832077999832,235.8832077999832,235.8832077999832,235.8832077999832,235.8832077999832,235.8832077999832,235.8832077999832,235.8832077999832,23,0,,,235.8832077999832,236.0850911999878,1000,236.0850911999878,1000,1000,1000,1000,0,num_3,0.3944721999869216,,20,13,2026-03-02_16h34.22.763,2026A_exp2,2022.2.4,59.91227644294633,
1000,1,4.9,0.0,1,0,75,75,67,,,,,236.50417819997529,237.15116799998214,237.15116799998214,237.65228569999454,315,45,237.65228569999454,237.65228569999454,237.65228569999454,237.65228569999454,237.65228569999454,237.65228569999454,237.65228569999454,237.65228569999454,237.65228569999454,238.01867779999156,238.01867779999156,238.01867779999156,238.01867779999156,238.01867779999156,238.01867779999156,238.01867779999156,238.01867779999156,238.01867779999156,23,0,,,238.01867779999156,238.22071919997688,1000,238.22071919997688,1000,1000,1000,1000,0,num_3,0.33895490001305006,,20,13,2026-03-02_16h34.22.763,2026A_exp2,2022.2.4,59.91227644294633,
1000,1,3.7,6.1,0,0,76,76,60,,,,,238.58589049999136,239.2366144999978,239.2366144999978,239.73762699999497,315,45,239.73762699999497,239.73762699999497,239.73762699999497,239.73762699999497,239.73762699999497,239.73762699999497,239.73762699999497,239.73762699999497,239.73762699999497,240.10417739997501,240.10417739997501,240.10417739997501,240.10417739997501,240.10417739997501,240.10417739997501,240.10417739997501,240.10417739997501,240.10417739997501,16,3,"[0.20026919999509118, 0.250340700004017, 0.30035080001107417]","[0.21687830000882968, 0.2668879000120796, 0.36705619998974726]",240.10417739997501,240.30607339998824,1000,240.30607339998824,1000,1000,1000,1000,1,num_2,0.47661929999594577,,20,13,2026-03-02_16h34.22.763,2026A_exp2,2022.2.4,59.91227644294633,
1,0,0.0,0.0,1,0,77,77,83,,,,,240.80481849997886,241.45550229999935,241.45550229999935,241.95638279998093,45,45,241.95638279998093,241.95638279998093,241.95638279998093,241.95638279998093,241.95638279998093,241.95638279998093,241.95638279998093,241.95638279998093,241.95638279998093,242.30616969999392,242.30616969999392,242.30616969999392,242.30616969999392,242.30616969999392,242.30616969999392,242.30616969999392,242.30616969999392,242.30616969999392,22,0,,,242.30616969999392,242.5063736999873,0.0,242.52319469998474,1,0.0,0,0,1000,num_4,0.595484999998007,,20,13,2026-03-02_16h34.22.763,2026A_exp2,2022.2.4,59.91227644294633,
1,0,3.7,6.1,1,0,78,78,68,,,,,243.140625799977,243.7910714999889,243.7910714999889,244.29209679999622,315,315,244.29209679999622,244.29209679999622,244.29209679999622,244.29209679999622,244.29209679999622,244.29209679999622,244.29209679999622,244.29209679999622,244.29209679999622,244.65845619997708,244.65845619997708,244.65845619997708,244.65845619997708,244.65845619997708,244.65845619997708,244.65845619997708,244.65845619997708,244.65845619997708,23,0,,,244.65845619997708,244.87036109998007,6.1,244.87036109998007,1,6.1,1,1,1000,num_4,0.6400449999782722,,20,13,2026-03-02_16h34.22.763,2026A_exp2,2022.2.4,59.91227644294633,
1000,1,0.0,4.9,0,0,79,79,0,,,,,245.52638939997996,246.1768696999934,246.1768696999934,246.67797619997873,315,315,246.67797619997873,246.67797619997873,246.67797619997873,246.67797619997873,246.67797619997873,246.67797619997873,246.67797619997873,246.67797619997873,246.67797619997873,247.04431249998743,247.04431249998743,247.04431249998743,247.04431249998743,247.04431249998743,247.04431249998743,247.04431249998743,247.04431249998743,247.04431249998743,23,0,,,247.04431249998743,247.2465146999748,1000,247.2465146999748,1000,1000,1000,1000,1,num_2,0.480302899988601,,20,13,2026-03-02_16h34.22.763,2026A_exp2,2022.2.4,59.91227644294633,
0,0,0.0,0.0,0,0,80,80,15,,,,,247.7452890999848,248.39577499998268,248.39577499998268,248.8966509999882,315,315,248.8966509999882,248.8966509999882,248.8966509999882,248.8966509999882,248.8966509999882,248.8966509999882,248.8966509999882,248.8966509999882,248.8966509999882,249.24662769999122,249.24662769999122,249.24662769999122,249.24662769999122,249.24662769999122,249.24662769999122,249.24662769999122,249.24662769999122,249.24662769999122,22,0,,,249.24662769999122,249.45029799998156,0.0,249.45029799998156,1,0.0,0,0,1000,num_4,0.8852817000006326,,20,13,2026-03-02_16h34.22.763,2026A_exp2,2022.2.4,59.91227644294633,
1000,1,0.0,0.0,0,0,81,81,72,,,,,250.36423039998044,251.02462049998576,251.02462049998576,251.50449319998734,45,45,251.50449319998734,251.50449319998734,251.50449319998734,251.50449319998734,251.50449319998734,251.50449319998734,251.50449319998734,251.50449319998734,251.50449319998734,251.86574239999754,251.86574239999754,251.86574239999754,251.86574239999754,251.86574239999754,251.86574239999754,251.86574239999754,251.86574239999754,251.86574239999754,23,0,,,251.86574239999754,252.0675870999985,1000,252.0675870999985,1000,1000,1000,1000,1,num_2,0.57170239998959,,20,13,2026-03-02_16h34.22.763,2026A_exp2,2022.2.4,59.91227644294633,
1000,1,3.7,6.1,1,0,82,82,75,,,,,252.666496299993,253.32849699998042,253.32849699998042,253.82377979997545,45,45,253.82377979997545,253.82377979997545,253.82377979997545,253.82377979997545,253.82377979997545,253.82377979997545,253.82377979997545,253.82377979997545,253.82377979997545,254.1848798999854,254.1848798999854,254.1848798999854,254.1848798999854,254.1848798999854,254.1848798999854,254.1848798999854,254.1848798999854,254.1848798999854,23,0,,,254.1848798999854,254.38748089998262,1000,254.38748089998262,1000,1000,1000,1000,1,num_2,0.4922558999969624,,20,13,2026-03-02_16h34.22.763,2026A_exp2,2022.2.4,59.91227644294633,
1,0,0.0,4.9,0,0,83,83,14,,,,,254.90209609997692,255.55255269998452,255.55255269998452,256.05400509998435,45,45,256.05400509998435,256.05400509998435,256.05400509998435,256.05400509998435,256.05400509998435,256.05400509998435,256.05400509998435,256.05400509998435,256.05400509998435,256.4204576999764,256.4204576999764,256.4204576999764,256.4204576999764,256.4204576999764,256.4204576999764,256.4204576999764,256.4204576999764,256.4204576999764,23,0,,,256.4204576999764,256.6205987999856,0.0,256.6205987999856,0,0.0,0,1,1000,num_1,0.6824160999967717,,20,13,2026-03-02_16h34.22.763,2026A_exp2,2022.2.4,59.91227644294633,
1000,1,3.7,0.0,0,0,84,84,86,,,,,257.3214011999953,257.9553047999798,257.9553047999798,258.4564205999777,45,45,258.4564205999777,258.4564205999777,258.4564205999777,258.4564205999777,258.4564205999777,258.4564205999777,258.4564205999777,258.4564205999777,258.4564205999777,258.8228350999998,258.8228350999998,258.8228350999998,258.8228350999998,258.8228350999998,258.8228350999998,258.8228350999998,258.8228350999998,258.8228350999998,23,0,,,258.8228350999998,259.02485029998934,1000,259.02485029998934,1000,1000,1000,1000,0,num_3,0.4069428000075277,,20,13,2026-03-02_16h34.22.763,2026A_exp2,2022.2.4,59.91227644294633,
1,0,0.0,4.9,0,0,85,85,70,,,,,259.4568964999926,260.107333699998,260.107333699998,260.60850740000024,45,45,260.60850740000024,260.60850740000024,260.60850740000024,260.60850740000024,260.60850740000024,260.60850740000024,260.60850740000024,260.60850740000024,260.60850740000024,260.9750337000005,260.9750337000005,260.9750337000005,260.9750337000005,260.9750337000005,260.9750337000005,260.9750337000005,260.9750337000005,260.9750337000005,23,0,,,260.9750337000005,261.1751612999942,0.0,261.1751612999942,0,0.0,0,1,1000,num_1,0.6478709999937564,,20,13,2026-03-02_16h34.22.763,2026A_exp2,2022.2.4,59.91227644294633,
0,0,3.7,0.0,0,0,86,86,18,,,,,261.8425287999853,262.4764928999939,262.4764928999939,262.97752789998776,45,45,262.97752789998776,262.97752789998776,262.97752789998776,262.97752789998776,262.97752789998776,262.97752789998776,262.97752789998776,262.97752789998776,262.97752789998776,263.34409679999226,263.34409679999226,263.34409679999226,263.34409679999226,263.34409679999226,263.34409679999226,263.34409679999226,263.34409679999226,263.34409679999226,23,0,,,263.34409679999226,263.5442553999892,0.0,263.5442553999892,0,0.0,0,1,1000,num_1,0.6073732000077143,,20,13,2026-03-02_16h34.22.763,2026A_exp2,2022.2.4,59.91227644294633,
1,0,4.9,0.0,0,0,87,87,66,,,,,264.1782200000016,264.82893879999756,264.82893879999756,265.31317509998917,315,315,265.31317509998917,265.31317509998917,265.31317509998917,265.31317509998917,265.31317509998917,265.31317509998917,265.31317509998917,265.31317509998917,265.31317509998917,265.67970989999594,265.67970989999594,265.67970989999594,265.67970989999594,265.67970989999594,265.67970989999594,265.67970989999594,265.67970989999594,265.67970989999594,23,0,,,265.67970989999594,265.87989679997554,4.9,265.87989679997554,1,4.9,1,1,1000,num_4,1.6395943999814335,,20,13,2026-03-02_16h34.22.763,2026A_exp2,2022.2.4,59.91227644294633,
1,0,0.0,6.1,1,0,88,88,19,,,,,267.5489439999801,268.2086774999916,268.2086774999916,268.7050651999889,315,315,268.7050651999889,268.7050651999889,268.7050651999889,268.7050651999889,268.7050651999889,268.7050651999889,268.7050651999889,268.7050651999889,268.7050651999889,269.06640409998363,269.06640409998363,269.06640409998363,269.06640409998363,269.06640409998363,269.06640409998363,269.06640409998363,269.06640409998363,269.06640409998363,23,0,,,269.06640409998363,269.266490399983,6.1,269.266490399983,1,6.1,1,1,1000,num_4,0.7809550999954809,,20,13,2026-03-02_16h34.22.763,2026A_exp2,2022.2.4,59.91227644294633,
1000,1,0.0,0.0,0,0,89,89,89,,,,,270.0673812000023,270.7110359999933,270.7110359999933,271.20745489999535,315,45,271.20745489999535,271.20745489999535,271.20745489999535,271.20745489999535,271.20745489999535,271.20745489999535,271.20745489999535,271.20745489999535,271.20745489999535,271.5688508999883,271.5688508999883,271.5688508999883,271.5688508999883,271.5688508999883,271.5688508999883,271.5688508999883,271.5688508999883,271.5688508999883,23,0,,,271.5688508999883,271.77084879999165,1000,271.77084879999165,1000,1000,1000,1000,1,num_2,0.4757627999933902,,20,13,2026-03-02_16h34.22.763,2026A_exp2,2022.2.4,59.91227644294633,
,,,,,,,,,,,,,,,,,,,,,,,,,,,,,,,,,,,,,,,,,,,,,,,,,,,,272.3021389999776,,,,,,,
