validity,detectorcomp,contrastCW,contrastCCW,precueCWorCCW,block_80trials.thisRepN,block_80trials.thisTrialN,block_80trials.thisN,block_80trials.thisIndex,etRecord.started,etRecord.stopped,text.started,text.stopped,text_4.started,text_4.stopped,text_6.started,text_6.stopped,oriCW,oriCCW,roi_2.started,grating_UR.started,grating_UL.started,grating_LR.started,grating_LL.started,noise_UR.started,noise_UL.started,noise_LR.started,noise_LL.started,roi_2.stopped,grating_UR.stopped,grating_UL.stopped,grating_LR.stopped,grating_LL.stopped,noise_UR.stopped,noise_UL.stopped,noise_LR.stopped,noise_LL.stopped,outframe,roi_2.numLooks,roi_2.timesOn,roi_2.timesOff,text_2.started,text_2.stopped,probedcontrast,key_resp.started,respdetect,relevantContrast,correctDetect,TorFdetect,respCWorCCW,key_resp.keys,key_resp.rt,feedback_display_.started,participantNo,blockNo,date,expName,psychopyVersion,frameRate,
1000,1,0.0,0.0,1,0,0,0,73,8.939998224377632e-05,8.939998224377632e-05,50.94774719997076,52.953209100000095,52.953209100000095,53.584885200019926,53.584885200019926,54.106971699977294,315,315,54.106971699977294,54.106971699977294,54.106971699977294,54.106971699977294,54.106971699977294,54.106971699977294,54.106971699977294,54.106971699977294,54.106971699977294,54.452353700005915,54.452353700005915,54.452353700005915,54.452353700005915,54.452353700005915,54.452353700005915,54.452353700005915,54.452353700005915,54.452353700005915,0,1,[0.0017605000175535679],[0.367932400025893],54.452353700005915,54.658402999979444,1000,54.658402999979444,1000,1000,1000,1000,1,num_2,0.9343738000025041,,24,5,2026-03-04_15h34.17.693,2026A_exp2,2022.2.4,59.89437028609828,
1,0,0.0,0.0,1,0,1,1,33,,,,,55.62018359999638,56.27963060000911,56.27963060000911,56.776914999994915,315,45,56.776914999994915,56.776914999994915,56.776914999994915,56.776914999994915,56.776914999994915,56.776914999994915,56.776914999994915,56.776914999994915,56.776914999994915,57.13809979998041,57.13809979998041,57.13809979998041,57.13809979998041,57.13809979998041,57.13809979998041,57.13809979998041,57.13809979998041,57.13809979998041,0,1,[0.0026594999944791198],[0.36609750002389774],57.13809979998041,57.33856619999278,0.0,57.33856619999278,1,0.0,0,0,1000,num_4,1.565960299980361,,24,5,2026-03-04_15h34.17.693,2026A_exp2,2022.2.4,59.89437028609828,
1000,1,3.7,0.0,0,0,2,2,69,,,,,58.923518700001296,59.57398669997929,59.57398669997929,60.05855159997009,315,315,60.05855159997009,60.05855159997009,60.05855159997009,60.05855159997009,60.05855159997009,60.05855159997009,60.05855159997009,60.05855159997009,60.05855159997009,60.42506520001916,60.42506520001916,60.42506520001916,60.42506520001916,60.42506520001916,60.42506520001916,60.42506520001916,60.42506520001916,60.42506520001916,23,0,,,60.42506520001916,60.62730900000315,1000,60.62730900000315,1000,1000,1000,1000,0,num_3,0.8453439000295475,,24,5,2026-03-04_15h34.17.693,2026A_exp2,2022.2.4,59.89437028609828,
1000,1,6.1,0.0,1,0,3,3,79,,,,,61.49280249996809,62.14343589998316,62.14343589998316,62.644435599970166,315,315,62.644435599970166,62.644435599970166,62.644435599970166,62.644435599970166,62.644435599970166,62.644435599970166,62.644435599970166,62.644435599970166,62.644435599970166,63.01103509997483,63.01103509997483,63.01103509997483,63.01103509997483,63.01103509997483,63.01103509997483,63.01103509997483,63.01103509997483,63.01103509997483,0,1,[0.0012080000014975667],[0.3672538000391796],63.01103509997483,63.21292389999144,1000,63.21292389999144,1000,1000,1000,1000,0,num_3,0.6921824999735691,,24,5,2026-03-04_15h34.17.693,2026A_exp2,2022.2.4,59.89437028609828,
1,0,6.1,0.0,1,0,4,4,17,,,,,63.92858489998616,64.57919700001366,64.57919700001366,65.0801784999785,315,45,65.0801784999785,65.0801784999785,65.0801784999785,65.0801784999785,65.0801784999785,65.0801784999785,65.0801784999785,65.0801784999785,65.0801784999785,65.44667330000084,65.44667330000084,65.44667330000084,65.44667330000084,65.44667330000084,65.44667330000084,65.44667330000084,65.44667330000084,65.44667330000084,23,0,,,65.44667330000084,65.64676979999058,0.0,65.64676979999058,0,0.0,0,1,1000,num_1,1.545378399954643,,24,5,2026-03-04_15h34.17.693,2026A_exp2,2022.2.4,59.89437028609828,
1000,1,0.0,3.7,1,0,5,5,88,,,,,67.21511280001141,67.8657984000165,67.8657984000165,68.35013279999839,315,315,68.35013279999839,68.35013279999839,68.35013279999839,68.35013279999839,68.35013279999839,68.35013279999839,68.35013279999839,68.35013279999839,68.35013279999839,68.716537899978,68.716537899978,68.716537899978,68.716537899978,68.716537899978,68.716537899978,68.716537899978,68.716537899978,68.716537899978,23,0,,,68.716537899978,68.91866019996814,1000,68.91866019996814,1000,1000,1000,1000,1,num_2,0.6898943000123836,,24,5,2026-03-04_15h34.17.693,2026A_exp2,2022.2.4,59.89437028609828,
1000,1,0.0,6.1,1,0,6,6,74,,,,,69.63409700000193,70.28478940000059,70.28478940000059,70.78588649997255,315,45,70.78588649997255,70.78588649997255,70.78588649997255,70.78588649997255,70.78588649997255,70.78588649997255,70.78588649997255,70.78588649997255,70.78588649997255,71.15234879998025,71.15234879998025,71.15234879998025,71.15234879998025,71.15234879998025,71.15234879998025,71.15234879998025,71.15234879998025,71.15234879998025,23,0,,,71.15234879998025,71.35491469997214,1000,71.35491469997214,1000,1000,1000,1000,1,num_2,0.8214786000316963,,24,5,2026-03-04_15h34.17.693,2026A_exp2,2022.2.4,59.89437028609828,
1000,1,0.0,0.0,0,0,7,7,7,,,,,72.20347860001493,72.85404579999158,72.85404579999158,73.35521680000238,45,315,73.35521680000238,73.35521680000238,73.35521680000238,73.35521680000238,73.35521680000238,73.35521680000238,73.35521680000238,73.35521680000238,73.35521680000238,73.72154399997089,73.72154399997089,73.72154399997089,73.72154399997089,73.72154399997089,73.72154399997089,73.72154399997089,73.72154399997089,73.72154399997089,23,0,,,73.72154399997089,73.92366530001163,1000,73.92366530001163,1000,1000,1000,1000,1,num_2,1.693501399946399,,24,5,2026-03-04_15h34.17.693,2026A_exp2,2022.2.4,59.89437028609828,
1000,1,0.0,4.9,1,0,8,8,37,,,,,75.64006820000941,76.29085940000368,76.29085940000368,76.79190249997191,315,315,76.79190249997191,76.79190249997191,76.79190249997191,76.79190249997191,76.79190249997191,76.79190249997191,76.79190249997191,76.79190249997191,76.79190249997191,77.14171860000351,77.14171860000351,77.14171860000351,77.14171860000351,77.14171860000351,77.14171860000351,77.14171860000351,77.14171860000351,77.14171860000351,0,1,[0.0012310000020079315],[0.35049040004378185],77.14171860000351,77.34375539998291,1000,77.34375539998291,1000,1000,1000,1000,1,num_2,0.6804267999832518,,24,5,2026-03-04_15h34.17.693,2026A_exp2,2022.2.4,59.89437028609828,
1000,1,4.9,3.7,1,0,9,9,78,,,,,78.04251860000659,78.69306929997401,78.69306929997401,79.19444779999321,45,315,79.19444779999321,79.19444779999321,79.19444779999321,79.19444779999321,79.19444779999321,79.19444779999321,79.19444779999321,79.19444779999321,79.19444779999321,79.56072299997322,79.56072299997322,79.56072299997322,79.56072299997322,79.56072299997322,79.56072299997322,79.56072299997322,79.56072299997322,79.56072299997322,0,1,[0.001241199963260442],[0.36729609995381907],79.56072299997322,79.7629243999836,1000,79.7629243999836,1000,1000,1000,1000,0,num_3,0.6610822000075132,,24,5,2026-03-04_15h34.17.693,2026A_exp2,2022.2.4,59.89437028609828,
1000,1,3.7,3.7,0,0,10,10,59,,,,,80.44496880000224,81.0957193999784,81.0957193999784,81.59682199999224,45,315,81.59682199999224,81.59682199999224,81.59682199999224,81.59682199999224,81.59682199999224,81.59682199999224,81.59682199999224,81.59682199999224,81.59682199999224,81.96317740000086,81.96317740000086,81.96317740000086,81.96317740000086,81.96317740000086,81.96317740000086,81.96317740000086,81.96317740000086,81.96317740000086,23,0,,,81.96317740000086,82.16568079998251,1000,82.16568079998251,1000,1000,1000,1000,1,num_2,0.5543745000031777,,24,5,2026-03-04_15h34.17.693,2026A_exp2,2022.2.4,59.89437028609828,
1,0,0.0,0.0,0,0,11,11,87,,,,,82.74723649997031,83.39791240001796,83.39791240001796,83.8991000999813,315,315,83.8991000999813,83.8991000999813,83.8991000999813,83.8991000999813,83.8991000999813,83.8991000999813,83.8991000999813,83.8991000999813,83.8991000999813,84.24889439996332,84.24889439996332,84.24889439996332,84.24889439996332,84.24889439996332,84.24889439996332,84.24889439996332,84.24889439996332,84.24889439996332,0,1,[0.0012092999531887472],[0.35062389995437115],84.24889439996332,84.44905130000552,0.0,84.46562789997552,0,0.0,0,1,1000,num_1,1.1821409999975003,,24,5,2026-03-04_15h34.17.693,2026A_exp2,2022.2.4,59.89437028609828,
1,0,3.7,0.0,1,0,12,12,30,,,,,85.66670880001038,86.3176378000062,86.3176378000062,86.80199160001939,315,45,86.80199160001939,86.80199160001939,86.80199160001939,86.80199160001939,86.80199160001939,86.80199160001939,86.80199160001939,86.80199160001939,86.80199160001939,87.16845439997269,87.16845439997269,87.16845439997269,87.16845439997269,87.16845439997269,87.16845439997269,87.16845439997269,87.16845439997269,87.16845439997269,15,2,"[0.001221399987116456, 0.1337391000124626]","[0.11684999999124557, 0.1499263999867253]",87.16845439997269,87.36855849996209,0.0,87.36855849996209,0,0.0,0,1,1000,num_1,1.1279450000147335,,24,5,2026-03-04_15h34.17.693,2026A_exp2,2022.2.4,59.89437028609828,
1000,1,0.0,6.1,1,0,13,13,42,,,,,88.51961439999286,89.1535440000007,89.1535440000007,89.65478929999517,315,315,89.65478929999517,89.65478929999517,89.65478929999517,89.65478929999517,89.65478929999517,89.65478929999517,89.65478929999517,89.65478929999517,89.65478929999517,90.02128689998062,90.02128689998062,90.02128689998062,90.02128689998062,90.02128689998062,90.02128689998062,90.02128689998062,90.02128689998062,90.02128689998062,5,3,"[0.001229099987540394, 0.08317830000305548, 0.13369719998445362]","[0.0666258999845013, 0.11693399999057874, 0.33384719997411594]",90.02128689998062,90.22379959997488,1000,90.22379959997488,1000,1000,1000,1000,1,num_2,0.6809726000064984,,24,5,2026-03-04_15h34.17.693,2026A_exp2,2022.2.4,59.89437028609828,
1000,1,0.0,0.0,0,0,14,14,45,,,,,90.92204039997887,91.57283889997052,91.57283889997052,92.07396840001456,315,45,92.07396840001456,92.07396840001456,92.07396840001456,92.07396840001456,92.07396840001456,92.07396840001456,92.07396840001456,92.07396840001456,92.07396840001456,92.44033519999357,92.44033519999357,92.44033519999357,92.44033519999357,92.44033519999357,92.44033519999357,92.44033519999357,92.44033519999357,92.44033519999357,18,5,"[0.033805000013671815, 0.0670611000386998, 0.11706479999702424, 0.2505491999909282, 0.3338779000332579]","[0.05034170002909377, 0.0836171000264585, 0.13372959999833256, 0.26725190004799515, 0.3505297999945469]",92.44033519999357,92.64261350000743,1000,92.64261350000743,1000,1000,1000,1000,1,num_2,1.326265699986834,,24,5,2026-03-04_15h34.17.693,2026A_exp2,2022.2.4,59.89437028609828,
1000,1,0.0,0.0,1,0,15,15,2,,,,,93.99514730001101,94.65459250001004,94.65459250001004,95.14356519997818,45,315,95.14356519997818,95.14356519997818,95.14356519997818,95.14356519997818,95.14356519997818,95.14356519997818,95.14356519997818,95.14356519997818,95.14356519997818,95.51000999996904,95.51000999996904,95.51000999996904,95.51000999996904,95.51000999996904,95.51000999996904,95.51000999996904,95.51000999996904,95.51000999996904,14,4,"[0.15031309996265918, 0.23360709997359663, 0.2670422999653965, 0.31681739998748526]","[0.18357699998887256, 0.25033969996729866, 0.30038869997952133, 0.367113399959635]",95.51000999996904,95.71213349996833,1000,95.71213349996833,1000,1000,1000,1000,1,num_2,0.7117907999781892,,24,5,2026-03-04_15h34.17.693,2026A_exp2,2022.2.4,59.89437028609828,
0,0,4.9,0.0,0,0,16,16,40,,,,,96.44430819997797,97.09503620001487,97.09503620001487,97.59174299996812,315,45,97.59174299996812,97.59174299996812,97.59174299996812,97.59174299996812,97.59174299996812,97.59174299996812,97.59174299996812,97.59174299996812,97.59174299996812,97.96253640000941,97.96253640000941,97.96253640000941,97.96253640000941,97.96253640000941,97.96253640000941,97.96253640000941,97.96253640000941,97.96253640000941,19,2,"[0.2983479999820702, 0.3804639999871142]","[0.3471424999879673, 0.3804686999646947]",97.96253640000941,98.16669479996199,0.0,98.16669479996199,1,0.0,0,0,1000,num_4,1.4337961999699473,,24,5,2026-03-04_15h34.17.693,2026A_exp2,2022.2.4,59.89437028609828,
1000,1,0.0,6.1,0,0,17,17,16,,,,,99.63101660000393,100.2887660000124,100.2887660000124,100.76602569996612,45,45,100.76602569996612,100.76602569996612,100.76602569996612,100.76602569996612,100.76602569996612,100.76602569996612,100.76602569996612,100.76602569996612,100.76602569996612,101.13230449997354,101.13230449997354,101.13230449997354,101.13230449997354,101.13230449997354,101.13230449997354,101.13230449997354,101.13230449997354,101.13230449997354,16,3,"[0.0501079999958165, 0.15013160003582016, 0.28372800000943244]","[0.08363240002654493, 0.1668913000030443, 0.3505314000067301]",101.13230449997354,101.33452839998063,1000,101.33452839998063,1000,1000,1000,1000,1,num_2,0.8493233000044711,,24,5,2026-03-04_15h34.17.693,2026A_exp2,2022.2.4,59.89437028609828,
1,0,0.0,4.9,0,0,18,18,14,,,,,102.20003429998178,102.85086920001777,102.85086920001777,103.35177800001111,315,45,103.35177800001111,103.35177800001111,103.35177800001111,103.35177800001111,103.35177800001111,103.35177800001111,103.35177800001111,103.35177800001111,103.35177800001111,103.71833619999234,103.71833619999234,103.71833619999234,103.71833619999234,103.71833619999234,103.71833619999234,103.71833619999234,103.71833619999234,103.71833619999234,23,0,,,103.71833619999234,103.9184047000017,0.0,103.9184047000017,0,0.0,0,1,1000,num_1,1.6021011000266299,,24,5,2026-03-04_15h34.17.693,2026A_exp2,2022.2.4,59.89437028609828,
1,0,0.0,6.1,1,0,19,19,19,,,,,105.53664369997568,106.18748199997935,106.18748199997935,106.67190079996362,45,45,106.67190079996362,106.67190079996362,106.67190079996362,106.67190079996362,106.67190079996362,106.67190079996362,106.67190079996362,106.67190079996362,106.67190079996362,107.0381228000042,107.0381228000042,107.0381228000042,107.0381228000042,107.0381228000042,107.0381228000042,107.0381228000042,107.0381228000042,107.0381228000042,23,0,,,107.0381228000042,107.23853889998281,6.1,107.23853889998281,1,6.1,1,1,1000,num_4,0.6657752000028268,,24,5,2026-03-04_15h34.17.693,2026A_exp2,2022.2.4,59.89437028609828,
1,0,3.7,0.0,0,0,20,20,10,,,,,107.92241449997528,108.57320380001329,108.57320380001329,109.05757639999501,45,315,109.05757639999501,109.05757639999501,109.05757639999501,109.05757639999501,109.05757639999501,109.05757639999501,109.05757639999501,109.05757639999501,109.05757639999501,109.42384709999897,109.42384709999897,109.42384709999897,109.42384709999897,109.42384709999897,109.42384709999897,109.42384709999897,109.42384709999897,109.42384709999897,23,0,,,109.42384709999897,109.62388239998836,3.7,109.62388239998836,1,3.7,1,1,1000,num_4,1.1287191999726929,,24,5,2026-03-04_15h34.17.693,2026A_exp2,2022.2.4,59.89437028609828,
0,0,0.0,3.7,1,0,21,21,53,,,,,110.77523179998389,111.42604300001403,111.42604300001403,111.91023679997306,315,315,111.91023679997306,111.91023679997306,111.91023679997306,111.91023679997306,111.91023679997306,111.91023679997306,111.91023679997306,111.91023679997306,111.91023679997306,112.27686959999846,112.27686959999846,112.27686959999846,112.27686959999846,112.27686959999846,112.27686959999846,112.27686959999846,112.27686959999846,112.27686959999846,23,0,,,112.27686959999846,112.47693140001502,0.0,112.47693140001502,0,0.0,0,1,1000,num_1,1.4188503000186756,,24,5,2026-03-04_15h34.17.693,2026A_exp2,2022.2.4,59.89437028609828,
1000,1,3.7,0.0,0,0,22,22,86,,,,,113.911835899984,114.54564239998581,114.54564239998581,115.04674779996276,315,315,115.04674779996276,115.04674779996276,115.04674779996276,115.04674779996276,115.04674779996276,115.04674779996276,115.04674779996276,115.04674779996276,115.04674779996276,115.4133892999962,115.4133892999962,115.4133892999962,115.4133892999962,115.4133892999962,115.4133892999962,115.4133892999962,115.4133892999962,115.4133892999962,23,0,,,115.4133892999962,115.6159222999704,1000,115.6159222999704,1000,1000,1000,1000,0,num_3,1.3051493000239134,,24,5,2026-03-04_15h34.17.693,2026A_exp2,2022.2.4,59.89437028609828,
0,0,6.1,3.7,0,0,23,23,49,,,,,116.94803450000472,117.59884109999985,117.59884109999985,118.10003580001649,315,315,118.10003580001649,118.10003580001649,118.10003580001649,118.10003580001649,118.10003580001649,118.10003580001649,118.10003580001649,118.10003580001649,118.10003580001649,118.46635890001198,118.46635890001198,118.46635890001198,118.46635890001198,118.46635890001198,118.46635890001198,118.46635890001198,118.46635890001198,118.46635890001198,23,0,,,118.46635890001198,118.66650180000579,3.7,118.66650180000579,1,3.7,1,1,1000,num_4,0.9012962999986485,,24,5,2026-03-04_15h34.17.693,2026A_exp2,2022.2.4,59.89437028609828,
1000,1,0.0,6.1,0,0,24,24,61,,,,,119.58402780001052,120.24346620001597,120.24346620001597,120.71928079996724,45,315,120.71928079996724,120.71928079996724,120.71928079996724,120.71928079996724,120.71928079996724,120.71928079996724,120.71928079996724,120.71928079996724,120.71928079996724,121.08560340001713,121.08560340001713,121.08560340001713,121.08560340001713,121.08560340001713,121.08560340001713,121.08560340001713,121.08560340001713,121.08560340001713,23,0,,,121.08560340001713,121.28712659998564,1000,121.28712659998564,1000,1000,1000,1000,1,num_2,0.8972802999778651,,24,5,2026-03-04_15h34.17.693,2026A_exp2,2022.2.4,59.89437028609828,
1000,1,4.9,0.0,1,0,25,25,48,,,,,122.20326939999359,122.85405680001713,122.85405680001713,123.35525079997024,45,315,123.35525079997024,123.35525079997024,123.35525079997024,123.35525079997024,123.35525079997024,123.35525079997024,123.35525079997024,123.35525079997024,123.35525079997024,123.72162500000559,123.72162500000559,123.72162500000559,123.72162500000559,123.72162500000559,123.72162500000559,123.72162500000559,123.72162500000559,123.72162500000559,23,0,,,123.72162500000559,123.92190570000093,1000,123.92190570000093,1000,1000,1000,1000,0,num_3,0.7271572000463493,,24,5,2026-03-04_15h34.17.693,2026A_exp2,2022.2.4,59.89437028609828,
1,0,6.1,0.0,0,0,26,26,85,,,,,124.67257840000093,125.32321790000424,125.32321790000424,125.82425629999489,45,45,125.82425629999489,125.82425629999489,125.82425629999489,125.82425629999489,125.82425629999489,125.82425629999489,125.82425629999489,125.82425629999489,125.82425629999489,126.19078820000868,126.19078820000868,126.19078820000868,126.19078820000868,126.19078820000868,126.19078820000868,126.19078820000868,126.19078820000868,126.19078820000868,23,0,,,126.19078820000868,126.39102360000834,6.1,126.39102360000834,1,6.1,1,1,1000,num_4,0.8098818000289612,,24,5,2026-03-04_15h34.17.693,2026A_exp2,2022.2.4,59.89437028609828,
1,0,0.0,0.0,1,0,27,27,83,,,,,127.22503349999897,127.87584709998919,127.87584709998919,128.37679589999607,315,315,128.37679589999607,128.37679589999607,128.37679589999607,128.37679589999607,128.37679589999607,128.37679589999607,128.37679589999607,128.37679589999607,128.37679589999607,128.72652379999636,128.72652379999636,128.72652379999636,128.72652379999636,128.72652379999636,128.72652379999636,128.72652379999636,128.72652379999636,128.72652379999636,22,0,,,128.72652379999636,128.926794399973,0.0,128.926794399973,0,0.0,0,1,1000,num_1,1.2895999000174925,,24,5,2026-03-04_15h34.17.693,2026A_exp2,2022.2.4,59.89437028609828,
0,0,0.0,0.0,0,0,28,28,15,,,,,130.24468529998558,130.8955408000038,130.8955408000038,131.37979709997308,315,315,131.37979709997308,131.37979709997308,131.37979709997308,131.37979709997308,131.37979709997308,131.37979709997308,131.37979709997308,131.37979709997308,131.37979709997308,131.74615600000834,131.74615600000834,131.74615600000834,131.74615600000834,131.74615600000834,131.74615600000834,131.74615600000834,131.74615600000834,131.74615600000834,23,0,,,131.74615600000834,131.94651989999693,0.0,131.94651989999693,1,0.0,0,0,1000,num_4,1.7496079999837093,,24,5,2026-03-04_15h34.17.693,2026A_exp2,2022.2.4,59.89437028609828,
1000,1,4.9,6.1,1,0,29,29,5,,,,,133.71478789998218,134.3656850999687,134.3656850999687,134.84989879996283,315,45,134.84989879996283,134.84989879996283,134.84989879996283,134.84989879996283,134.84989879996283,134.84989879996283,134.84989879996283,134.84989879996283,134.84989879996283,135.21629139996367,135.21629139996367,135.21629139996367,135.21629139996367,135.21629139996367,135.21629139996367,135.21629139996367,135.21629139996367,135.21629139996367,23,0,,,135.21629139996367,135.41936850000639,1000,135.41936850000639,1000,1000,1000,1000,0,num_3,0.845188400009647,,24,5,2026-03-04_15h34.17.693,2026A_exp2,2022.2.4,59.89437028609828,
0,0,6.1,0.0,1,0,30,30,25,,,,,136.2841536999913,136.93487070000265,136.93487070000265,137.43585439998424,45,45,137.43585439998424,137.43585439998424,137.43585439998424,137.43585439998424,137.43585439998424,137.43585439998424,137.43585439998424,137.43585439998424,137.43585439998424,137.8023860999965,137.8023860999965,137.8023860999965,137.8023860999965,137.8023860999965,137.8023860999965,137.8023860999965,137.8023860999965,137.8023860999965,23,0,,,137.8023860999965,138.00246909999987,6.1,138.00246909999987,1,6.1,1,1,1000,num_4,0.8056004000245593,,24,5,2026-03-04_15h34.17.693,2026A_exp2,2022.2.4,59.89437028609828,
1000,1,4.9,0.0,1,0,31,31,12,,,,,138.8368943000096,139.4872791999951,139.4872791999951,139.97174459998496,45,45,139.97174459998496,139.97174459998496,139.97174459998496,139.97174459998496,139.97174459998496,139.97174459998496,139.97174459998496,139.97174459998496,139.97174459998496,140.33823559997836,140.33823559997836,140.33823559997836,140.33823559997836,140.33823559997836,140.33823559997836,140.33823559997836,140.33823559997836,140.33823559997836,23,0,,,140.33823559997836,140.540351499978,1000,140.540351499978,1000,1000,1000,1000,0,num_3,1.1557127999840304,,24,5,2026-03-04_15h34.17.693,2026A_exp2,2022.2.4,59.89437028609828,
0,0,4.9,0.0,0,0,32,32,84,,,,,141.72555470000952,142.3735483000055,142.3735483000055,142.87468110001646,45,45,142.87468110001646,142.87468110001646,142.87468110001646,142.87468110001646,142.87468110001646,142.87468110001646,142.87468110001646,142.87468110001646,142.87468110001646,143.24115690001054,143.24115690001054,143.24115690001054,143.24115690001054,143.24115690001054,143.24115690001054,143.24115690001054,143.24115690001054,143.24115690001054,23,0,,,143.24115690001054,143.44139029999496,0.0,143.44139029999496,1,0.0,0,0,1000,num_4,1.5585529999807477,,24,5,2026-03-04_15h34.17.693,2026A_exp2,2022.2.4,59.89437028609828,
1000,1,0.0,0.0,1,0,33,33,55,,,,,145.02608229999896,145.6768464000197,145.6768464000197,146.16138659999706,45,315,146.16138659999706,146.16138659999706,146.16138659999706,146.16138659999706,146.16138659999706,146.16138659999706,146.16138659999706,146.16138659999706,146.16138659999706,146.52778659999603,146.52778659999603,146.52778659999603,146.52778659999603,146.52778659999603,146.52778659999603,146.52778659999603,146.52778659999603,146.52778659999603,0,1,[0.001196000026538968],[0.3671721999999136],146.52778659999603,146.72980889998144,1000,146.72980889998144,1000,1000,1000,1000,0,num_3,1.2946186999906786,,24,5,2026-03-04_15h34.17.693,2026A_exp2,2022.2.4,59.89437028609828,
1000,1,3.7,6.1,1,0,34,34,75,,,,,148.04608399997232,148.69659930001944,148.69659930001944,149.19755759998225,45,45,149.19755759998225,149.19755759998225,149.19755759998225,149.19755759998225,149.19755759998225,149.19755759998225,149.19755759998225,149.19755759998225,149.19755759998225,149.56405609997455,149.56405609997455,149.56405609997455,149.56405609997455,149.56405609997455,149.56405609997455,149.56405609997455,149.56405609997455,149.56405609997455,23,0,,,149.56405609997455,149.76618709997274,1000,149.76618709997274,1000,1000,1000,1000,1,num_2,0.9937796000158414,,24,5,2026-03-04_15h34.17.693,2026A_exp2,2022.2.4,59.89437028609828,
1,0,0.0,4.9,0,0,35,35,70,,,,,150.7819368999917,151.43265370000154,151.43265370000154,151.9338235000032,45,315,151.9338235000032,151.9338235000032,151.9338235000032,151.9338235000032,151.9338235000032,151.9338235000032,151.9338235000032,151.9338235000032,151.9338235000032,152.2834550999687,152.2834550999687,152.2834550999687,152.2834550999687,152.2834550999687,152.2834550999687,152.2834550999687,152.2834550999687,152.2834550999687,22,0,,,152.2834550999687,152.48374399996828,0.0,152.50046609999845,0,0.0,0,1,1000,num_1,1.4448285999824293,,24,5,2026-03-04_15h34.17.693,2026A_exp2,2022.2.4,59.89437028609828,
1,0,3.7,6.1,1,0,36,36,68,,,,,153.96856959996512,154.6191778999637,154.6191778999637,155.1203501999844,315,45,155.1203501999844,155.1203501999844,155.1203501999844,155.1203501999844,155.1203501999844,155.1203501999844,155.1203501999844,155.1203501999844,155.1203501999844,155.4866852000123,155.4866852000123,155.4866852000123,155.4866852000123,155.4866852000123,155.4866852000123,155.4866852000123,155.4866852000123,155.4866852000123,23,0,,,155.4866852000123,155.68699229997583,6.1,155.68699229997583,1,6.1,1,1,1000,num_4,0.8008400999824516,,24,5,2026-03-04_15h34.17.693,2026A_exp2,2022.2.4,59.89437028609828,
1,0,0.0,0.0,1,0,37,37,31,,,,,156.50443490000907,157.1550613999716,157.1550613999716,157.63939339999342,315,45,157.63939339999342,157.63939339999342,157.63939339999342,157.63939339999342,157.63939339999342,157.63939339999342,157.63939339999342,157.63939339999342,157.63939339999342,158.00584270001855,158.00584270001855,158.00584270001855,158.00584270001855,158.00584270001855,158.00584270001855,158.00584270001855,158.00584270001855,158.00584270001855,23,0,,,158.00584270001855,158.20616100000916,0.0,158.20616100000916,0,0.0,0,1,1000,num_1,0.8423892999999225,,24,5,2026-03-04_15h34.17.693,2026A_exp2,2022.2.4,59.89437028609828,
1000,1,6.1,4.9,0,0,38,38,81,,,,,159.07347910001408,159.7242672999855,159.7242672999855,160.20866190001834,315,45,160.20866190001834,160.20866190001834,160.20866190001834,160.20866190001834,160.20866190001834,160.20866190001834,160.20866190001834,160.20866190001834,160.20866190001834,160.57515109999804,160.57515109999804,160.57515109999804,160.57515109999804,160.57515109999804,160.57515109999804,160.57515109999804,160.57515109999804,160.57515109999804,23,0,,,160.57515109999804,160.77734490000876,1000,160.77734490000876,1000,1000,1000,1000,0,num_3,0.7183557999669574,,24,5,2026-03-04_15h34.17.693,2026A_exp2,2022.2.4,59.89437028609828,
1000,1,3.7,4.9,1,0,39,39,71,,,,,161.52593249996426,162.1709476999822,162.1709476999822,162.66108619997976,315,45,162.66108619997976,162.66108619997976,162.66108619997976,162.66108619997976,162.66108619997976,162.66108619997976,162.66108619997976,162.66108619997976,162.66108619997976,163.02762870001607,163.02762870001607,163.02762870001607,163.02762870001607,163.02762870001607,163.02762870001607,163.02762870001607,163.02762870001607,163.02762870001607,23,0,,,163.02762870001607,163.2298649000004,1000,163.2298649000004,1000,1000,1000,1000,1,num_2,0.650734199967701,,24,5,2026-03-04_15h34.17.693,2026A_exp2,2022.2.4,59.89437028609828,
1000,1,0.0,0.0,0,0,40,40,57,,,,,163.9119298000005,164.56251730001532,164.56251730001532,165.0636155999964,45,315,165.0636155999964,165.0636155999964,165.0636155999964,165.0636155999964,165.0636155999964,165.0636155999964,165.0636155999964,165.0636155999964,165.0636155999964,165.4300399000058,165.4300399000058,165.4300399000058,165.4300399000058,165.4300399000058,165.4300399000058,165.4300399000058,165.4300399000058,165.4300399000058,23,0,,,165.4300399000058,165.63046309998026,1000,165.63046309998026,1000,1000,1000,1000,1,num_2,1.9855777000193484,,24,5,2026-03-04_15h34.17.693,2026A_exp2,2022.2.4,59.89437028609828,
1,0,0.0,4.9,0,0,41,41,32,,,,,167.63211710000178,168.28289899998344,168.28289899998344,168.78391309996368,315,315,168.78391309996368,168.78391309996368,168.78391309996368,168.78391309996368,168.78391309996368,168.78391309996368,168.78391309996368,168.78391309996368,168.78391309996368,169.15028160001384,169.15028160001384,169.15028160001384,169.15028160001384,169.15028160001384,169.15028160001384,169.15028160001384,169.15028160001384,169.15028160001384,23,0,,,169.15028160001384,169.350602099963,0.0,169.350602099963,0,0.0,0,1,1000,num_1,1.4259463000344113,,24,5,2026-03-04_15h34.17.693,2026A_exp2,2022.2.4,59.89437028609828,
1000,1,6.1,0.0,0,0,42,42,58,,,,,170.8019092999748,171.4526098999777,171.4526098999777,171.93722099997103,315,315,171.93722099997103,171.93722099997103,171.93722099997103,171.93722099997103,171.93722099997103,171.93722099997103,171.93722099997103,171.93722099997103,171.93722099997103,172.30360949999886,172.30360949999886,172.30360949999886,172.30360949999886,172.30360949999886,172.30360949999886,172.30360949999886,172.30360949999886,172.30360949999886,23,0,,,172.30360949999886,172.50378480000654,1000,172.50378480000654,1000,1000,1000,1000,0,num_3,0.6650987000321038,,24,5,2026-03-04_15h34.17.693,2026A_exp2,2022.2.4,59.89437028609828,
0,0,6.1,0.0,0,0,43,43,41,,,,,173.18764740001643,173.83805640001083,173.83805640001083,174.33971029997338,45,315,174.33971029997338,174.33971029997338,174.33971029997338,174.33971029997338,174.33971029997338,174.33971029997338,174.33971029997338,174.33971029997338,174.33971029997338,174.7060018000193,174.7060018000193,174.7060018000193,174.7060018000193,174.7060018000193,174.7060018000193,174.7060018000193,174.7060018000193,174.7060018000193,23,0,,,174.7060018000193,174.90613560000202,0.0,174.90613560000202,0,0.0,0,1,1000,num_1,1.7342244000174105,,24,5,2026-03-04_15h34.17.693,2026A_exp2,2022.2.4,59.89437028609828,
1000,1,3.7,6.1,0,0,44,44,60,,,,,176.6577050999622,177.3085870000068,177.3085870000068,177.79293009999674,315,315,177.79293009999674,177.79293009999674,177.79293009999674,177.79293009999674,177.79293009999674,177.79293009999674,177.79293009999674,177.79293009999674,177.79293009999674,178.15928490000078,178.15928490000078,178.15928490000078,178.15928490000078,178.15928490000078,178.15928490000078,178.15928490000078,178.15928490000078,178.15928490000078,23,0,,,178.15928490000078,178.36132570001064,1000,178.36132570001064,1000,1000,1000,1000,1,num_2,0.8797199999680743,,24,5,2026-03-04_15h34.17.693,2026A_exp2,2022.2.4,59.89437028609828,
1,0,0.0,6.1,0,0,45,45,24,,,,,179.260353199963,179.91100520000327,179.91100520000327,180.41219439997803,315,45,180.41219439997803,180.41219439997803,180.41219439997803,180.41219439997803,180.41219439997803,180.41219439997803,180.41219439997803,180.41219439997803,180.41219439997803,180.7618357000174,180.7618357000174,180.7618357000174,180.7618357000174,180.7618357000174,180.7618357000174,180.7618357000174,180.7618357000174,180.7618357000174,22,0,,,180.7618357000174,180.96220399998128,0.0,180.97894030000316,1,0.0,0,0,1000,num_4,1.9742267999681644,,24,5,2026-03-04_15h34.17.693,2026A_exp2,2022.2.4,59.89437028609828,
1000,1,0.0,0.0,0,0,46,46,65,,,,,182.98097209999105,183.6314832000062,183.6314832000062,184.115906299965,45,45,184.115906299965,184.115906299965,184.115906299965,184.115906299965,184.115906299965,184.115906299965,184.115906299965,184.115906299965,184.115906299965,184.48239139997168,184.48239139997168,184.48239139997168,184.48239139997168,184.48239139997168,184.48239139997168,184.48239139997168,184.48239139997168,184.48239139997168,23,0,,,184.48239139997168,184.68457579996902,1000,184.68457579996902,1000,1000,1000,1000,1,num_2,1.579607699997723,,24,5,2026-03-04_15h34.17.693,2026A_exp2,2022.2.4,59.89437028609828,
1000,1,6.1,0.0,0,0,47,47,27,,,,,186.28404729999602,186.93491309997626,186.93491309997626,187.4360052999691,45,315,187.4360052999691,187.4360052999691,187.4360052999691,187.4360052999691,187.4360052999691,187.4360052999691,187.4360052999691,187.4360052999691,187.4360052999691,187.78569469996728,187.78569469996728,187.78569469996728,187.78569469996728,187.78569469996728,187.78569469996728,187.78569469996728,187.78569469996728,187.78569469996728,22,0,,,187.78569469996728,187.9874042000156,1000,188.00264580000658,1000,1000,1000,1000,0,num_3,0.6065610999939963,,24,5,2026-03-04_15h34.17.693,2026A_exp2,2022.2.4,59.89437028609828,
1000,1,0.0,0.0,0,0,48,48,62,,,,,188.63634779996937,189.2872386999661,189.2872386999661,189.78819950000616,315,45,189.78819950000616,189.78819950000616,189.78819950000616,189.78819950000616,189.78819950000616,189.78819950000616,189.78819950000616,189.78819950000616,189.78819950000616,190.13807200000156,190.13807200000156,190.13807200000156,190.13807200000156,190.13807200000156,190.13807200000156,190.13807200000156,190.13807200000156,190.13807200000156,22,0,,,190.13807200000156,190.3399407999823,1000,190.3399407999823,1000,1000,1000,1000,0,num_3,0.860523400013335,,24,5,2026-03-04_15h34.17.693,2026A_exp2,2022.2.4,59.89437028609828,
1,0,4.9,6.1,0,0,49,49,82,,,,,191.22233349998714,191.87301149999257,191.87301149999257,192.37424949998967,315,45,192.37424949998967,192.37424949998967,192.37424949998967,192.37424949998967,192.37424949998967,192.37424949998967,192.37424949998967,192.37424949998967,192.37424949998967,192.74029529996915,192.74029529996915,192.74029529996915,192.74029529996915,192.74029529996915,192.74029529996915,192.74029529996915,192.74029529996915,192.74029529996915,23,0,,,192.74029529996915,192.94073420000495,4.9,192.94073420000495,1,4.9,1,1,1000,num_4,0.8199962999788113,,24,5,2026-03-04_15h34.17.693,2026A_exp2,2022.2.4,59.89437028609828,
0,0,3.7,4.9,0,0,50,50,77,,,,,193.79163079999853,194.44234780000988,194.44234780000988,194.92681299999822,315,45,194.92681299999822,194.92681299999822,194.92681299999822,194.92681299999822,194.92681299999822,194.92681299999822,194.92681299999822,194.92681299999822,194.92681299999822,195.29317199997604,195.29317199997604,195.29317199997604,195.29317199997604,195.29317199997604,195.29317199997604,195.29317199997604,195.29317199997604,195.29317199997604,23,0,,,195.29317199997604,195.49338369996985,4.9,195.49338369996985,1,4.9,1,1,1000,num_4,0.6754052999895066,,24,5,2026-03-04_15h34.17.693,2026A_exp2,2022.2.4,59.89437028609828,
1,0,0.0,0.0,0,0,51,51,80,,,,,196.19400469999528,196.84475449996535,196.84475449996535,197.3290277000051,45,45,197.3290277000051,197.3290277000051,197.3290277000051,197.3290277000051,197.3290277000051,197.3290277000051,197.3290277000051,197.3290277000051,197.3290277000051,197.6955931999837,197.6955931999837,197.6955931999837,197.6955931999837,197.6955931999837,197.6955931999837,197.6955931999837,197.6955931999837,197.6955931999837,23,0,,,197.6955931999837,197.90815329999896,0.0,197.90815329999896,0,0.0,0,1,1000,num_1,1.2438833999913186,,24,5,2026-03-04_15h34.17.693,2026A_exp2,2022.2.4,59.89437028609828,
1000,1,0.0,3.7,0,0,52,52,63,,,,,199.18028530001175,199.83091750001768,199.83091750001768,200.31533319997834,315,315,200.31533319997834,200.31533319997834,200.31533319997834,200.31533319997834,200.31533319997834,200.31533319997834,200.31533319997834,200.31533319997834,200.31533319997834,200.68192589998944,200.68192589998944,200.68192589998944,200.68192589998944,200.68192589998944,200.68192589998944,200.68192589998944,200.68192589998944,200.68192589998944,23,0,,,200.68192589998944,200.88230190001195,1000,200.88230190001195,1000,1000,1000,1000,1,num_2,0.8463195000076666,,24,5,2026-03-04_15h34.17.693,2026A_exp2,2022.2.4,59.89437028609828,
1000,1,0.0,3.7,0,0,53,53,43,,,,,201.7495836999733,202.40027479996206,202.40027479996206,202.90135250001913,315,45,202.90135250001913,202.90135250001913,202.90135250001913,202.90135250001913,202.90135250001913,202.90135250001913,202.90135250001913,202.90135250001913,202.90135250001913,203.26777430000948,203.26777430000948,203.26777430000948,203.26777430000948,203.26777430000948,203.26777430000948,203.26777430000948,203.26777430000948,203.26777430000948,23,0,,,203.26777430000948,203.47014210000634,1000,203.47014210000634,1000,1000,1000,1000,1,num_2,1.065651400014758,,24,5,2026-03-04_15h34.17.693,2026A_exp2,2022.2.4,59.89437028609828,
1,0,4.9,0.0,1,0,54,54,34,,,,,204.55238189996453,205.2029836999718,205.2029836999718,205.7042657000129,315,315,205.7042657000129,205.7042657000129,205.7042657000129,205.7042657000129,205.7042657000129,205.7042657000129,205.7042657000129,205.7042657000129,205.7042657000129,206.07058100000722,206.07058100000722,206.07058100000722,206.07058100000722,206.07058100000722,206.07058100000722,206.07058100000722,206.07058100000722,206.07058100000722,23,0,,,206.07058100000722,206.27090619999217,0.0,206.27090619999217,0,0.0,0,1,1000,num_1,1.4898012999910861,,24,5,2026-03-04_15h34.17.693,2026A_exp2,2022.2.4,59.89437028609828,
1000,1,0.0,3.7,0,0,55,55,76,,,,,207.78888539999025,208.4395715999999,208.4395715999999,208.92398429999594,45,315,208.92398429999594,208.92398429999594,208.92398429999594,208.92398429999594,208.92398429999594,208.92398429999594,208.92398429999594,208.92398429999594,208.92398429999594,209.2904458999983,209.2904458999983,209.2904458999983,209.2904458999983,209.2904458999983,209.2904458999983,209.2904458999983,209.2904458999983,209.2904458999983,23,0,,,209.2904458999983,209.49236039997777,1000,209.49236039997777,1000,1000,1000,1000,1,num_2,0.5956841000006534,,24,5,2026-03-04_15h34.17.693,2026A_exp2,2022.2.4,59.89437028609828,
1000,1,0.0,3.7,1,0,56,56,4,,,,,210.10787539999,210.75870000000577,210.75870000000577,211.25991089997115,45,45,211.25991089997115,211.25991089997115,211.25991089997115,211.25991089997115,211.25991089997115,211.25991089997115,211.25991089997115,211.25991089997115,211.25991089997115,211.62603889999446,211.62603889999446,211.62603889999446,211.62603889999446,211.62603889999446,211.62603889999446,211.62603889999446,211.62603889999446,211.62603889999446,23,0,,,211.62603889999446,211.82847130001755,1000,211.82847130001755,1000,1000,1000,1000,1,num_2,0.6920794999459758,,24,5,2026-03-04_15h34.17.693,2026A_exp2,2022.2.4,59.89437028609828,
1000,1,0.0,0.0,1,0,57,57,29,,,,,212.54369359998964,213.19442630000412,213.19442630000412,213.6954464999726,45,45,213.6954464999726,213.6954464999726,213.6954464999726,213.6954464999726,213.6954464999726,213.6954464999726,213.6954464999726,213.6954464999726,213.6954464999726,214.061821100011,214.061821100011,214.061821100011,214.061821100011,214.061821100011,214.061821100011,214.061821100011,214.061821100011,214.061821100011,23,0,,,214.061821100011,214.26485699997284,1000,214.26485699997284,1000,1000,1000,1000,1,num_2,0.543530400027521,,24,5,2026-03-04_15h34.17.693,2026A_exp2,2022.2.4,59.89437028609828,
1000,1,0.0,4.9,0,0,58,58,0,,,,,214.82946969999466,215.47999779996462,215.47999779996462,215.98118709999835,315,45,215.98118709999835,215.98118709999835,215.98118709999835,215.98118709999835,215.98118709999835,215.98118709999835,215.98118709999835,215.98118709999835,215.98118709999835,216.34756319998996,216.34756319998996,216.34756319998996,216.34756319998996,216.34756319998996,216.34756319998996,216.34756319998996,216.34756319998996,216.34756319998996,23,0,,,216.34756319998996,216.5496184999938,1000,216.5496184999938,1000,1000,1000,1000,1,num_2,0.5941007999936119,,24,5,2026-03-04_15h34.17.693,2026A_exp2,2022.2.4,59.89437028609828,
1000,1,0.0,0.0,0,0,59,59,89,,,,,217.16495449998183,217.81575389998034,217.81575389998034,218.3167980000144,45,315,218.3167980000144,218.3167980000144,218.3167980000144,218.3167980000144,218.3167980000144,218.3167980000144,218.3167980000144,218.3167980000144,218.3167980000144,218.6832159999758,218.6832159999758,218.6832159999758,218.6832159999758,218.6832159999758,218.6832159999758,218.6832159999758,218.6832159999758,218.6832159999758,2,2,"[0.0014386999537236989, 0.28369690000545233]","[0.266790299967397, 0.3671308999764733]",218.6832159999758,218.8858497000183,1000,218.8858497000183,1000,1000,1000,1000,1,num_2,0.578230400045868,,24,5,2026-03-04_15h34.17.693,2026A_exp2,2022.2.4,59.89437028609828,
1000,1,6.1,6.1,1,0,60,60,22,,,,,219.48393679998117,220.136561399966,220.136561399966,220.6358497000183,315,45,220.6358497000183,220.6358497000183,220.6358497000183,220.6358497000183,220.6358497000183,220.6358497000183,220.6358497000183,220.6358497000183,220.6358497000183,221.00229189998936,221.00229189998936,221.00229189998936,221.00229189998936,221.00229189998936,221.00229189998936,221.00229189998936,221.00229189998936,221.00229189998936,15,5,"[0.10033789998851717, 0.1502481999923475, 0.20044939999934286, 0.2505164000322111, 0.3337541000219062]","[0.11696710000978783, 0.16688800003612414, 0.23358400003053248, 0.30041710002114996, 0.3504978999844752]",221.00229189998936,221.2045207999763,1000,221.2045207999763,1000,1000,1000,1000,0,num_3,0.7403293999959715,,24,5,2026-03-04_15h34.17.693,2026A_exp2,2022.2.4,59.89437028609828,
1,0,0.0,4.9,1,0,61,61,54,,,,,221.96975829999428,222.6205317999702,222.6205317999702,223.12168410001323,45,45,223.12168410001323,223.12168410001323,223.12168410001323,223.12168410001323,223.12168410001323,223.12168410001323,223.12168410001323,223.12168410001323,223.12168410001323,223.47133729996858,223.47133729996858,223.47133729996858,223.47133729996858,223.47133729996858,223.47133729996858,223.47133729996858,223.47133729996858,223.47133729996858,22,0,,,223.47133729996858,223.6715820999816,4.9,223.68839099997422,1,4.9,1,1,1000,num_4,0.8321277999784797,,24,5,2026-03-04_15h34.17.693,2026A_exp2,2022.2.4,59.89437028609828,
1000,1,6.1,4.9,0,0,62,62,51,,,,,224.53890220000176,225.18975019996287,225.18975019996287,225.6906605999684,45,315,225.6906605999684,225.6906605999684,225.6906605999684,225.6906605999684,225.6906605999684,225.6906605999684,225.6906605999684,225.6906605999684,225.6906605999684,226.04066050000256,226.04066050000256,226.04066050000256,226.04066050000256,226.04066050000256,226.04066050000256,226.04066050000256,226.04066050000256,226.04066050000256,22,0,,,226.04066050000256,226.2428197999834,1000,226.2428197999834,1000,1000,1000,1000,1,num_2,1.8301015000324696,,24,5,2026-03-04_15h34.17.693,2026A_exp2,2022.2.4,59.89437028609828,
1000,1,4.9,3.7,0,0,63,63,28,,,,,228.09244069998385,228.74333560001105,228.74333560001105,229.24445769999875,45,45,229.24445769999875,229.24445769999875,229.24445769999875,229.24445769999875,229.24445769999875,229.24445769999875,229.24445769999875,229.24445769999875,229.24445769999875,229.61078549997183,229.61078549997183,229.61078549997183,229.61078549997183,229.61078549997183,229.61078549997183,229.61078549997183,229.61078549997183,229.61078549997183,23,0,,,229.61078549997183,229.81367349997163,1000,229.81367349997163,1000,1000,1000,1000,0,num_3,0.6667693000053987,,24,5,2026-03-04_15h34.17.693,2026A_exp2,2022.2.4,59.89437028609828,
1000,1,0.0,3.7,0,0,64,64,21,,,,,230.49498710001353,231.14572999998927,231.14572999998927,231.64672720001545,45,45,231.64672720001545,231.64672720001545,231.64672720001545,231.64672720001545,231.64672720001545,231.64672720001545,231.64672720001545,231.64672720001545,231.64672720001545,232.01331619999837,232.01331619999837,232.01331619999837,232.01331619999837,232.01331619999837,232.01331619999837,232.01331619999837,232.01331619999837,232.01331619999837,23,0,,,232.01331619999837,232.2157981999917,1000,232.2157981999917,1000,1000,1000,1000,1,num_2,1.3921449999907054,,24,5,2026-03-04_15h34.17.693,2026A_exp2,2022.2.4,59.89437028609828,
1,0,4.9,0.0,0,0,65,65,66,,,,,233.63136529998155,234.28220169997076,234.28220169997076,234.78336220001802,315,315,234.78336220001802,234.78336220001802,234.78336220001802,234.78336220001802,234.78336220001802,234.78336220001802,234.78336220001802,234.78336220001802,234.78336220001802,235.13288150000153,235.13288150000153,235.13288150000153,235.13288150000153,235.13288150000153,235.13288150000153,235.13288150000153,235.13288150000153,235.13288150000153,22,0,,,235.13288150000153,235.33329249999952,4.9,235.33329249999952,1,4.9,1,1,1000,num_4,0.7712185999844223,,24,5,2026-03-04_15h34.17.693,2026A_exp2,2022.2.4,59.89437028609828,
1000,1,4.9,0.0,1,0,66,66,67,,,,,236.1338856999646,236.7679189000046,236.7679189000046,237.2691441999632,45,315,237.2691441999632,237.2691441999632,237.2691441999632,237.2691441999632,237.2691441999632,237.2691441999632,237.2691441999632,237.2691441999632,237.2691441999632,237.6355932999868,237.6355932999868,237.6355932999868,237.6355932999868,237.6355932999868,237.6355932999868,237.6355932999868,237.6355932999868,237.6355932999868,23,0,,,237.6355932999868,237.83689699997194,1000,237.83689699997194,1000,1000,1000,1000,0,num_3,0.811534299980849,,24,5,2026-03-04_15h34.17.693,2026A_exp2,2022.2.4,59.89437028609828,
1000,1,0.0,0.0,1,0,67,67,56,,,,,238.66981210000813,239.32059339998523,239.32059339998523,239.82170580001548,315,315,239.82170580001548,239.82170580001548,239.82170580001548,239.82170580001548,239.82170580001548,239.82170580001548,239.82170580001548,239.82170580001548,239.82170580001548,240.18803730001673,240.18803730001673,240.18803730001673,240.18803730001673,240.18803730001673,240.18803730001673,240.18803730001673,240.18803730001673,240.18803730001673,23,0,,,240.18803730001673,240.3899504999863,1000,240.3899504999863,1000,1000,1000,1000,1,num_2,0.7867555000120774,,24,5,2026-03-04_15h34.17.693,2026A_exp2,2022.2.4,59.89437028609828,
1000,1,3.7,0.0,0,0,68,68,35,,,,,241.2056837999844,241.85638969996944,241.85638969996944,242.35738820000552,315,315,242.35738820000552,242.35738820000552,242.35738820000552,242.35738820000552,242.35738820000552,242.35738820000552,242.35738820000552,242.35738820000552,242.35738820000552,242.72375960001955,242.72375960001955,242.72375960001955,242.72375960001955,242.72375960001955,242.72375960001955,242.72375960001955,242.72375960001955,242.72375960001955,23,0,,,242.72375960001955,242.9241094000172,1000,242.9241094000172,1000,1000,1000,1000,0,num_3,0.4767483999603428,,24,5,2026-03-04_15h34.17.693,2026A_exp2,2022.2.4,59.89437028609828,
1000,1,4.9,6.1,0,0,69,69,36,,,,,243.42444239999168,244.07533259998308,244.07533259998308,244.57633349997923,315,45,244.57633349997923,244.57633349997923,244.57633349997923,244.57633349997923,244.57633349997923,244.57633349997923,244.57633349997923,244.57633349997923,244.57633349997923,244.94282599998405,244.94282599998405,244.94282599998405,244.94282599998405,244.94282599998405,244.94282599998405,244.94282599998405,244.94282599998405,244.94282599998405,23,0,,,244.94282599998405,245.14500919997226,1000,245.14500919997226,1000,1000,1000,1000,0,num_3,0.44730290002189577,,24,5,2026-03-04_15h34.17.693,2026A_exp2,2022.2.4,59.89437028609828,
1000,1,6.1,3.7,1,0,70,70,11,,,,,245.60996450000675,246.26086889998987,246.26086889998987,246.76197679998586,45,315,246.76197679998586,246.76197679998586,246.76197679998586,246.76197679998586,246.76197679998586,246.76197679998586,246.76197679998586,246.76197679998586,246.76197679998586,247.12820709997322,247.12820709997322,247.12820709997322,247.12820709997322,247.12820709997322,247.12820709997322,247.12820709997322,247.12820709997322,247.12820709997322,23,0,,,247.12820709997322,247.33095500001218,1000,247.33095500001218,1000,1000,1000,1000,0,num_3,1.0131227999809198,,24,5,2026-03-04_15h34.17.693,2026A_exp2,2022.2.4,59.89437028609828,
1000,1,0.0,0.0,0,0,71,71,64,,,,,248.36282420001226,249.01352989999577,249.01352989999577,249.51454010000452,45,45,249.51454010000452,249.51454010000452,249.51454010000452,249.51454010000452,249.51454010000452,249.51454010000452,249.51454010000452,249.51454010000452,249.51454010000452,249.88117770000827,249.88117770000827,249.88117770000827,249.88117770000827,249.88117770000827,249.88117770000827,249.88117770000827,249.88117770000827,249.88117770000827,23,0,,,249.88117770000827,250.08354019996477,1000,250.08354019996477,1000,1000,1000,1000,1,num_2,1.3974004999618046,,24,5,2026-03-04_15h34.17.693,2026A_exp2,2022.2.4,59.89437028609828,
0,0,6.1,0.0,1,0,72,72,52,,,,,251.4992581999977,252.1500656999997,252.1500656999997,252.65122459997656,45,315,252.65122459997656,252.65122459997656,252.65122459997656,252.65122459997656,252.65122459997656,252.65122459997656,252.65122459997656,252.65122459997656,252.65122459997656,253.00156810000772,253.00156810000772,253.00156810000772,253.00156810000772,253.00156810000772,253.00156810000772,253.00156810000772,253.00156810000772,253.00156810000772,22,0,,,253.00156810000772,253.2011393000139,6.1,253.217839799996,1,6.1,1,1,1000,num_4,0.7261102999909781,,24,5,2026-03-04_15h34.17.693,2026A_exp2,2022.2.4,59.89437028609828,
0,0,0.0,0.0,1,0,73,73,44,,,,,253.96844409999903,254.6191110999789,254.6191110999789,255.103559900017,315,315,255.103559900017,255.103559900017,255.103559900017,255.103559900017,255.103559900017,255.103559900017,255.103559900017,255.103559900017,255.103559900017,255.47006630001124,255.47006630001124,255.47006630001124,255.47006630001124,255.47006630001124,255.47006630001124,255.47006630001124,255.47006630001124,255.47006630001124,23,0,,,255.47006630001124,255.67028839996783,0.0,255.67028839996783,1,0.0,0,0,1000,num_4,2.058730499993544,,24,5,2026-03-04_15h34.17.693,2026A_exp2,2022.2.4,59.89437028609828,
1,0,0.0,0.0,1,0,74,74,6,,,,,257.7558924999903,258.4062608999666,258.4062608999666,258.8905564000015,315,315,258.8905564000015,258.8905564000015,258.8905564000015,258.8905564000015,258.8905564000015,258.8905564000015,258.8905564000015,258.8905564000015,258.8905564000015,259.2572565000155,259.2572565000155,259.2572565000155,259.2572565000155,259.2572565000155,259.2572565000155,259.2572565000155,259.2572565000155,259.2572565000155,23,0,,,259.2572565000155,259.4607516999822,0.0,259.4607516999822,1,0.0,0,0,1000,num_4,0.7003220999613404,,24,5,2026-03-04_15h34.17.693,2026A_exp2,2022.2.4,59.89437028609828,
1000,1,0.0,3.7,0,0,75,75,23,,,,,260.1913637999678,260.842079199967,260.842079199967,261.34310050000204,315,315,261.34310050000204,261.34310050000204,261.34310050000204,261.34310050000204,261.34310050000204,261.34310050000204,261.34310050000204,261.34310050000204,261.34310050000204,261.70963990001474,261.70963990001474,261.70963990001474,261.70963990001474,261.70963990001474,261.70963990001474,261.70963990001474,261.70963990001474,261.70963990001474,23,0,,,261.70963990001474,261.9116721000173,1000,261.9116721000173,1000,1000,1000,1000,1,num_2,2.0966198000242002,,24,5,2026-03-04_15h34.17.693,2026A_exp2,2022.2.4,59.89437028609828,
1000,1,0.0,0.0,0,0,76,76,72,,,,,264.02900229999796,264.679301999975,264.679301999975,265.1801440999843,45,315,265.1801440999843,265.1801440999843,265.1801440999843,265.1801440999843,265.1801440999843,265.1801440999843,265.1801440999843,265.1801440999843,265.1801440999843,265.5467421999783,265.5467421999783,265.5467421999783,265.5467421999783,265.5467421999783,265.5467421999783,265.5467421999783,265.5467421999783,265.5467421999783,23,0,,,265.5467421999783,265.7617769999779,1000,265.7617769999779,1000,1000,1000,1000,1,num_2,0.8621572999982163,,24,5,2026-03-04_15h34.17.693,2026A_exp2,2022.2.4,59.89437028609828,
0,0,3.7,0.0,0,0,77,77,18,,,,,266.64755170000717,267.29865459998837,267.29865459998837,267.7995496999938,45,315,267.7995496999938,267.7995496999938,267.7995496999938,267.7995496999938,267.7995496999938,267.7995496999938,267.7995496999938,267.7995496999938,267.7995496999938,268.16610109998146,268.16610109998146,268.16610109998146,268.16610109998146,268.16610109998146,268.16610109998146,268.16610109998146,268.16610109998146,268.16610109998146,23,0,,,268.16610109998146,268.366285600001,0.0,268.366285600001,0,0.0,0,1,1000,num_1,0.9136970999534242,,24,5,2026-03-04_15h34.17.693,2026A_exp2,2022.2.4,59.89437028609828,
0,0,3.7,0.0,1,0,78,78,1,,,,,269.30046729999594,269.95112849998986,269.95112849998986,270.4356670000125,45,315,270.4356670000125,270.4356670000125,270.4356670000125,270.4356670000125,270.4356670000125,270.4356670000125,270.4356670000125,270.4356670000125,270.4356670000125,270.8020451000193,270.8020451000193,270.8020451000193,270.8020451000193,270.8020451000193,270.8020451000193,270.8020451000193,270.8020451000193,270.8020451000193,23,0,,,270.8020451000193,271.0022580999648,3.7,271.0022580999648,1,3.7,1,1,1000,num_4,0.7743021000060253,,24,5,2026-03-04_15h34.17.693,2026A_exp2,2022.2.4,59.89437028609828,
1000,1,4.9,0.0,0,0,79,79,50,,,,,271.8028792999685,272.4537337999791,272.4537337999791,272.93798809999134,45,45,272.93798809999134,272.93798809999134,272.93798809999134,272.93798809999134,272.93798809999134,272.93798809999134,272.93798809999134,272.93798809999134,272.93798809999134,273.30466490000254,273.30466490000254,273.30466490000254,273.30466490000254,273.30466490000254,273.30466490000254,273.30466490000254,273.30466490000254,273.30466490000254,23,0,,,273.30466490000254,273.50487840001006,1000,273.50487840001006,1000,1000,1000,1000,0,num_3,0.8079098999733105,,24,5,2026-03-04_15h34.17.693,2026A_exp2,2022.2.4,59.89437028609828,
1000,1,0.0,6.1,1,0,80,80,13,,,,,274.33879369997885,274.98952449997887,274.98952449997887,275.490608699969,315,45,275.490608699969,275.490608699969,275.490608699969,275.490608699969,275.490608699969,275.490608699969,275.490608699969,275.490608699969,275.490608699969,275.85709449998103,275.85709449998103,275.85709449998103,275.85709449998103,275.85709449998103,275.85709449998103,275.85709449998103,275.85709449998103,275.85709449998103,23,0,,,275.85709449998103,276.05924769997364,1000,276.05924769997364,1000,1000,1000,1000,1,num_2,1.7970186999882571,,24,5,2026-03-04_15h34.17.693,2026A_exp2,2022.2.4,59.89437028609828,
1000,1,3.7,0.0,0,0,81,81,39,,,,,277.8755880999961,278.52648930001305,278.52648930001305,279.0274182999856,45,315,279.0274182999856,279.0274182999856,279.0274182999856,279.0274182999856,279.0274182999856,279.0274182999856,279.0274182999856,279.0274182999856,279.0274182999856,279.3939873999916,279.3939873999916,279.3939873999916,279.3939873999916,279.3939873999916,279.3939873999916,279.3939873999916,279.3939873999916,279.3939873999916,23,0,,,279.3939873999916,279.59620909998193,1000,279.59620909998193,1000,1000,1000,1000,0,num_3,0.4930331000359729,,24,5,2026-03-04_15h34.17.693,2026A_exp2,2022.2.4,59.89437028609828,
1000,1,0.0,0.0,1,0,82,82,3,,,,,280.1114819999784,280.761880200007,280.761880200007,281.2630082999822,315,45,281.2630082999822,281.2630082999822,281.2630082999822,281.2630082999822,281.2630082999822,281.2630082999822,281.2630082999822,281.2630082999822,281.2630082999822,281.6291298000142,281.6291298000142,281.6291298000142,281.6291298000142,281.6291298000142,281.6291298000142,281.6291298000142,281.6291298000142,281.6291298000142,23,0,,,281.6291298000142,281.83149549999507,1000,281.83149549999507,1000,1000,1000,1000,1,num_2,1.6322787000099197,,24,5,2026-03-04_15h34.17.693,2026A_exp2,2022.2.4,59.89437028609828,
1,0,0.0,6.1,1,0,83,83,46,,,,,283.48123959999066,284.13209279999137,284.13209279999137,284.6410842000041,45,315,284.6410842000041,284.6410842000041,284.6410842000041,284.6410842000041,284.6410842000041,284.6410842000041,284.6410842000041,284.6410842000041,284.6410842000041,284.999624899996,284.999624899996,284.999624899996,284.999624899996,284.999624899996,284.999624899996,284.999624899996,284.999624899996,284.999624899996,23,0,,,284.999624899996,285.1997193999705,6.1,285.1997193999705,1,6.1,1,1,1000,num_4,0.8734702999936417,,24,5,2026-03-04_15h34.17.693,2026A_exp2,2022.2.4,59.89437028609828,
1,0,6.1,6.1,1,0,84,84,47,,,,,286.1005449999939,286.75136130000465,286.75136130000465,287.2356006000191,315,315,287.2356006000191,287.2356006000191,287.2356006000191,287.2356006000191,287.2356006000191,287.2356006000191,287.2356006000191,287.2356006000191,287.2356006000191,287.6021449000109,287.6021449000109,287.6021449000109,287.6021449000109,287.6021449000109,287.6021449000109,287.6021449000109,287.6021449000109,287.6021449000109,23,0,,,287.6021449000109,287.8022894000169,6.1,287.8022894000169,1,6.1,1,1,1000,num_4,0.5663401000201702,,24,5,2026-03-04_15h34.17.693,2026A_exp2,2022.2.4,59.89437028609828,
1,0,0.0,0.0,1,0,85,85,38,,,,,288.38856769999256,289.04745259997435,289.04745259997435,289.53812450001715,315,45,289.53812450001715,289.53812450001715,289.53812450001715,289.53812450001715,289.53812450001715,289.53812450001715,289.53812450001715,289.53812450001715,289.53812450001715,289.90443900000537,289.90443900000537,289.90443900000537,289.90443900000537,289.90443900000537,289.90443900000537,289.90443900000537,289.90443900000537,289.90443900000537,23,0,,,289.90443900000537,290.10470169998007,0.0,290.10470169998007,1,0.0,0,0,1000,num_4,0.6243092000368051,,24,5,2026-03-04_15h34.17.693,2026A_exp2,2022.2.4,59.89437028609828,
1000,1,0.0,6.1,0,0,86,86,20,,,,,290.7552127999952,291.4058861999656,291.4058861999656,291.89029389998177,45,45,291.89029389998177,291.89029389998177,291.89029389998177,291.89029389998177,291.89029389998177,291.89029389998177,291.89029389998177,291.89029389998177,291.89029389998177,292.2568160999799,292.2568160999799,292.2568160999799,292.2568160999799,292.2568160999799,292.2568160999799,292.2568160999799,292.2568160999799,292.2568160999799,23,0,,,292.2568160999799,292.4590678999666,1000,292.4590678999666,1000,1000,1000,1000,1,num_2,1.3741403000312857,,24,5,2026-03-04_15h34.17.693,2026A_exp2,2022.2.4,59.89437028609828,
1,0,4.9,4.9,1,0,87,87,9,,,,,293.8582607000135,294.5090060000075,294.5090060000075,295.0103216000134,315,45,295.0103216000134,295.0103216000134,295.0103216000134,295.0103216000134,295.0103216000134,295.0103216000134,295.0103216000134,295.0103216000134,295.0103216000134,295.37661789997946,295.37661789997946,295.37661789997946,295.37661789997946,295.37661789997946,295.37661789997946,295.37661789997946,295.37661789997946,295.37661789997946,22,1,[0.05008610000368208],[0.06682320003164932],295.37661789997946,295.57680849998724,4.9,295.57680849998724,1,4.9,1,1,1000,num_4,0.7998735000146553,,24,5,2026-03-04_15h34.17.693,2026A_exp2,2022.2.4,59.89437028609828,
1,0,3.7,0.0,0,0,88,88,26,,,,,296.39416289998917,297.0449748999672,297.0449748999672,297.5292702000006,315,315,297.5292702000006,297.5292702000006,297.5292702000006,297.5292702000006,297.5292702000006,297.5292702000006,297.5292702000006,297.5292702000006,297.5292702000006,297.8956677999813,297.8956677999813,297.8956677999813,297.8956677999813,297.8956677999813,297.8956677999813,297.8956677999813,297.8956677999813,297.8956677999813,23,0,,,297.8956677999813,298.0958269999828,3.7,298.0958269999828,1,3.7,1,1,1000,num_4,0.6242948999861255,,24,5,2026-03-04_15h34.17.693,2026A_exp2,2022.2.4,59.89437028609828,
1000,1,0.0,4.9,0,0,89,89,8,,,,,298.7464327000198,299.39736060000723,299.39736060000723,299.8815808999934,45,45,299.8815808999934,299.8815808999934,299.8815808999934,299.8815808999934,299.8815808999934,299.8815808999934,299.8815808999934,299.8815808999934,299.8815808999934,300.2481319999788,300.2481319999788,300.2481319999788,300.2481319999788,300.2481319999788,300.2481319999788,300.2481319999788,300.2481319999788,300.2481319999788,23,0,,,300.2481319999788,300.4495055999723,1000,300.4495055999723,1000,1000,1000,1000,1,num_2,1.3990452000289224,,24,5,2026-03-04_15h34.17.693,2026A_exp2,2022.2.4,59.89437028609828,
,,,,,,,,,,,,,,,,,,,,,,,,,,,,,,,,,,,,,,,,,,,,,,,,,,,,301.8759699999937,,,,,,,
