validity,detectorcomp,contrastCW,contrastCCW,precueCWorCCW,block_80trials.thisRepN,block_80trials.thisTrialN,block_80trials.thisN,block_80trials.thisIndex,etRecord.started,etRecord.stopped,text.started,text.stopped,text_4.started,text_4.stopped,text_6.started,text_6.stopped,oriCW,oriCCW,roi_2.started,grating_UR.started,grating_UL.started,grating_LR.started,grating_LL.started,noise_UR.started,noise_UL.started,noise_LR.started,noise_LL.started,roi_2.stopped,grating_UR.stopped,grating_UL.stopped,grating_LR.stopped,grating_LL.stopped,noise_UR.stopped,noise_UL.stopped,noise_LR.stopped,noise_LL.stopped,outframe,roi_2.numLooks,roi_2.timesOn,roi_2.timesOff,text_2.started,text_2.stopped,probedcontrast,key_resp.started,respdetect,relevantContrast,correctDetect,TorFdetect,respCWorCCW,key_resp.keys,key_resp.rt,feedback_display_.started,participantNo,blockNo,date,expName,psychopyVersion,frameRate,
1,0,3.7,3.7,0,0,0,0,69,3.320001997053623e-05,3.320001997053623e-05,63.633187100000214,65.64079119998496,65.64079119998496,66.26985599996988,66.26985599996988,66.78783149999799,45,45,66.78783149999799,66.78783149999799,66.78783149999799,66.78783149999799,66.78783149999799,66.78783149999799,66.78783149999799,66.78783149999799,66.78783149999799,67.13732839998556,67.13732839998556,67.13732839998556,67.13732839998556,67.13732839998556,67.13732839998556,67.13732839998556,67.13732839998556,67.13732839998556,19,1,[0.0009148000390268862],[0.06722050003008917],67.13732839998556,67.33764320000773,3.7,67.33764320000773,0,3.7,1,0,1000,num_1,1.1498810999910347,,28,6,2026-03-05_15h51.26.812,2026A_exp2,2022.2.4,59.9359045440482,
0,0,6.1,0.0,0,0,1,1,65,,,,,68.50547580001876,69.15608649997739,69.15608649997739,69.65711039997404,315,45,69.65711039997404,69.65711039997404,69.65711039997404,69.65711039997404,69.65711039997404,69.65711039997404,69.65711039997404,69.65711039997404,69.65711039997404,70.02358999999706,70.02358999999706,70.02358999999706,70.02358999999706,70.02358999999706,70.02358999999706,70.02358999999706,70.02358999999706,70.02358999999706,1,1,[0.017405599995981902],[0.3671527999686077],70.02358999999706,70.22390139999334,0.0,70.22390139999334,1,0.0,0,0,1000,num_4,0.7918527000001632,,28,6,2026-03-05_15h51.26.812,2026A_exp2,2022.2.4,59.9359045440482,
1000,1,3.7,0.0,1,0,2,2,54,,,,,71.04124869999941,71.69177739997394,71.69177739997394,72.17640479997499,45,315,72.17640479997499,72.17640479997499,72.17640479997499,72.17640479997499,72.17640479997499,72.17640479997499,72.17640479997499,72.17640479997499,72.17640479997499,72.54286960000172,72.54286960000172,72.54286960000172,72.54286960000172,72.54286960000172,72.54286960000172,72.54286960000172,72.54286960000172,72.54286960000172,16,4,"[0.017508499964606017, 0.05015580001054332, 0.13373399997362867, 0.23348449997138232]","[0.03366159996949136, 0.08368420001352206, 0.16676839999854565, 0.2666263999999501]",72.54286960000172,72.74841130001005,1000,72.74841130001005,1000,1000,1000,1000,0,num_3,0.804339499969501,,28,6,2026-03-05_15h51.26.812,2026A_exp2,2022.2.4,59.9359045440482,
1,0,6.1,4.9,1,0,3,3,38,,,,,73.57715959998313,74.22788660001243,74.22788660001243,74.72897729999386,45,315,74.72897729999386,74.72897729999386,74.72897729999386,74.72897729999386,74.72897729999386,74.72897729999386,74.72897729999386,74.72897729999386,74.72897729999386,75.09535040002083,75.09535040002083,75.09535040002083,75.09535040002083,75.09535040002083,75.09535040002083,75.09535040002083,75.09535040002083,75.09535040002083,23,0,,,75.09535040002083,75.29564859997481,4.9,75.29564859997481,0,4.9,1,0,1000,num_1,0.7678046000073664,,28,6,2026-03-05_15h51.26.812,2026A_exp2,2022.2.4,59.9359045440482,
1000,1,0.0,0.0,1,0,4,4,80,,,,,76.0796219999902,76.73027770000044,76.73027770000044,77.21469190000789,315,45,77.21469190000789,77.21469190000789,77.21469190000789,77.21469190000789,77.21469190000789,77.21469190000789,77.21469190000789,77.21469190000789,77.21469190000789,77.58117600000696,77.58117600000696,77.58117600000696,77.58117600000696,77.58117600000696,77.58117600000696,77.58117600000696,77.58117600000696,77.58117600000696,23,0,,,77.58117600000696,77.78345609997632,1000,77.78345609997632,1000,1000,1000,1000,0,num_3,0.5281104000168853,,28,6,2026-03-05_15h51.26.812,2026A_exp2,2022.2.4,59.9359045440482,
1,0,3.7,0.0,1,0,5,5,55,,,,,78.33186729997396,78.98254860000452,78.98254860000452,79.48377049999544,315,45,79.48377049999544,79.48377049999544,79.48377049999544,79.48377049999544,79.48377049999544,79.48377049999544,79.48377049999544,79.48377049999544,79.48377049999544,79.85015120002208,79.85015120002208,79.85015120002208,79.85015120002208,79.85015120002208,79.85015120002208,79.85015120002208,79.85015120002208,79.85015120002208,23,0,,,79.85015120002208,80.05039099999703,0.0,80.05039099999703,1,0.0,0,0,1000,num_4,0.4858401999808848,,28,6,2026-03-05_15h51.26.812,2026A_exp2,2022.2.4,59.9359045440482,
1,0,0.0,3.7,0,0,6,6,34,,,,,80.5675175000215,81.21813669998664,81.21813669998664,81.70241889997851,315,45,81.70241889997851,81.70241889997851,81.70241889997851,81.70241889997851,81.70241889997851,81.70241889997851,81.70241889997851,81.70241889997851,81.70241889997851,82.06906589999562,82.06906589999562,82.06906589999562,82.06906589999562,82.06906589999562,82.06906589999562,82.06906589999562,82.06906589999562,82.06906589999562,23,0,,,82.06906589999562,82.26915010000812,0.0,82.26915010000812,0,0.0,0,1,1000,num_1,0.507250800030306,,28,6,2026-03-05_15h51.26.812,2026A_exp2,2022.2.4,59.9359045440482,
1,0,4.9,0.0,0,0,7,7,57,,,,,82.80291640001815,83.45374149997951,83.45374149997951,83.93822020001244,45,315,83.93822020001244,83.93822020001244,83.93822020001244,83.93822020001244,83.93822020001244,83.93822020001244,83.93822020001244,83.93822020001244,83.93822020001244,84.30451559997164,84.30451559997164,84.30451559997164,84.30451559997164,84.30451559997164,84.30451559997164,84.30451559997164,84.30451559997164,84.30451559997164,23,0,,,84.30451559997164,84.50463889999082,4.9,84.50463889999082,1,4.9,1,1,1000,num_4,0.9518151999800466,,28,6,2026-03-05_15h51.26.812,2026A_exp2,2022.2.4,59.9359045440482,
1,0,4.9,0.0,0,0,8,8,47,,,,,85.47229319997132,86.12289619998774,86.12289619998774,86.62414460000582,45,45,86.62414460000582,86.62414460000582,86.62414460000582,86.62414460000582,86.62414460000582,86.62414460000582,86.62414460000582,86.62414460000582,86.62414460000582,86.99054179998348,86.99054179998348,86.99054179998348,86.99054179998348,86.99054179998348,86.99054179998348,86.99054179998348,86.99054179998348,86.99054179998348,23,0,,,86.99054179998348,87.19085850002011,4.9,87.19085850002011,0,4.9,1,0,1000,num_1,0.36878810002235696,,28,6,2026-03-05_15h51.26.812,2026A_exp2,2022.2.4,59.9359045440482,
0,0,0.0,6.1,1,0,9,9,84,,,,,87.59113199997228,88.24176689999877,88.24176689999877,88.72616369999014,315,315,88.72616369999014,88.72616369999014,88.72616369999014,88.72616369999014,88.72616369999014,88.72616369999014,88.72616369999014,88.72616369999014,88.72616369999014,89.09226349997334,89.09226349997334,89.09226349997334,89.09226349997334,89.09226349997334,89.09226349997334,89.09226349997334,89.09226349997334,89.09226349997334,23,0,,,89.09226349997334,89.2928650000249,0.0,89.2928650000249,0,0.0,0,1,1000,num_1,1.0116726999985985,,28,6,2026-03-05_15h51.26.812,2026A_exp2,2022.2.4,59.9359045440482,
1,0,6.1,0.0,1,0,10,10,29,,,,,90.32715590001317,90.97782789997291,90.97782789997291,91.47905600001104,45,45,91.47905600001104,91.47905600001104,91.47905600001104,91.47905600001104,91.47905600001104,91.47905600001104,91.47905600001104,91.47905600001104,91.47905600001104,91.84549759997753,91.84549759997753,91.84549759997753,91.84549759997753,91.84549759997753,91.84549759997753,91.84549759997753,91.84549759997753,91.84549759997753,23,0,,,91.84549759997753,92.0457449000096,0.0,92.0457449000096,1,0.0,0,0,1000,num_4,0.4029789000051096,,28,6,2026-03-05_15h51.26.812,2026A_exp2,2022.2.4,59.9359045440482,
1,0,0.0,0.0,0,0,11,11,64,,,,,92.47949910000898,93.12997429998359,93.12997429998359,93.61443770001642,45,45,93.61443770001642,93.61443770001642,93.61443770001642,93.61443770001642,93.61443770001642,93.61443770001642,93.61443770001642,93.61443770001642,93.61443770001642,93.9808169999742,93.9808169999742,93.9808169999742,93.9808169999742,93.9808169999742,93.9808169999742,93.9808169999742,93.9808169999742,93.9808169999742,23,0,,,93.9808169999742,94.18115319998469,0.0,94.18115319998469,0,0.0,0,1,1000,num_1,0.2032982999808155,,28,6,2026-03-05_15h51.26.812,2026A_exp2,2022.2.4,59.9359045440482,
1000,1,4.9,3.7,1,0,12,12,46,,,,,94.41458209999837,95.06539659999544,95.06539659999544,95.54978349996964,45,45,95.54978349996964,95.54978349996964,95.54978349996964,95.54978349996964,95.54978349996964,95.54978349996964,95.54978349996964,95.54978349996964,95.54978349996964,95.91622720001033,95.91622720001033,95.91622720001033,95.91622720001033,95.91622720001033,95.91622720001033,95.91622720001033,95.91622720001033,95.91622720001033,23,0,,,95.91622720001033,96.11807859997498,1000,96.11807859997498,1000,1000,1000,1000,0,num_3,0.569891799998004,,28,6,2026-03-05_15h51.26.812,2026A_exp2,2022.2.4,59.9359045440482,
1000,1,4.9,0.0,0,0,13,13,82,,,,,96.71688530000392,97.36760110000614,97.36760110000614,97.86866370000644,45,315,97.86866370000644,97.86866370000644,97.86866370000644,97.86866370000644,97.86866370000644,97.86866370000644,97.86866370000644,97.86866370000644,97.86866370000644,98.21854490000987,98.21854490000987,98.21854490000987,98.21854490000987,98.21854490000987,98.21854490000987,98.21854490000987,98.21854490000987,98.21854490000987,22,0,,,98.21854490000987,98.41980789997615,1000,98.4354883999913,1000,1000,1000,1000,0,num_3,0.5480373000027612,,28,6,2026-03-05_15h51.26.812,2026A_exp2,2022.2.4,59.9359045440482,
1000,1,4.9,4.9,1,0,14,14,67,,,,,99.00284939998528,99.65331480000168,99.65331480000168,100.13760319998255,315,315,100.13760319998255,100.13760319998255,100.13760319998255,100.13760319998255,100.13760319998255,100.13760319998255,100.13760319998255,100.13760319998255,100.13760319998255,100.50419150001835,100.50419150001835,100.50419150001835,100.50419150001835,100.50419150001835,100.50419150001835,100.50419150001835,100.50419150001835,100.50419150001835,23,0,,,100.50419150001835,100.70615510002244,1000,100.70615510002244,1000,1000,1000,1000,1,num_2,0.6055188999744132,,28,6,2026-03-05_15h51.26.812,2026A_exp2,2022.2.4,59.9359045440482,
1,0,4.9,0.0,0,0,15,15,19,,,,,101.33834179997211,101.98882109997794,101.98882109997794,102.48996819998138,315,45,102.48996819998138,102.48996819998138,102.48996819998138,102.48996819998138,102.48996819998138,102.48996819998138,102.48996819998138,102.48996819998138,102.48996819998138,102.85634699999355,102.85634699999355,102.85634699999355,102.85634699999355,102.85634699999355,102.85634699999355,102.85634699999355,102.85634699999355,102.85634699999355,23,0,,,102.85634699999355,103.05643970001256,4.9,103.05643970001256,1,4.9,1,1,1000,num_4,0.6157423999975435,,28,6,2026-03-05_15h51.26.812,2026A_exp2,2022.2.4,59.9359045440482,
1000,1,0.0,0.0,1,0,16,16,63,,,,,103.69047729996964,104.34130369999912,104.34130369999912,104.82558499998413,315,315,104.82558499998413,104.82558499998413,104.82558499998413,104.82558499998413,104.82558499998413,104.82558499998413,104.82558499998413,104.82558499998413,104.82558499998413,105.19196450000163,105.19196450000163,105.19196450000163,105.19196450000163,105.19196450000163,105.19196450000163,105.19196450000163,105.19196450000163,105.19196450000163,23,0,,,105.19196450000163,105.3945296999882,1000,105.3945296999882,1000,1000,1000,1000,0,num_3,0.5020309999817982,,28,6,2026-03-05_15h51.26.812,2026A_exp2,2022.2.4,59.9359045440482,
1,0,3.7,6.1,0,0,17,17,74,,,,,105.92618040001253,106.57693699997617,106.57693699997617,107.07796849997249,45,45,107.07796849997249,107.07796849997249,107.07796849997249,107.07796849997249,107.07796849997249,107.07796849997249,107.07796849997249,107.07796849997249,107.07796849997249,107.44439189997502,107.44439189997502,107.44439189997502,107.44439189997502,107.44439189997502,107.44439189997502,107.44439189997502,107.44439189997502,107.44439189997502,23,0,,,107.44439189997502,107.6444482000079,3.7,107.6444482000079,0,3.7,1,0,1000,num_1,0.5157446999801323,,28,6,2026-03-05_15h51.26.812,2026A_exp2,2022.2.4,59.9359045440482,
1,0,0.0,0.0,1,0,18,18,66,,,,,108.17830979998689,108.82909949996974,108.82909949996974,109.31354459997965,315,315,109.31354459997965,109.31354459997965,109.31354459997965,109.31354459997965,109.31354459997965,109.31354459997965,109.31354459997965,109.31354459997965,109.31354459997965,109.67974779999349,109.67974779999349,109.67974779999349,109.67974779999349,109.67974779999349,109.67974779999349,109.67974779999349,109.67974779999349,109.67974779999349,23,0,,,109.67974779999349,109.88020910002524,0.0,109.88020910002524,1,0.0,0,0,1000,num_4,0.4085372000117786,,28,6,2026-03-05_15h51.26.812,2026A_exp2,2022.2.4,59.9359045440482,
1,0,6.1,0.0,0,0,19,19,58,,,,,110.31382370000938,110.96464680001372,110.96464680001372,111.4488352999906,315,45,111.4488352999906,111.4488352999906,111.4488352999906,111.4488352999906,111.4488352999906,111.4488352999906,111.4488352999906,111.4488352999906,111.4488352999906,111.81541719997767,111.81541719997767,111.81541719997767,111.81541719997767,111.81541719997767,111.81541719997767,111.81541719997767,111.81541719997767,111.81541719997767,23,0,,,111.81541719997767,112.01556450000498,6.1,112.01556450000498,0,6.1,1,0,1000,num_1,0.7601760999532416,,28,6,2026-03-05_15h51.26.812,2026A_exp2,2022.2.4,59.9359045440482,
1,0,3.7,4.9,0,0,20,20,70,,,,,112.79977990000043,113.45038769999519,113.45038769999519,113.95150439999998,45,315,113.95150439999998,113.95150439999998,113.95150439999998,113.95150439999998,113.95150439999998,113.95150439999998,113.95150439999998,113.95150439999998,113.95150439999998,114.30108900001505,114.30108900001505,114.30108900001505,114.30108900001505,114.30108900001505,114.30108900001505,114.30108900001505,114.30108900001505,114.30108900001505,22,0,,,114.30108900001505,114.50132859998848,3.7,114.51811780000571,1,3.7,1,1,1000,num_4,0.530428700032644,,28,6,2026-03-05_15h51.26.812,2026A_exp2,2022.2.4,59.9359045440482,
1000,1,4.9,6.1,0,0,21,21,49,,,,,115.06872869998915,115.71933180000633,115.71933180000633,,45,315,116.22370799997589,116.22370799997589,116.22370799997589,116.22370799997589,116.22370799997589,116.22370799997589,116.22370799997589,116.22370799997589,116.22370799997589,116.57009370002197,116.57009370002197,116.57009370002197,116.57009370002197,116.57009370002197,116.57009370002197,116.57009370002197,116.57009370002197,116.57009370002197,22,0,,,116.57009370002197,116.77228699997067,1000,116.77228699997067,1000,1000,1000,1000,0,num_3,0.5727601000107825,,28,6,2026-03-05_15h51.26.812,2026A_exp2,2022.2.4,59.9359045440482,
1,0,3.7,0.0,0,0,22,22,15,,,,,117.3710230999859,118.02162140002474,118.02162140002474,118.52272329997504,45,315,118.52272329997504,118.52272329997504,118.52272329997504,118.52272329997504,118.52272329997504,118.52272329997504,118.52272329997504,118.52272329997504,118.52272329997504,118.88917719997698,118.88917719997698,118.88917719997698,118.88917719997698,118.88917719997698,118.88917719997698,118.88917719997698,118.88917719997698,118.88917719997698,23,0,,,118.88917719997698,119.08925909997197,3.7,119.08925909997197,0,3.7,1,0,1000,num_1,0.5744804000132717,,28,6,2026-03-05_15h51.26.812,2026A_exp2,2022.2.4,59.9359045440482,
1000,1,0.0,0.0,1,0,23,23,78,,,,,119.689920099976,120.3448699999717,120.3448699999717,120.82506260002265,45,45,120.82506260002265,120.82506260002265,120.82506260002265,120.82506260002265,120.82506260002265,120.82506260002265,120.82506260002265,120.82506260002265,120.82506260002265,121.19148510001833,121.19148510001833,121.19148510001833,121.19148510001833,121.19148510001833,121.19148510001833,121.19148510001833,121.19148510001833,121.19148510001833,23,0,,,121.19148510001833,121.39338610001141,1000,121.39338610001141,1000,1000,1000,1000,1,num_2,0.5826806999975815,,28,6,2026-03-05_15h51.26.812,2026A_exp2,2022.2.4,59.9359045440482,
1000,1,0.0,6.1,1,0,24,24,40,,,,,121.99235939997016,122.6429031000007,122.6429031000007,123.1440336999949,315,315,123.1440336999949,123.1440336999949,123.1440336999949,123.1440336999949,123.1440336999949,123.1440336999949,123.1440336999949,123.1440336999949,123.1440336999949,123.51026920002187,123.51026920002187,123.51026920002187,123.51026920002187,123.51026920002187,123.51026920002187,123.51026920002187,123.51026920002187,123.51026920002187,23,0,,,123.51026920002187,123.71240199997555,1000,123.71240199997555,1000,1000,1000,1000,0,num_3,0.6243220000178553,,28,6,2026-03-05_15h51.26.812,2026A_exp2,2022.2.4,59.9359045440482,
1,0,3.7,0.0,1,0,25,25,73,,,,,124.36121270002332,125.01193949999288,125.01193949999288,125.51300650002668,315,45,125.51300650002668,125.51300650002668,125.51300650002668,125.51300650002668,125.51300650002668,125.51300650002668,125.51300650002668,125.51300650002668,125.51300650002668,125.87946179998107,125.87946179998107,125.87946179998107,125.87946179998107,125.87946179998107,125.87946179998107,125.87946179998107,125.87946179998107,125.87946179998107,23,0,,,125.87946179998107,126.07961640000576,0.0,126.07961640000576,0,0.0,0,1,1000,num_1,0.4158657999942079,,28,6,2026-03-05_15h51.26.812,2026A_exp2,2022.2.4,59.9359045440482,
1,0,6.1,0.0,1,0,26,26,53,,,,,126.5135019000154,127.16411209997023,127.16411209997023,127.64862450002693,45,45,127.64862450002693,127.64862450002693,127.64862450002693,127.64862450002693,127.64862450002693,127.64862450002693,127.64862450002693,127.64862450002693,127.64862450002693,128.015241599991,128.015241599991,128.015241599991,128.015241599991,128.015241599991,128.015241599991,128.015241599991,128.015241599991,128.015241599991,23,0,,,128.015241599991,128.2150537999696,0.0,128.2150537999696,0,0.0,0,1,1000,num_1,0.43339239998022094,,28,6,2026-03-05_15h51.26.812,2026A_exp2,2022.2.4,59.9359045440482,
1000,1,4.9,6.1,0,0,27,27,59,,,,,128.6656269999803,129.31621720001567,129.31621720001567,129.80070869997144,315,315,129.80070869997144,129.80070869997144,129.80070869997144,129.80070869997144,129.80070869997144,129.80070869997144,129.80070869997144,129.80070869997144,129.80070869997144,130.1670697000227,130.1670697000227,130.1670697000227,130.1670697000227,130.1670697000227,130.1670697000227,130.1670697000227,130.1670697000227,130.1670697000227,23,0,,,130.1670697000227,130.36893689999124,1000,130.36893689999124,1000,1000,1000,1000,0,num_3,1.0787862000288442,,28,6,2026-03-05_15h51.26.812,2026A_exp2,2022.2.4,59.9359045440482,
1000,1,3.7,0.0,0,0,28,28,28,,,,,131.46849780000048,132.1240734999883,132.1240734999883,132.62023070000578,315,315,132.62023070000578,132.62023070000578,132.62023070000578,132.62023070000578,132.62023070000578,132.62023070000578,132.62023070000578,132.62023070000578,132.62023070000578,132.9866142999963,132.9866142999963,132.9866142999963,132.9866142999963,132.9866142999963,132.9866142999963,132.9866142999963,132.9866142999963,132.9866142999963,0,1,[0.001188900030683726],[0.3672095999936573],132.9866142999963,133.18878179998137,1000,133.18878179998137,1000,1000,1000,1000,1,num_2,0.6987543999566697,,28,6,2026-03-05_15h51.26.812,2026A_exp2,2022.2.4,59.9359045440482,
1000,1,0.0,3.7,1,0,29,29,7,,,,,133.90425640001195,134.5549121000222,134.5549121000222,135.05581669998355,45,315,135.05581669998355,135.05581669998355,135.05581669998355,135.05581669998355,135.05581669998355,135.05581669998355,135.05581669998355,135.05581669998355,135.05581669998355,135.42231990001164,135.42231990001164,135.42231990001164,135.42231990001164,135.42231990001164,135.42231990001164,135.42231990001164,135.42231990001164,135.42231990001164,15,4,"[0.0012451999937184155, 0.08351369999581948, 0.2032284999731928, 0.2841705000028014]","[0.049923499987926334, 0.10041799995815381, 0.2180295999860391, 0.33406009996542707]",135.42231990001164,135.62418909999542,1000,135.62418909999542,1000,1000,1000,1000,1,num_2,0.6556355999782681,,28,6,2026-03-05_15h51.26.812,2026A_exp2,2022.2.4,59.9359045440482,
1,0,0.0,0.0,1,0,30,30,77,,,,,136.30659519997425,136.95719039998949,136.95719039998949,137.4582113000215,315,45,137.4582113000215,137.4582113000215,137.4582113000215,137.4582113000215,137.4582113000215,137.4582113000215,137.4582113000215,137.4582113000215,137.4582113000215,137.82476559997303,137.82476559997303,137.82476559997303,137.82476559997303,137.82476559997303,137.82476559997303,137.82476559997303,137.82476559997303,137.82476559997303,23,0,,,137.82476559997303,138.02484440000262,0.0,138.02484440000262,1,0.0,0,0,1000,num_4,0.8148163000005297,,28,6,2026-03-05_15h51.26.812,2026A_exp2,2022.2.4,59.9359045440482,
1000,1,0.0,6.1,0,0,31,31,85,,,,,138.8591731999768,139.50993449997623,139.50993449997623,140.01093669998227,315,45,140.01093669998227,140.01093669998227,140.01093669998227,140.01093669998227,140.01093669998227,140.01093669998227,140.01093669998227,140.01093669998227,140.01093669998227,140.36066100001335,140.36066100001335,140.36066100001335,140.36066100001335,140.36066100001335,140.36066100001335,140.36066100001335,140.36066100001335,140.36066100001335,22,0,,,140.36066100001335,140.56293040001765,1000,140.56293040001765,1000,1000,1000,1000,0,num_3,0.7168460999964736,,28,6,2026-03-05_15h51.26.812,2026A_exp2,2022.2.4,59.9359045440482,
1,0,0.0,4.9,1,0,32,32,2,,,,,141.29488790000323,141.94548880000366,141.94548880000366,142.446728800016,315,315,142.446728800016,142.446728800016,142.446728800016,142.446728800016,142.446728800016,142.446728800016,142.446728800016,142.446728800016,142.446728800016,142.81288380001206,142.81288380001206,142.81288380001206,142.81288380001206,142.81288380001206,142.81288380001206,142.81288380001206,142.81288380001206,142.81288380001206,0,1,[0.0011944999569095671],[0.36718000000109896],142.81288380001206,143.0130900000222,4.9,143.0130900000222,1,4.9,1,1,1000,num_4,0.338563300028909,,28,6,2026-03-05_15h51.26.812,2026A_exp2,2022.2.4,59.9359045440482,
0,0,0.0,6.1,0,0,33,33,30,,,,,143.38034570001764,144.03105220000725,144.03105220000725,144.51543319999473,45,315,144.51543319999473,144.51543319999473,144.51543319999473,144.51543319999473,144.51543319999473,144.51543319999473,144.51543319999473,144.51543319999473,144.51543319999473,144.88163429999258,144.88163429999258,144.88163429999258,144.88163429999258,144.88163429999258,144.88163429999258,144.88163429999258,144.88163429999258,144.88163429999258,23,0,,,144.88163429999258,145.08200990001205,6.1,145.08200990001205,0,6.1,1,0,1000,num_1,0.5269911999930628,,28,6,2026-03-05_15h51.26.812,2026A_exp2,2022.2.4,59.9359045440482,
1,0,0.0,0.0,0,0,34,34,75,,,,,145.63263930001995,146.28315899998415,146.28315899998415,146.78429490001872,315,315,146.78429490001872,146.78429490001872,146.78429490001872,146.78429490001872,146.78429490001872,146.78429490001872,146.78429490001872,146.78429490001872,146.78429490001872,147.13394889998017,147.13394889998017,147.13394889998017,147.13394889998017,147.13394889998017,147.13394889998017,147.13394889998017,147.13394889998017,147.13394889998017,22,0,,,147.13394889998017,147.3482539000106,0.0,147.3482539000106,1,0.0,0,0,1000,num_4,0.6359903999837115,,28,6,2026-03-05_15h51.26.812,2026A_exp2,2022.2.4,59.9359045440482,
1,0,4.9,0.0,1,0,35,35,52,,,,,148.00160710001364,148.65221809997456,148.65221809997456,149.13672740000766,45,315,149.13672740000766,149.13672740000766,149.13672740000766,149.13672740000766,149.13672740000766,149.13672740000766,149.13672740000766,149.13672740000766,149.13672740000766,149.5194517999771,149.5194517999771,149.5194517999771,149.5194517999771,149.5194517999771,149.5194517999771,149.5194517999771,149.5194517999771,149.5194517999771,24,0,,,149.5194517999771,149.71983780001756,0.0,149.71983780001756,1,0.0,0,0,1000,num_4,0.760232399974484,,28,6,2026-03-05_15h51.26.812,2026A_exp2,2022.2.4,59.9359045440482,
1000,1,6.1,0.0,1,0,36,36,61,,,,,150.50416020001285,151.15493389999028,151.15493389999028,151.65571560000535,45,315,151.65571560000535,151.65571560000535,151.65571560000535,151.65571560000535,151.65571560000535,151.65571560000535,151.65571560000535,151.65571560000535,151.65571560000535,152.00561089999974,152.00561089999974,152.00561089999974,152.00561089999974,152.00561089999974,152.00561089999974,152.00561089999974,152.00561089999974,152.00561089999974,22,0,,,152.00561089999974,152.20786929997848,1000,152.20786929997848,1000,1000,1000,1000,1,num_2,0.5521325999870896,,28,6,2026-03-05_15h51.26.812,2026A_exp2,2022.2.4,59.9359045440482,
1,0,6.1,0.0,1,0,37,37,23,,,,,152.78976329998113,153.44030289998045,153.44030289998045,153.94148580002366,45,315,153.94148580002366,153.94148580002366,153.94148580002366,153.94148580002366,153.94148580002366,153.94148580002366,153.94148580002366,153.94148580002366,153.94148580002366,154.3079674000037,154.3079674000037,154.3079674000037,154.3079674000037,154.3079674000037,154.3079674000037,154.3079674000037,154.3079674000037,154.3079674000037,23,0,,,154.3079674000037,154.50823430001037,0.0,154.50823430001037,1,0.0,0,0,1000,num_4,0.7720565000199713,,28,6,2026-03-05_15h51.26.812,2026A_exp2,2022.2.4,59.9359045440482,
1,0,0.0,0.0,1,0,38,38,42,,,,,155.30900700000348,155.94498899998143,155.94498899998143,156.44392099999823,315,315,156.44392099999823,156.44392099999823,156.44392099999823,156.44392099999823,156.44392099999823,156.44392099999823,156.44392099999823,156.44392099999823,156.44392099999823,156.81044219998876,156.81044219998876,156.81044219998876,156.81044219998876,156.81044219998876,156.81044219998876,156.81044219998876,156.81044219998876,156.81044219998876,23,0,,,156.81044219998876,157.01055150001775,0.0,157.01055150001775,1,0.0,0,0,1000,num_4,0.6051678999792784,,28,6,2026-03-05_15h51.26.812,2026A_exp2,2022.2.4,59.9359045440482,
0,0,4.9,4.9,0,0,39,39,88,,,,,157.64463669998804,158.29523500002688,158.29523500002688,158.7796697000158,315,315,158.7796697000158,158.7796697000158,158.7796697000158,158.7796697000158,158.7796697000158,158.7796697000158,158.7796697000158,158.7796697000158,158.7796697000158,159.14587329997448,159.14587329997448,159.14587329997448,159.14587329997448,159.14587329997448,159.14587329997448,159.14587329997448,159.14587329997448,159.14587329997448,23,0,,,159.14587329997448,159.34733660001075,4.9,159.34733660001075,1,4.9,1,1,1000,num_4,0.4449441999895498,,28,6,2026-03-05_15h51.26.812,2026A_exp2,2022.2.4,59.9359045440482,
1000,1,0.0,3.7,1,0,40,40,81,,,,,159.81296529999236,160.44693769997684,160.44693769997684,160.94809570000507,315,45,160.94809570000507,160.94809570000507,160.94809570000507,160.94809570000507,160.94809570000507,160.94809570000507,160.94809570000507,160.94809570000507,160.94809570000507,161.31445419997908,161.31445419997908,161.31445419997908,161.31445419997908,161.31445419997908,161.31445419997908,161.31445419997908,161.31445419997908,161.31445419997908,23,0,,,161.31445419997908,161.51485310000135,1000,161.51485310000135,1000,1000,1000,1000,0,num_3,0.6299746999866329,,28,6,2026-03-05_15h51.26.812,2026A_exp2,2022.2.4,59.9359045440482,
1000,1,3.7,3.7,0,0,41,41,76,,,,,162.16578889999073,162.81811140000354,162.81811140000354,163.31755360000534,45,315,163.31755360000534,163.31755360000534,163.31755360000534,163.31755360000534,163.31755360000534,163.31755360000534,163.31755360000534,163.31755360000534,163.31755360000534,163.6839684000006,163.6839684000006,163.6839684000006,163.6839684000006,163.6839684000006,163.6839684000006,163.6839684000006,163.6839684000006,163.6839684000006,23,0,,,163.6839684000006,163.88582399999723,1000,163.88582399999723,1000,1000,1000,1000,0,num_3,0.4738575999508612,,28,6,2026-03-05_15h51.26.812,2026A_exp2,2022.2.4,59.9359045440482,
1000,1,0.0,3.7,0,0,42,42,21,,,,,164.38475949998247,165.03529329999583,165.03529329999583,165.53640089998953,45,45,165.53640089998953,165.53640089998953,165.53640089998953,165.53640089998953,165.53640089998953,165.53640089998953,165.53640089998953,165.53640089998953,165.53640089998953,165.90298209997127,165.90298209997127,165.90298209997127,165.90298209997127,165.90298209997127,165.90298209997127,165.90298209997127,165.90298209997127,165.90298209997127,23,0,,,165.90298209997127,166.10486780002248,1000,166.10486780002248,1000,1000,1000,1000,1,num_2,0.4874676000326872,,28,6,2026-03-05_15h51.26.812,2026A_exp2,2022.2.4,59.9359045440482,
1,0,0.0,6.1,0,0,43,43,3,,,,,166.62037700001383,167.27090319996933,167.27090319996933,167.77193649997935,45,315,167.77193649997935,167.77193649997935,167.77193649997935,167.77193649997935,167.77193649997935,167.77193649997935,167.77193649997935,167.77193649997935,167.77193649997935,168.13829149998492,168.13829149998492,168.13829149998492,168.13829149998492,168.13829149998492,168.13829149998492,168.13829149998492,168.13829149998492,168.13829149998492,23,0,,,168.13829149998492,168.33857750002062,0.0,168.33857750002062,1,0.0,0,0,1000,num_4,0.6370781000005081,,28,6,2026-03-05_15h51.26.812,2026A_exp2,2022.2.4,59.9359045440482,
1,0,0.0,0.0,1,0,44,44,56,,,,,169.00590200000443,169.65629700000864,169.65629700000864,170.14091110002482,45,45,170.14091110002482,170.14091110002482,170.14091110002482,170.14091110002482,170.14091110002482,170.14091110002482,170.14091110002482,170.14091110002482,170.14091110002482,170.50738159997854,170.50738159997854,170.50738159997854,170.50738159997854,170.50738159997854,170.50738159997854,170.50738159997854,170.50738159997854,170.50738159997854,23,0,,,170.50738159997854,170.70768460002728,0.0,170.70768460002728,1,0.0,0,0,1000,num_4,0.8206204000161961,,28,6,2026-03-05_15h51.26.812,2026A_exp2,2022.2.4,59.9359045440482,
1,0,0.0,0.0,0,0,45,45,31,,,,,171.55848080001306,172.20911900000647,172.20911900000647,172.69359390001046,45,315,172.69359390001046,172.69359390001046,172.69359390001046,172.69359390001046,172.69359390001046,172.69359390001046,172.69359390001046,172.69359390001046,172.69359390001046,173.05996749998303,173.05996749998303,173.05996749998303,173.05996749998303,173.05996749998303,173.05996749998303,173.05996749998303,173.05996749998303,173.05996749998303,23,0,,,173.05996749998303,173.26019270002143,0.0,173.26019270002143,1,0.0,0,0,1000,num_4,0.5074793000239879,,28,6,2026-03-05_15h51.26.812,2026A_exp2,2022.2.4,59.9359045440482,
1000,1,0.0,0.0,0,0,46,46,33,,,,,173.7940179000143,174.4446859000018,174.4446859000018,174.94588489999296,315,45,174.94588489999296,174.94588489999296,174.94588489999296,174.94588489999296,174.94588489999296,174.94588489999296,174.94588489999296,174.94588489999296,174.94588489999296,175.2955788000254,175.2955788000254,175.2955788000254,175.2955788000254,175.2955788000254,175.2955788000254,175.2955788000254,175.2955788000254,175.2955788000254,22,0,,,175.2955788000254,175.4959279000177,1000,175.4959279000177,1000,1000,1000,1000,0,num_3,0.6882306999759749,,28,6,2026-03-05_15h51.26.812,2026A_exp2,2022.2.4,59.9359045440482,
1000,1,0.0,4.9,1,0,47,47,51,,,,,176.21327289997134,176.86371429997962,176.86371429997962,177.36493310000515,315,315,177.36493310000515,177.36493310000515,177.36493310000515,177.36493310000515,177.36493310000515,177.36493310000515,177.36493310000515,177.36493310000515,177.36493310000515,177.73138419998577,177.73138419998577,177.73138419998577,177.73138419998577,177.73138419998577,177.73138419998577,177.73138419998577,177.73138419998577,177.73138419998577,23,0,,,177.73138419998577,177.93363510002382,1000,177.93363510002382,1000,1000,1000,1000,1,num_2,0.8666331999702379,,28,6,2026-03-05_15h51.26.812,2026A_exp2,2022.2.4,59.9359045440482,
1000,1,0.0,0.0,1,0,48,48,37,,,,,178.8158655000152,179.46626900002593,179.46626900002593,179.96755070000654,45,45,179.96755070000654,179.96755070000654,179.96755070000654,179.96755070000654,179.96755070000654,179.96755070000654,179.96755070000654,179.96755070000654,179.96755070000654,180.33382020000136,180.33382020000136,180.33382020000136,180.33382020000136,180.33382020000136,180.33382020000136,180.33382020000136,180.33382020000136,180.33382020000136,23,0,,,180.33382020000136,180.53623289999086,1000,180.53623289999086,1000,1000,1000,1000,1,num_2,0.5998975999536924,,28,6,2026-03-05_15h51.26.812,2026A_exp2,2022.2.4,59.9359045440482,
1,0,3.7,3.7,1,0,49,49,11,,,,,181.15179949998856,181.80213780002668,181.80213780002668,182.30325479997555,45,45,182.30325479997555,182.30325479997555,182.30325479997555,182.30325479997555,182.30325479997555,182.30325479997555,182.30325479997555,182.30325479997555,182.30325479997555,182.669544400007,182.669544400007,182.669544400007,182.669544400007,182.669544400007,182.669544400007,182.669544400007,182.669544400007,182.669544400007,23,0,,,182.669544400007,182.86979249998694,3.7,182.86979249998694,1,3.7,1,1,1000,num_4,0.6661160999792628,,28,6,2026-03-05_15h51.26.812,2026A_exp2,2022.2.4,59.9359045440482,
1,0,4.9,4.9,1,0,50,50,32,,,,,183.5537734000245,184.2043769999873,184.2043769999873,184.6889332999708,315,45,184.6889332999708,184.6889332999708,184.6889332999708,184.6889332999708,184.6889332999708,184.6889332999708,184.6889332999708,184.6889332999708,184.6889332999708,185.0553077000077,185.0553077000077,185.0553077000077,185.0553077000077,185.0553077000077,185.0553077000077,185.0553077000077,185.0553077000077,185.0553077000077,23,0,,,185.0553077000077,185.2553991000168,4.9,185.2553991000168,0,4.9,1,0,1000,num_1,0.8563277000212111,,28,6,2026-03-05_15h51.26.812,2026A_exp2,2022.2.4,59.9359045440482,
1,0,4.9,6.1,1,0,51,51,62,,,,,186.14137159998063,186.7904300999944,186.7904300999944,187.2915028000134,315,315,187.2915028000134,187.2915028000134,187.2915028000134,187.2915028000134,187.2915028000134,187.2915028000134,187.2915028000134,187.2915028000134,187.2915028000134,187.65789849997964,187.65789849997964,187.65789849997964,187.65789849997964,187.65789849997964,187.65789849997964,187.65789849997964,187.65789849997964,187.65789849997964,12,3,"[0.1336260999669321, 0.1837140999850817, 0.30049479997251183]","[0.15044549998128787, 0.25043259997619316, 0.3673053999664262]",187.65789849997964,187.8580532000051,6.1,187.8580532000051,1,6.1,1,1,1000,num_4,0.5502220999915153,,28,6,2026-03-05_15h51.26.812,2026A_exp2,2022.2.4,59.9359045440482,
1,0,6.1,3.7,0,0,52,52,79,,,,,188.42537549999543,189.07607160002226,189.07607160002226,189.5606034999946,45,45,189.5606034999946,189.5606034999946,189.5606034999946,189.5606034999946,189.5606034999946,189.5606034999946,189.5606034999946,189.5606034999946,189.5606034999946,189.92684969998663,189.92684969998663,189.92684969998663,189.92684969998663,189.92684969998663,189.92684969998663,189.92684969998663,189.92684969998663,189.92684969998663,23,0,,,189.92684969998663,190.1270429000142,6.1,190.1270429000142,1,6.1,1,1,1000,num_4,1.000485500029754,,28,6,2026-03-05_15h51.26.812,2026A_exp2,2022.2.4,59.9359045440482,
1,0,6.1,0.0,0,0,53,53,22,,,,,191.14476140000625,191.7950090999948,191.7950090999948,192.27985170000466,45,315,192.27985170000466,192.27985170000466,192.27985170000466,192.27985170000466,192.27985170000466,192.27985170000466,192.27985170000466,192.27985170000466,192.27985170000466,192.64604010002222,192.64604010002222,192.64604010002222,192.64604010002222,192.64604010002222,192.64604010002222,192.64604010002222,192.64604010002222,192.64604010002222,23,0,,,192.64604010002222,192.84635359997628,6.1,192.84635359997628,0,6.1,1,0,1000,num_1,1.7051246999762952,,28,6,2026-03-05_15h51.26.812,2026A_exp2,2022.2.4,59.9359045440482,
1,0,4.9,0.0,0,0,54,54,14,,,,,194.58133100002306,195.23216279997723,195.23216279997723,195.7164807000081,315,315,195.7164807000081,195.7164807000081,195.7164807000081,195.7164807000081,195.7164807000081,195.7164807000081,195.7164807000081,195.7164807000081,195.7164807000081,196.08303159999195,196.08303159999195,196.08303159999195,196.08303159999195,196.08303159999195,196.08303159999195,196.08303159999195,196.08303159999195,196.08303159999195,13,5,"[0.13406069995835423, 0.1675171999959275, 0.21746399998664856, 0.31733509997138754, 0.3675451999879442]","[0.15086699998937547, 0.20066199998836964, 0.30074779997812584, 0.33423659997060895, 0.36755049997009337]",196.08303159999195,196.2833280999912,4.9,196.2833280999912,1,4.9,1,1,1000,num_4,0.48440840002149343,,28,6,2026-03-05_15h51.26.812,2026A_exp2,2022.2.4,59.9359045440482,
1000,1,0.0,4.9,0,0,55,55,50,,,,,196.78373959998135,197.4342477999744,197.4342477999744,197.9186941999942,315,45,197.9186941999942,197.9186941999942,197.9186941999942,197.9186941999942,197.9186941999942,197.9186941999942,197.9186941999942,197.9186941999942,197.9186941999942,198.28519710002,198.28519710002,198.28519710002,198.28519710002,198.28519710002,198.28519710002,198.28519710002,198.28519710002,198.28519710002,23,0,,,198.28519710002,198.48758419998921,1000,198.48758419998921,1000,1000,1000,1000,1,num_2,1.0966290999785997,,28,6,2026-03-05_15h51.26.812,2026A_exp2,2022.2.4,59.9359045440482,
1000,1,6.1,3.7,0,0,56,56,43,,,,,199.60318450001068,200.25390930002322,200.25390930002322,200.75458960002288,45,45,200.75458960002288,200.75458960002288,200.75458960002288,200.75458960002288,200.75458960002288,200.75458960002288,200.75458960002288,200.75458960002288,200.75458960002288,201.1214057999896,201.1214057999896,201.1214057999896,201.1214057999896,201.1214057999896,201.1214057999896,201.1214057999896,201.1214057999896,201.1214057999896,23,0,,,201.1214057999896,201.3239488999825,1000,201.3239488999825,1000,1000,1000,1000,0,num_3,0.4995780999888666,,28,6,2026-03-05_15h51.26.812,2026A_exp2,2022.2.4,59.9359045440482,
1,0,0.0,6.1,1,0,57,57,17,,,,,201.83878769999137,202.4892894999939,202.4892894999939,202.99057500000345,45,45,202.99057500000345,202.99057500000345,202.99057500000345,202.99057500000345,202.99057500000345,202.99057500000345,202.99057500000345,202.99057500000345,202.99057500000345,203.35702350002248,203.35702350002248,203.35702350002248,203.35702350002248,203.35702350002248,203.35702350002248,203.35702350002248,203.35702350002248,203.35702350002248,11,1,[0.03351360000669956],[0.23360549996141344],203.35702350002248,203.5570167999831,6.1,203.5570167999831,0,6.1,1,0,1000,num_1,1.067218000011053,,28,6,2026-03-05_15h51.26.812,2026A_exp2,2022.2.4,59.9359045440482,
1,0,6.1,0.0,1,0,58,58,41,,,,,204.64153730002,205.2922251999844,205.2922251999844,205.77668770001037,45,45,205.77668770001037,205.77668770001037,205.77668770001037,205.77668770001037,205.77668770001037,205.77668770001037,205.77668770001037,205.77668770001037,205.77668770001037,206.1430948000052,206.1430948000052,206.1430948000052,206.1430948000052,206.1430948000052,206.1430948000052,206.1430948000052,206.1430948000052,206.1430948000052,1,2,"[0.0007221000269055367, 0.050211100024171174]","[0.03336180001497269, 0.36756669997703284]",206.1430948000052,206.3432588999858,0.0,206.3432588999858,0,0.0,0,1,1000,num_1,0.5126912999548949,,28,6,2026-03-05_15h51.26.812,2026A_exp2,2022.2.4,59.9359045440482,
1000,1,6.1,0.0,1,0,59,59,71,,,,,206.876966300013,207.5276731000049,207.5276731000049,208.0121758999885,315,45,208.0121758999885,208.0121758999885,208.0121758999885,208.0121758999885,208.0121758999885,208.0121758999885,208.0121758999885,208.0121758999885,208.0121758999885,208.37869059998775,208.37869059998775,208.37869059998775,208.37869059998775,208.37869059998775,208.37869059998775,208.37869059998775,208.37869059998775,208.37869059998775,23,0,,,208.37869059998775,208.5816142000258,1000,208.5816142000258,1000,1000,1000,1000,1,num_2,0.5943678999901749,,28,6,2026-03-05_15h51.26.812,2026A_exp2,2022.2.4,59.9359045440482,
1000,1,0.0,3.7,1,0,60,60,86,,,,,209.19615340000018,209.84679099998903,209.84679099998903,210.34778319997713,45,45,210.34778319997713,210.34778319997713,210.34778319997713,210.34778319997713,210.34778319997713,210.34778319997713,210.34778319997713,210.34778319997713,210.34778319997713,210.71419500000775,210.71419500000775,210.71419500000775,210.71419500000775,210.71419500000775,210.71419500000775,210.71419500000775,210.71419500000775,210.71419500000775,23,0,,,210.71419500000775,210.91639989998657,1000,210.91639989998657,1000,1000,1000,1000,0,num_3,0.5314466999843717,,28,6,2026-03-05_15h51.26.812,2026A_exp2,2022.2.4,59.9359045440482,
0,0,3.7,0.0,0,0,61,61,16,,,,,211.4650580000016,212.11567789997207,212.11567789997207,212.61673299997346,315,45,212.61673299997346,212.61673299997346,212.61673299997346,212.61673299997346,212.61673299997346,212.61673299997346,212.61673299997346,212.61673299997346,212.61673299997346,212.98285119998036,212.98285119998036,212.98285119998036,212.98285119998036,212.98285119998036,212.98285119998036,212.98285119998036,212.98285119998036,212.98285119998036,23,0,,,212.98285119998036,213.18344849999994,0.0,213.18344849999994,1,0.0,0,0,1000,num_4,0.688692900002934,,28,6,2026-03-05_15h51.26.812,2026A_exp2,2022.2.4,59.9359045440482,
1,0,0.0,0.0,1,0,62,62,68,,,,,213.9009402000229,214.55149629997322,214.55149629997322,215.0524613999878,45,45,215.0524613999878,215.0524613999878,215.0524613999878,215.0524613999878,215.0524613999878,215.0524613999878,215.0524613999878,215.0524613999878,215.0524613999878,215.40230630000588,215.40230630000588,215.40230630000588,215.40230630000588,215.40230630000588,215.40230630000588,215.40230630000588,215.40230630000588,215.40230630000588,22,0,,,215.40230630000588,215.60239939996973,0.0,215.60239939996973,1,0.0,0,0,1000,num_4,0.5013517999905162,,28,6,2026-03-05_15h51.26.812,2026A_exp2,2022.2.4,59.9359045440482,
1,0,0.0,4.9,0,0,63,63,48,,,,,216.1198132999707,216.77024769998388,216.77024769998388,217.25465080002323,45,45,217.25465080002323,217.25465080002323,217.25465080002323,217.25465080002323,217.25465080002323,217.25465080002323,217.25465080002323,217.25465080002323,217.25465080002323,217.62120609998237,217.62120609998237,217.62120609998237,217.62120609998237,217.62120609998237,217.62120609998237,217.62120609998237,217.62120609998237,217.62120609998237,23,0,,,217.62120609998237,217.8213895999943,0.0,217.8213895999943,0,0.0,0,1,1000,num_1,0.682500800001435,,28,6,2026-03-05_15h51.26.812,2026A_exp2,2022.2.4,59.9359045440482,
1,0,0.0,0.0,0,0,64,64,87,,,,,218.5222289999947,219.17288769996958,219.17288769996958,219.65712869999697,315,315,219.65712869999697,219.65712869999697,219.65712869999697,219.65712869999697,219.65712869999697,219.65712869999697,219.65712869999697,219.65712869999697,219.65712869999697,220.02328680001665,220.02328680001665,220.02328680001665,220.02328680001665,220.02328680001665,220.02328680001665,220.02328680001665,220.02328680001665,220.02328680001665,23,0,,,220.02328680001665,220.2237689999747,0.0,220.2237689999747,1,0.0,0,0,1000,num_4,0.8157570000039414,,28,6,2026-03-05_15h51.26.812,2026A_exp2,2022.2.4,59.9359045440482,
1000,1,4.9,6.1,0,0,65,65,35,,,,,221.0579512999975,221.70875200000592,221.70875200000592,222.1929296000162,315,315,222.1929296000162,222.1929296000162,222.1929296000162,222.1929296000162,222.1929296000162,222.1929296000162,222.1929296000162,222.1929296000162,222.1929296000162,222.5594159999746,222.5594159999746,222.5594159999746,222.5594159999746,222.5594159999746,222.5594159999746,222.5594159999746,222.5594159999746,222.5594159999746,23,0,,,222.5594159999746,222.75973260001047,1000,222.77630019997014,1000,1000,1000,1000,0,num_3,0.4964946999680251,,28,6,2026-03-05_15h51.26.812,2026A_exp2,2022.2.4,59.9359045440482,
0,0,0.0,0.0,0,0,66,66,20,,,,,223.29361679998692,223.94407730002422,223.94407730002422,224.4451777000213,45,315,224.4451777000213,224.4451777000213,224.4451777000213,224.4451777000213,224.4451777000213,224.4451777000213,224.4451777000213,224.4451777000213,224.4451777000213,224.81165180000244,224.81165180000244,224.81165180000244,224.81165180000244,224.81165180000244,224.81165180000244,224.81165180000244,224.81165180000244,224.81165180000244,23,0,,,224.81165180000244,225.01178569998592,0.0,225.01178569998592,1,0.0,0,0,1000,num_4,0.636162799957674,,28,6,2026-03-05_15h51.26.812,2026A_exp2,2022.2.4,59.9359045440482,
1000,1,4.9,6.1,1,0,67,67,4,,,,,225.67912240000442,226.32983890001196,226.32983890001196,226.81434049998643,315,315,226.81434049998643,226.81434049998643,226.81434049998643,226.81434049998643,226.81434049998643,226.81434049998643,226.81434049998643,226.81434049998643,226.81434049998643,227.1806673000101,227.1806673000101,227.1806673000101,227.1806673000101,227.1806673000101,227.1806673000101,227.1806673000101,227.1806673000101,227.1806673000101,22,1,[0.06691059999866411],[0.08364810002967715],227.1806673000101,227.3826882999856,1000,227.3826882999856,1000,1000,1000,1000,1,num_2,0.7854838999919593,,28,6,2026-03-05_15h51.26.812,2026A_exp2,2022.2.4,59.9359045440482,
1000,1,4.9,4.9,0,0,68,68,6,,,,,228.19855420000385,228.84906330000376,228.84906330000376,229.350144200027,45,315,229.350144200027,229.350144200027,229.350144200027,229.350144200027,229.350144200027,229.350144200027,229.350144200027,229.350144200027,229.350144200027,229.71655000001192,229.71655000001192,229.71655000001192,229.71655000001192,229.71655000001192,229.71655000001192,229.71655000001192,229.71655000001192,229.71655000001192,23,0,,,229.71655000001192,229.94012210000074,1000,229.94012210000074,1000,1000,1000,1000,0,num_3,0.508183799975086,,28,6,2026-03-05_15h51.26.812,2026A_exp2,2022.2.4,59.9359045440482,
1,0,0.0,3.7,1,0,69,69,83,,,,,230.46742940001423,231.11806090001483,231.11806090001483,231.6191241000197,315,45,231.6191241000197,231.6191241000197,231.6191241000197,231.6191241000197,231.6191241000197,231.6191241000197,231.6191241000197,231.6191241000197,231.6191241000197,231.98556709999684,231.98556709999684,231.98556709999684,231.98556709999684,231.98556709999684,231.98556709999684,231.98556709999684,231.98556709999684,231.98556709999684,23,0,,,231.98556709999684,232.1856742000091,3.7,232.1856742000091,0,3.7,1,0,1000,num_1,0.5580992000177503,,28,6,2026-03-05_15h51.26.812,2026A_exp2,2022.2.4,59.9359045440482,
1,0,0.0,6.1,1,0,70,70,39,,,,,232.7697152000037,233.4203280999791,233.4203280999791,233.9047578999889,45,45,233.9047578999889,233.9047578999889,233.9047578999889,233.9047578999889,233.9047578999889,233.9047578999889,233.9047578999889,233.9047578999889,233.9047578999889,234.2711862999713,234.2711862999713,234.2711862999713,234.2711862999713,234.2711862999713,234.2711862999713,234.2711862999713,234.2711862999713,234.2711862999713,20,1,[0.0011897000367753208],[0.05026340001495555],234.2711862999713,234.4714498000103,6.1,234.4714498000103,1,6.1,1,1,1000,num_4,0.5049890000373125,,28,6,2026-03-05_15h51.26.812,2026A_exp2,2022.2.4,59.9359045440482,
1000,1,0.0,0.0,1,0,71,71,27,,,,,235.00526700000046,235.6559482999728,235.6559482999728,236.14006210002117,45,315,236.14006210002117,236.14006210002117,236.14006210002117,236.14006210002117,236.14006210002117,236.14006210002117,236.14006210002117,236.14006210002117,236.14006210002117,236.5067648999975,236.5067648999975,236.5067648999975,236.5067648999975,236.5067648999975,236.5067648999975,236.5067648999975,236.5067648999975,236.5067648999975,23,0,,,236.5067648999975,236.70901009999216,1000,236.70901009999216,1000,1000,1000,1000,0,num_3,0.4827439999789931,,28,6,2026-03-05_15h51.26.812,2026A_exp2,2022.2.4,59.9359045440482,
1000,1,4.9,3.7,0,0,72,72,26,,,,,237.20751570002176,237.85807269997895,237.85807269997895,238.35913370002527,315,315,238.35913370002527,238.35913370002527,238.35913370002527,238.35913370002527,238.35913370002527,238.35913370002527,238.35913370002527,238.35913370002527,238.35913370002527,238.72560970002087,238.72560970002087,238.72560970002087,238.72560970002087,238.72560970002087,238.72560970002087,238.72560970002087,238.72560970002087,238.72560970002087,23,0,,,238.72560970002087,238.92792619997635,1000,238.92792619997635,1000,1000,1000,1000,0,num_3,0.6642791000194848,,28,6,2026-03-05_15h51.26.812,2026A_exp2,2022.2.4,59.9359045440482,
0,0,0.0,0.0,0,0,73,73,10,,,,,239.6100054999697,240.26064180000685,240.26064180000685,240.7616657000035,315,315,240.7616657000035,240.7616657000035,240.7616657000035,240.7616657000035,240.7616657000035,240.7616657000035,240.7616657000035,240.7616657000035,240.7616657000035,241.11118509998778,241.11118509998778,241.11118509998778,241.11118509998778,241.11118509998778,241.11118509998778,241.11118509998778,241.11118509998778,241.11118509998778,6,1,[0.0012305999989621341],[0.2669938000035472],241.11118509998778,241.3115849000169,0.0,241.32823460001964,0,0.0,0,1,1000,num_1,0.5606651999987662,,28,6,2026-03-05_15h51.26.812,2026A_exp2,2022.2.4,59.9359045440482,
1,0,4.9,3.7,0,0,74,74,89,,,,,241.91215220000595,242.56291410000995,242.56291410000995,243.04728009999963,45,45,243.04728009999963,243.04728009999963,243.04728009999963,243.04728009999963,243.04728009999963,243.04728009999963,243.04728009999963,243.04728009999963,243.04728009999963,243.41371870000148,243.41371870000148,243.41371870000148,243.41371870000148,243.41371870000148,243.41371870000148,243.41371870000148,243.41371870000148,243.41371870000148,23,0,,,243.41371870000148,243.61394220002694,4.9,243.61394220002694,1,4.9,1,1,1000,num_4,0.4909685999737121,,28,6,2026-03-05_15h51.26.812,2026A_exp2,2022.2.4,59.9359045440482,
1,0,0.0,0.0,1,0,75,75,60,,,,,244.13110689999303,244.78372200002195,244.78372200002195,245.27112769999076,45,315,245.27112769999076,245.27112769999076,245.27112769999076,245.27112769999076,245.27112769999076,245.27112769999076,245.27112769999076,245.27112769999076,245.27112769999076,245.6324600999942,245.6324600999942,245.6324600999942,245.6324600999942,245.6324600999942,245.6324600999942,245.6324600999942,245.6324600999942,245.6324600999942,23,0,,,245.6324600999942,245.8328223999706,0.0,245.8328223999706,0,0.0,0,1,1000,num_1,0.4869551000301726,,28,6,2026-03-05_15h51.26.812,2026A_exp2,2022.2.4,59.9359045440482,
1,0,0.0,4.9,0,0,76,76,9,,,,,246.3498421999975,247.00057560001733,247.00057560001733,247.4849997999845,45,45,247.4849997999845,247.4849997999845,247.4849997999845,247.4849997999845,247.4849997999845,247.4849997999845,247.4849997999845,247.4849997999845,247.4849997999845,247.85147519997554,247.85147519997554,247.85147519997554,247.85147519997554,247.85147519997554,247.85147519997554,247.85147519997554,247.85147519997554,247.85147519997554,23,0,,,247.85147519997554,248.05163419997552,0.0,248.05163419997552,0,0.0,0,1,1000,num_1,0.3401726000010967,,28,6,2026-03-05_15h51.26.812,2026A_exp2,2022.2.4,59.9359045440482,
0,0,0.0,6.1,0,0,77,77,12,,,,,248.41882119997172,249.0694031000021,249.0694031000021,249.55376779998187,45,45,249.55376779998187,249.55376779998187,249.55376779998187,249.55376779998187,249.55376779998187,249.55376779998187,249.55376779998187,249.55376779998187,249.55376779998187,249.9204031000263,249.9204031000263,249.9204031000263,249.9204031000263,249.9204031000263,249.9204031000263,249.9204031000263,249.9204031000263,249.9204031000263,23,0,,,249.9204031000263,250.120430400013,6.1,250.120430400013,0,6.1,1,0,1000,num_1,0.4070849000127055,,28,6,2026-03-05_15h51.26.812,2026A_exp2,2022.2.4,59.9359045440482,
1000,1,0.0,3.7,0,0,78,78,18,,,,,250.55405550001888,251.204722399998,251.204722399998,251.68930530000944,45,315,251.68930530000944,251.68930530000944,251.68930530000944,251.68930530000944,251.68930530000944,251.68930530000944,251.68930530000944,251.68930530000944,251.68930530000944,252.05554329999723,252.05554329999723,252.05554329999723,252.05554329999723,252.05554329999723,252.05554329999723,252.05554329999723,252.05554329999723,252.05554329999723,23,0,,,252.05554329999723,252.2578872999875,1000,252.2578872999875,1000,1000,1000,1000,0,num_3,0.5657862999942154,,28,6,2026-03-05_15h51.26.812,2026A_exp2,2022.2.4,59.9359045440482,
1,0,0.0,0.0,1,0,79,79,24,,,,,252.83975360001205,253.4904385000118,253.4904385000118,253.99157710000873,45,45,253.99157710000873,253.99157710000873,253.99157710000873,253.99157710000873,253.99157710000873,253.99157710000873,253.99157710000873,253.99157710000873,253.99157710000873,254.35787649999838,254.35787649999838,254.35787649999838,254.35787649999838,254.35787649999838,254.35787649999838,254.35787649999838,254.35787649999838,254.35787649999838,23,0,,,254.35787649999838,254.5581334999879,0.0,254.5581334999879,1,0.0,0,0,1000,num_4,0.9068546000053175,,28,6,2026-03-05_15h51.26.812,2026A_exp2,2022.2.4,59.9359045440482,
1000,1,0.0,6.1,0,0,80,80,5,,,,,255.49242359999334,256.1428931999835,256.1428931999835,256.6274863000144,315,315,256.6274863000144,256.6274863000144,256.6274863000144,256.6274863000144,256.6274863000144,256.6274863000144,256.6274863000144,256.6274863000144,256.6274863000144,256.9939694000059,256.9939694000059,256.9939694000059,256.9939694000059,256.9939694000059,256.9939694000059,256.9939694000059,256.9939694000059,256.9939694000059,0,1,[0.001295899972319603],[0.3667635999736376],256.9939694000059,257.1965086000273,1000,257.1965086000273,1000,1000,1000,1000,1,num_2,0.764117700047791,,28,6,2026-03-05_15h51.26.812,2026A_exp2,2022.2.4,59.9359045440482,
1000,1,0.0,0.0,1,0,81,81,72,,,,,257.9782372000045,258.6289517999976,258.6289517999976,259.1300270999782,45,315,259.1300270999782,259.1300270999782,259.1300270999782,259.1300270999782,259.1300270999782,259.1300270999782,259.1300270999782,259.1300270999782,259.1300270999782,259.49638259998756,259.49638259998756,259.49638259998756,259.49638259998756,259.49638259998756,259.49638259998756,259.49638259998756,259.49638259998756,259.49638259998756,22,1,[0.017482100054621696],[0.03359710000222549],259.49638259998756,259.6983487000107,1000,259.6983487000107,1000,1000,1000,1000,0,num_3,0.8615101999603212,,28,6,2026-03-05_15h51.26.812,2026A_exp2,2022.2.4,59.9359045440482,
1,0,6.1,3.7,1,0,82,82,45,,,,,260.58095899998443,261.2314381999895,261.2314381999895,261.73260029999074,315,315,261.73260029999074,261.73260029999074,261.73260029999074,261.73260029999074,261.73260029999074,261.73260029999074,261.73260029999074,261.73260029999074,261.73260029999074,262.0987970000133,262.0987970000133,262.0987970000133,262.0987970000133,262.0987970000133,262.0987970000133,262.0987970000133,262.0987970000133,262.0987970000133,23,0,,,262.0987970000133,262.2990818999824,3.7,262.2990818999824,0,3.7,1,0,1000,num_1,0.8206158999819309,,28,6,2026-03-05_15h51.26.812,2026A_exp2,2022.2.4,59.9359045440482,
1000,1,4.9,4.9,0,0,83,83,36,,,,,263.1499594000052,263.80058400001144,263.80058400001144,264.28516149998177,315,315,264.28516149998177,264.28516149998177,264.28516149998177,264.28516149998177,264.28516149998177,264.28516149998177,264.28516149998177,264.28516149998177,264.28516149998177,264.65146959997946,264.65146959997946,264.65146959997946,264.65146959997946,264.65146959997946,264.65146959997946,264.65146959997946,264.65146959997946,264.65146959997946,13,1,[0.21692049998091534],[0.3671218999661505],264.65146959997946,264.853943300026,1000,264.853943300026,1000,1000,1000,1000,0,num_3,0.6983626000001095,,28,6,2026-03-05_15h51.26.812,2026A_exp2,2022.2.4,59.9359045440482,
0,0,4.9,6.1,0,0,84,84,1,,,,,265.5693130000145,266.2198927999707,266.2198927999707,266.7209103999776,45,45,266.7209103999776,266.7209103999776,266.7209103999776,266.7209103999776,266.7209103999776,266.7209103999776,266.7209103999776,266.7209103999776,266.7209103999776,267.0873755000066,267.0873755000066,267.0873755000066,267.0873755000066,267.0873755000066,267.0873755000066,267.0873755000066,267.0873755000066,267.0873755000066,23,0,,,267.0873755000066,267.28744530002587,6.1,267.28744530002587,1,6.1,1,1,1000,num_4,0.8482644000323489,,28,6,2026-03-05_15h51.26.812,2026A_exp2,2022.2.4,59.9359045440482,
0,0,4.9,3.7,1,0,85,85,13,,,,,268.15495880000526,268.8056926999707,268.8056926999707,269.2902458999888,315,315,269.2902458999888,269.2902458999888,269.2902458999888,269.2902458999888,269.2902458999888,269.2902458999888,269.2902458999888,269.2902458999888,269.2902458999888,269.6566077999887,269.6566077999887,269.6566077999887,269.6566077999887,269.6566077999887,269.6566077999887,269.6566077999887,269.6566077999887,269.6566077999887,23,0,,,269.6566077999887,269.8568100000266,4.9,269.8568100000266,0,4.9,1,0,1000,num_1,0.6791698000160977,,28,6,2026-03-05_15h51.26.812,2026A_exp2,2022.2.4,59.9359045440482,
1000,1,0.0,0.0,1,0,86,86,8,,,,,270.557544899988,271.20823029999156,271.20823029999156,271.6925940000219,315,315,271.6925940000219,271.6925940000219,271.6925940000219,271.6925940000219,271.6925940000219,271.6925940000219,271.6925940000219,271.6925940000219,271.6925940000219,272.058826100023,272.058826100023,272.058826100023,272.058826100023,272.058826100023,272.058826100023,272.058826100023,272.058826100023,272.058826100023,23,0,,,272.058826100023,272.2608609999879,1000,272.2608609999879,1000,1000,1000,1000,1,num_2,0.7952449999866076,,28,6,2026-03-05_15h51.26.812,2026A_exp2,2022.2.4,59.9359045440482,
0,0,3.7,0.0,1,0,87,87,0,,,,,273.076613000012,273.7272465999704,273.7272465999704,274.22846299997764,315,45,274.22846299997764,274.22846299997764,274.22846299997764,274.22846299997764,274.22846299997764,274.22846299997764,274.22846299997764,274.22846299997764,274.22846299997764,274.5949012999772,274.5949012999772,274.5949012999772,274.5949012999772,274.5949012999772,274.5949012999772,274.5949012999772,274.5949012999772,274.5949012999772,4,1,[0.0012363999849185348],[0.3170962000149302],274.5949012999772,274.7951020000037,3.7,274.7951020000037,1,3.7,1,1,1000,num_4,0.7169577000313438,,28,6,2026-03-05_15h51.26.812,2026A_exp2,2022.2.4,59.9359045440482,
1000,1,3.7,3.7,1,0,88,88,25,,,,,275.5291119000176,276.1796079999767,276.1796079999767,276.6641028000158,45,45,276.6641028000158,276.6641028000158,276.6641028000158,276.6641028000158,276.6641028000158,276.6641028000158,276.6641028000158,276.6641028000158,276.6641028000158,277.03063799999654,277.03063799999654,277.03063799999654,277.03063799999654,277.03063799999654,277.03063799999654,277.03063799999654,277.03063799999654,277.03063799999654,23,0,,,277.03063799999654,277.2332724999869,1000,277.2332724999869,1000,1000,1000,1000,0,num_3,0.5502317000064068,,28,6,2026-03-05_15h51.26.812,2026A_exp2,2022.2.4,59.9359045440482,
1,0,0.0,4.9,1,0,89,89,44,,,,,277.8146873000078,278.4653557999991,278.4653557999991,278.9665050000185,45,315,278.9665050000185,278.9665050000185,278.9665050000185,278.9665050000185,278.9665050000185,278.9665050000185,278.9665050000185,278.9665050000185,278.9665050000185,279.3330166999949,279.3330166999949,279.3330166999949,279.3330166999949,279.3330166999949,279.3330166999949,279.3330166999949,279.3330166999949,279.3330166999949,22,1,[0.2669838000438176],[0.28348570002708584],279.3330166999949,279.5331290999893,4.9,279.5331290999893,0,4.9,1,0,1000,num_1,0.8908572999644093,,28,6,2026-03-05_15h51.26.812,2026A_exp2,2022.2.4,59.9359045440482,
,,,,,,,,,,,,,,,,,,,,,,,,,,,,,,,,,,,,,,,,,,,,,,,,,,,,280.45322829997167,,,,,,,
