validity,detectorcomp,contrastCW,contrastCCW,precueCWorCCW,block_80trials.thisRepN,block_80trials.thisTrialN,block_80trials.thisN,block_80trials.thisIndex,etRecord.started,etRecord.stopped,text.started,text.stopped,text_4.started,text_4.stopped,text_6.started,text_6.stopped,oriCW,oriCCW,roi_2.started,grating_UR.started,grating_UL.started,grating_LR.started,grating_LL.started,noise_UR.started,noise_UL.started,noise_LR.started,noise_LL.started,roi_2.stopped,grating_UR.stopped,grating_UL.stopped,grating_LR.stopped,grating_LL.stopped,noise_UR.stopped,noise_UL.stopped,noise_LR.stopped,noise_LL.stopped,outframe,roi_2.numLooks,roi_2.timesOn,roi_2.timesOff,text_2.started,text_2.stopped,probedcontrast,key_resp.started,respdetect,relevantContrast,correctDetect,TorFdetect,respCWorCCW,key_resp.keys,key_resp.rt,feedback_display_.started,participantNo,blockNo,date,expName,psychopyVersion,frameRate,
1000,1,0.0,0.0,1,0,0,0,60,6.079999729990959e-05,6.079999729990959e-05,67.18072900013067,69.1841586001683,69.1841586001683,69.81750850006938,69.81750850006938,70.33912260015495,45,45,70.33912260015495,70.33912260015495,70.33912260015495,70.33912260015495,70.33912260015495,70.33912260015495,70.33912260015495,70.33912260015495,70.33912260015495,70.68505980004556,70.68505980004556,70.68505980004556,70.68505980004556,70.68505980004556,70.68505980004556,70.68505980004556,70.68505980004556,70.68505980004556,0,1,[0.001019099960103631],[0.36628179997205734],70.68505980004556,70.89237060002051,1000,70.89237060002051,1000,1000,1000,1000,1,num_2,2.655203799949959,,34,1,2026-03-13_10h12.09.828,2026A_exp2,2022.2.4,60.100199087238515,
1000,1,0.0,6.1,1,0,1,1,3,,,,,73.57131989998743,74.22197620011866,74.22197620011866,74.72299170005135,315,315,74.72299170005135,74.72299170005135,74.72299170005135,74.72299170005135,74.72299170005135,74.72299170005135,74.72299170005135,74.72299170005135,74.72299170005135,75.08944110013545,75.08944110013545,75.08944110013545,75.08944110013545,75.08944110013545,75.08944110013545,75.08944110013545,75.08944110013545,75.08944110013545,0,1,[0.00106819998472929],[0.3673948000650853],75.08944110013545,75.29137450014241,1000,75.29137450014241,1000,1000,1000,1000,1,num_2,0.6730923000723124,,34,1,2026-03-13_10h12.09.828,2026A_exp2,2022.2.4,60.100199087238515,
1000,1,0.0,4.9,0,0,2,2,5,,,,,75.99037070013583,76.64075850020163,76.64075850020163,77.14208960020915,45,45,77.14208960020915,77.14208960020915,77.14208960020915,77.14208960020915,77.14208960020915,77.14208960020915,77.14208960020915,77.14208960020915,77.14208960020915,77.50856700004078,77.50856700004078,77.50856700004078,77.50856700004078,77.50856700004078,77.50856700004078,77.50856700004078,77.50856700004078,77.50856700004078,0,1,[0.0012101000174880028],[0.3671378998551518],77.50856700004078,77.71025820006616,1000,77.71025820006616,1000,1000,1000,1000,1,num_2,0.5732890998478979,,34,1,2026-03-13_10h12.09.828,2026A_exp2,2022.2.4,60.100199087238515,
1000,1,0.0,0.0,0,0,3,3,87,,,,,78.30944910016842,78.95994070009328,78.95994070009328,79.46118670003489,45,45,79.46118670003489,79.46118670003489,79.46118670003489,79.46118670003489,79.46118670003489,79.46118670003489,79.46118670003489,79.46118670003489,79.46118670003489,79.82731020008214,79.82731020008214,79.82731020008214,79.82731020008214,79.82731020008214,79.82731020008214,79.82731020008214,79.82731020008214,79.82731020008214,0,1,[0.0012926999479532242],[0.36721280007623136],79.82731020008214,80.02970190020278,1000,80.02970190020278,1000,1000,1000,1000,1,num_2,0.9583548000082374,,34,1,2026-03-13_10h12.09.828,2026A_exp2,2022.2.4,60.100199087238515,
1,0,0.0,6.1,0,0,4,4,82,,,,,81.01206149999052,81.66266950010322,81.66266950010322,82.16380780003965,315,315,82.16380780003965,82.16380780003965,82.16380780003965,82.16380780003965,82.16380780003965,82.16380780003965,82.16380780003965,82.16380780003965,82.16380780003965,82.51353440014645,82.51353440014645,82.51353440014645,82.51353440014645,82.51353440014645,82.51353440014645,82.51353440014645,82.51353440014645,82.51353440014645,22,0,,,82.51353440014645,82.7136192000471,0.0,82.73042400018312,0,0.0,0,1,1000,num_1,0.6740700998343527,,34,1,2026-03-13_10h12.09.828,2026A_exp2,2022.2.4,60.100199087238515,
1,0,4.9,3.7,0,0,5,5,63,,,,,83.43114780005999,84.08219910017215,84.08219910017215,84.56715440005064,45,45,84.56715440005064,84.56715440005064,84.56715440005064,84.56715440005064,84.56715440005064,84.56715440005064,84.56715440005064,84.56715440005064,84.56715440005064,84.93457780010067,84.93457780010067,84.93457780010067,84.93457780010067,84.93457780010067,84.93457780010067,84.93457780010067,84.93457780010067,84.93457780010067,21,2,"[0.01814689999446273, 0.05192320002242923]","[0.03363540000282228, 0.06722450000233948]",84.93457780010067,85.14934080000967,4.9,85.14934080000967,1,4.9,1,1,1000,num_4,0.5820104999002069,,34,1,2026-03-13_10h12.09.828,2026A_exp2,2022.2.4,60.100199087238515,
1000,1,6.1,3.7,0,0,6,6,18,,,,,85.7509501001332,86.40092040016316,86.40092040016316,86.90163600002415,45,45,86.90163600002415,86.90163600002415,86.90163600002415,86.90163600002415,86.90163600002415,86.90163600002415,86.90163600002415,86.90163600002415,86.90163600002415,87.26803999999538,87.26803999999538,87.26803999999538,87.26803999999538,87.26803999999538,87.26803999999538,87.26803999999538,87.26803999999538,87.26803999999538,23,0,,,87.26803999999538,87.46830310020596,1000,87.46830310020596,1000,1000,1000,1000,0,num_3,0.5428606998175383,,34,1,2026-03-13_10h12.09.828,2026A_exp2,2022.2.4,60.100199087238515,
1000,1,0.0,6.1,0,0,7,7,85,,,,,88.03532150015235,88.66932750004344,88.66932750004344,89.17040930013172,45,45,89.17040930013172,89.17040930013172,89.17040930013172,89.17040930013172,89.17040930013172,89.17040930013172,89.17040930013172,89.17040930013172,89.17040930013172,89.53681419999339,89.53681419999339,89.53681419999339,89.53681419999339,89.53681419999339,89.53681419999339,89.53681419999339,89.53681419999339,89.53681419999339,23,0,,,89.53681419999339,89.73706810013391,1000,89.73706810013391,1000,1000,1000,1000,1,num_2,0.42749670008197427,,34,1,2026-03-13_10h12.09.828,2026A_exp2,2022.2.4,60.100199087238515,
1,0,4.9,3.7,1,0,8,8,10,,,,,90.18793270015158,90.83868860010989,90.83868860010989,91.32282910007052,315,45,91.32282910007052,91.32282910007052,91.32282910007052,91.32282910007052,91.32282910007052,91.32282910007052,91.32282910007052,91.32282910007052,91.32282910007052,91.68938530003652,91.68938530003652,91.68938530003652,91.68938530003652,91.68938530003652,91.68938530003652,91.68938530003652,91.68938530003652,91.68938530003652,14,5,"[0.03384719998575747, 0.08366600004956126, 0.21731150010600686, 0.28399699996225536, 0.3506700999569148]","[0.06701260013505816, 0.1003910000436008, 0.23398620006628335, 0.33402090007439256, 0.36723170010372996]",91.68938530003652,91.88946970016696,3.7,91.88946970016696,1,3.7,1,1,1000,num_4,0.6428514998406172,,34,1,2026-03-13_10h12.09.828,2026A_exp2,2022.2.4,60.100199087238515,
1000,1,0.0,0.0,0,0,9,9,67,,,,,92.55676750000566,93.20731060020626,93.20731060020626,93.69197410019115,315,45,93.69197410019115,93.69197410019115,93.69197410019115,93.69197410019115,93.69197410019115,93.69197410019115,93.69197410019115,93.69197410019115,93.69197410019115,94.0584313001018,94.0584313001018,94.0584313001018,94.0584313001018,94.0584313001018,94.0584313001018,94.0584313001018,94.0584313001018,94.0584313001018,23,0,,,94.0584313001018,94.26088150008582,1000,94.26088150008582,1000,1000,1000,1000,1,num_2,0.5909572998061776,,34,1,2026-03-13_10h12.09.828,2026A_exp2,2022.2.4,60.100199087238515,
1,0,0.0,0.0,1,0,10,10,41,,,,,94.87575330003165,95.52686380012892,95.52686380012892,96.02758460002951,315,315,96.02758460002951,96.02758460002951,96.02758460002951,96.02758460002951,96.02758460002951,96.02758460002951,96.02758460002951,96.02758460002951,96.02758460002951,96.39411950018257,96.39411950018257,96.39411950018257,96.39411950018257,96.39411950018257,96.39411950018257,96.39411950018257,96.39411950018257,96.39411950018257,23,0,,,96.39411950018257,96.59413430001587,0.0,96.59413430001587,1,0.0,0,0,1000,num_4,0.5859318999573588,,34,1,2026-03-13_10h12.09.828,2026A_exp2,2022.2.4,60.100199087238515,
1000,1,6.1,4.9,0,0,11,11,49,,,,,97.21147880004719,97.86228310014121,97.86228310014121,98.3465233000461,315,315,98.3465233000461,98.3465233000461,98.3465233000461,98.3465233000461,98.3465233000461,98.3465233000461,98.3465233000461,98.3465233000461,98.3465233000461,98.7130376000423,98.7130376000423,98.7130376000423,98.7130376000423,98.7130376000423,98.7130376000423,98.7130376000423,98.7130376000423,98.7130376000423,22,1,[0.11667810007929802],[0.13332249992527068],98.7130376000423,98.91499410010874,1000,98.91499410010874,1000,1000,1000,1000,1,num_2,0.5524130999110639,,34,1,2026-03-13_10h12.09.828,2026A_exp2,2022.2.4,60.100199087238515,
1000,1,3.7,4.9,0,0,12,12,80,,,,,99.49717040010728,100.14758610003628,100.14758610003628,100.64042870001867,45,45,100.64042870001867,100.64042870001867,100.64042870001867,100.64042870001867,100.64042870001867,100.64042870001867,100.64042870001867,100.64042870001867,100.64042870001867,100.99874970014207,100.99874970014207,100.99874970014207,100.99874970014207,100.99874970014207,100.99874970014207,100.99874970014207,100.99874970014207,100.99874970014207,23,0,,,100.99874970014207,101.21935230004601,1000,101.21935230004601,1000,1000,1000,1000,1,num_2,0.4010983998887241,,34,1,2026-03-13_10h12.09.828,2026A_exp2,2022.2.4,60.100199087238515,
0,0,0.0,4.9,0,0,13,13,14,,,,,101.64922610018402,102.30002920003608,102.30002920003608,102.80110610020347,315,315,102.80110610020347,102.80110610020347,102.80110610020347,102.80110610020347,102.80110610020347,102.80110610020347,102.80110610020347,102.80110610020347,102.80110610020347,103.16749700019136,103.16749700019136,103.16749700019136,103.16749700019136,103.16749700019136,103.16749700019136,103.16749700019136,103.16749700019136,103.16749700019136,23,0,,,103.16749700019136,103.36772330012172,4.9,103.36772330012172,1,4.9,1,1,1000,num_4,0.7637306998949498,,34,1,2026-03-13_10h12.09.828,2026A_exp2,2022.2.4,60.100199087238515,
1,0,4.9,3.7,1,0,14,14,26,,,,,104.15161410020664,104.80252560018562,104.80252560018562,105.30350290006027,315,315,105.30350290006027,105.30350290006027,105.30350290006027,105.30350290006027,105.30350290006027,105.30350290006027,105.30350290006027,105.30350290006027,105.30350290006027,105.66982920002192,105.66982920002192,105.66982920002192,105.66982920002192,105.66982920002192,105.66982920002192,105.66982920002192,105.66982920002192,105.66982920002192,4,4,"[0.0012449000496417284, 0.2668715000618249, 0.3000868000090122, 0.3338438000064343]","[0.2504418999888003, 0.28340900014154613, 0.31721729994751513, 0.36732050008140504]",105.66982920002192,105.87019980000332,3.7,105.87019980000332,0,3.7,1,0,1000,num_1,0.6370128998532891,,34,1,2026-03-13_10h12.09.828,2026A_exp2,2022.2.4,60.100199087238515,
1,0,4.9,3.7,0,0,15,15,9,,,,,106.5375151000917,107.18821290018968,107.18821290018968,107.67270740005188,315,45,107.67270740005188,107.67270740005188,107.67270740005188,107.67270740005188,107.67270740005188,107.67270740005188,107.67270740005188,107.67270740005188,107.67270740005188,108.03865780006163,108.03865780006163,108.03865780006163,108.03865780006163,108.03865780006163,108.03865780006163,108.03865780006163,108.03865780006163,108.03865780006163,22,1,[0.1668356000445783],[0.18322620005346835],108.03865780006163,108.23918310017325,4.9,108.23918310017325,0,4.9,1,0,1000,num_1,0.5812434998806566,,34,1,2026-03-13_10h12.09.828,2026A_exp2,2022.2.4,60.100199087238515,
1,0,0.0,4.9,1,0,16,16,1,,,,,108.83972220006399,109.49049770017155,109.49049770017155,109.97494810004719,315,45,109.97494810004719,109.97494810004719,109.97494810004719,109.97494810004719,109.97494810004719,109.97494810004719,109.97494810004719,109.97494810004719,109.97494810004719,110.34135730005801,110.34135730005801,110.34135730005801,110.34135730005801,110.34135730005801,110.34135730005801,110.34135730005801,110.34135730005801,110.34135730005801,23,0,,,110.34135730005801,110.54150340007618,4.9,110.54150340007618,1,4.9,1,1,1000,num_4,0.7501441999338567,,34,1,2026-03-13_10h12.09.828,2026A_exp2,2022.2.4,60.100199087238515,
1,0,0.0,0.0,0,0,17,17,17,,,,,111.30919490009546,111.95941550005227,111.95941550005227,112.44394010002725,315,315,112.44394010002725,112.44394010002725,112.44394010002725,112.44394010002725,112.44394010002725,112.44394010002725,112.44394010002725,112.44394010002725,112.44394010002725,112.81039660004899,112.81039660004899,112.81039660004899,112.81039660004899,112.81039660004899,112.81039660004899,112.81039660004899,112.81039660004899,112.81039660004899,23,0,,,112.81039660004899,113.01070460001938,0.0,113.01070460001938,0,0.0,0,1,1000,num_1,0.6886300998739898,,34,1,2026-03-13_10h12.09.828,2026A_exp2,2022.2.4,60.100199087238515,
1,0,0.0,3.7,1,0,18,18,0,,,,,113.72801210009493,114.37869570008479,114.37869570008479,114.8630576999858,45,45,114.8630576999858,114.8630576999858,114.8630576999858,114.8630576999858,114.8630576999858,114.8630576999858,114.8630576999858,114.8630576999858,114.8630576999858,115.22950060013682,115.22950060013682,115.22950060013682,115.22950060013682,115.22950060013682,115.22950060013682,115.22950060013682,115.22950060013682,115.22950060013682,23,0,,,115.22950060013682,115.4296927000396,3.7,115.4296927000396,1,3.7,1,1,1000,num_4,0.5982649999205023,,34,1,2026-03-13_10h12.09.828,2026A_exp2,2022.2.4,60.100199087238515,
1000,1,0.0,0.0,1,0,19,19,56,,,,,116.04677940020338,116.681056200061,116.681056200061,117.18205770011991,45,315,117.18205770011991,117.18205770011991,117.18205770011991,117.18205770011991,117.18205770011991,117.18205770011991,117.18205770011991,117.18205770011991,117.18205770011991,117.54857460013591,117.54857460013591,117.54857460013591,117.54857460013591,117.54857460013591,117.54857460013591,117.54857460013591,117.54857460013591,117.54857460013591,23,0,,,117.54857460013591,117.75063720019534,1000,117.75063720019534,1000,1000,1000,1000,1,num_2,0.5900363998953253,,34,1,2026-03-13_10h12.09.828,2026A_exp2,2022.2.4,60.100199087238515,
1000,1,0.0,0.0,1,0,20,20,46,,,,,118.36583600006998,119.01655940013006,119.01655940013006,119.51784580014646,45,45,119.51784580014646,119.51784580014646,119.51784580014646,119.51784580014646,119.51784580014646,119.51784580014646,119.51784580014646,119.51784580014646,119.51784580014646,119.86754130013287,119.86754130013287,119.86754130013287,119.86754130013287,119.86754130013287,119.86754130013287,119.86754130013287,119.86754130013287,119.86754130013287,22,0,,,119.86754130013287,120.07020890014246,1000,120.08429650007747,1000,1000,1000,1000,1,num_2,0.4230401997920126,,34,1,2026-03-13_10h12.09.828,2026A_exp2,2022.2.4,60.100199087238515,
1,0,4.9,6.1,0,0,21,21,33,,,,,120.53471580008045,121.19569510011934,121.19569510011934,121.70166860008612,315,315,121.70166860008612,121.70166860008612,121.70166860008612,121.70166860008612,121.70166860008612,121.70166860008612,121.70166860008612,121.70166860008612,121.70166860008612,122.05316130002029,122.05316130002029,122.05316130002029,122.05316130002029,122.05316130002029,122.05316130002029,122.05316130002029,122.05316130002029,122.05316130002029,23,0,,,122.05316130002029,122.25332220015116,4.9,122.25332220015116,0,4.9,1,0,1000,num_1,0.6624846998602152,,34,1,2026-03-13_10h12.09.828,2026A_exp2,2022.2.4,60.100199087238515,
1000,1,3.7,0.0,1,0,22,22,54,,,,,122.93712610006332,123.5879689999856,123.5879689999856,124.07233910006471,45,315,124.07233910006471,124.07233910006471,124.07233910006471,124.07233910006471,124.07233910006471,124.07233910006471,124.07233910006471,124.07233910006471,124.07233910006471,124.43880850006826,124.43880850006826,124.43880850006826,124.43880850006826,124.43880850006826,124.43880850006826,124.43880850006826,124.43880850006826,124.43880850006826,23,0,,,124.43880850006826,124.64150740019977,1000,124.64150740019977,1000,1000,1000,1000,1,num_2,0.6271114996634424,,34,1,2026-03-13_10h12.09.828,2026A_exp2,2022.2.4,60.100199087238515,
1000,1,0.0,0.0,0,0,23,23,72,,,,,125.28965619998053,125.94020429998636,125.94020429998636,126.44123640004545,315,315,126.44123640004545,126.44123640004545,126.44123640004545,126.44123640004545,126.44123640004545,126.44123640004545,126.44123640004545,126.44123640004545,126.44123640004545,126.80773890018463,126.80773890018463,126.80773890018463,126.80773890018463,126.80773890018463,126.80773890018463,126.80773890018463,126.80773890018463,126.80773890018463,23,0,,,126.80773890018463,127.00982150016353,1000,127.00982150016353,1000,1000,1000,1000,1,num_2,0.866076499922201,,34,1,2026-03-13_10h12.09.828,2026A_exp2,2022.2.4,60.100199087238515,
1000,1,3.7,4.9,0,0,24,24,64,,,,,127.89204060006887,128.54261040012352,128.54261040012352,129.04390080017038,45,45,129.04390080017038,129.04390080017038,129.04390080017038,129.04390080017038,129.04390080017038,129.04390080017038,129.04390080017038,129.04390080017038,129.04390080017038,129.4103837001603,129.4103837001603,129.4103837001603,129.4103837001603,129.4103837001603,129.4103837001603,129.4103837001603,129.4103837001603,129.4103837001603,23,0,,,129.4103837001603,129.6128099001944,1000,129.6128099001944,1000,1000,1000,1000,1,num_2,0.4547003998886794,,34,1,2026-03-13_10h12.09.828,2026A_exp2,2022.2.4,60.100199087238515,
1000,1,0.0,0.0,1,0,25,25,40,,,,,130.09439440001734,130.74511860008352,130.74511860008352,131.2459424000699,315,45,131.2459424000699,131.2459424000699,131.2459424000699,131.2459424000699,131.2459424000699,131.2459424000699,131.2459424000699,131.2459424000699,131.2459424000699,131.61252430011518,131.61252430011518,131.61252430011518,131.61252430011518,131.61252430011518,131.61252430011518,131.61252430011518,131.61252430011518,131.61252430011518,23,0,,,131.61252430011518,131.81467170012183,1000,131.81467170012183,1000,1000,1000,1000,0,num_3,0.6380588999018073,,34,1,2026-03-13_10h12.09.828,2026A_exp2,2022.2.4,60.100199087238515,
1,0,0.0,0.0,0,0,26,26,34,,,,,132.47999410005286,133.13079630001448,133.13079630001448,133.63195389998145,315,315,133.63195389998145,133.63195389998145,133.63195389998145,133.63195389998145,133.63195389998145,133.63195389998145,133.63195389998145,133.63195389998145,133.63195389998145,133.98165620001964,133.98165620001964,133.98165620001964,133.98165620001964,133.98165620001964,133.98165620001964,133.98165620001964,133.98165620001964,133.98165620001964,22,0,,,133.98165620001964,134.1817205999978,0.0,134.1817205999978,0,0.0,0,1,1000,num_1,0.5345610999502242,,34,1,2026-03-13_10h12.09.828,2026A_exp2,2022.2.4,60.100199087238515,
1000,1,0.0,4.9,1,0,27,27,55,,,,,134.73225350002758,135.38310250011273,135.38310250011273,135.8675125001464,315,45,135.8675125001464,135.8675125001464,135.8675125001464,135.8675125001464,135.8675125001464,135.8675125001464,135.8675125001464,135.8675125001464,135.8675125001464,136.23393280012533,136.23393280012533,136.23393280012533,136.23393280012533,136.23393280012533,136.23393280012533,136.23393280012533,136.23393280012533,136.23393280012533,23,0,,,136.23393280012533,136.43581230007112,1000,136.43581230007112,1000,1000,1000,1000,1,num_2,0.42389729991555214,,34,1,2026-03-13_10h12.09.828,2026A_exp2,2022.2.4,60.100199087238515,
1000,1,3.7,4.9,1,0,28,28,20,,,,,136.88485190016218,137.53520160005428,137.53520160005428,138.01966730016284,45,45,138.01966730016284,138.01966730016284,138.01966730016284,138.01966730016284,138.01966730016284,138.01966730016284,138.01966730016284,138.01966730016284,138.01966730016284,138.38603050005622,138.38603050005622,138.38603050005622,138.38603050005622,138.38603050005622,138.38603050005622,138.38603050005622,138.38603050005622,138.38603050005622,23,0,,,138.38603050005622,138.58843370014802,1000,138.58843370014802,1000,1000,1000,1000,1,num_2,0.4230684000067413,,34,1,2026-03-13_10h12.09.828,2026A_exp2,2022.2.4,60.100199087238515,
1000,1,6.1,4.9,0,0,29,29,68,,,,,139.03677650005557,139.68727660016157,139.68727660016157,140.18850770010613,315,315,140.18850770010613,140.18850770010613,140.18850770010613,140.18850770010613,140.18850770010613,140.18850770010613,140.18850770010613,140.18850770010613,140.18850770010613,140.53825740003958,140.53825740003958,140.53825740003958,140.53825740003958,140.53825740003958,140.53825740003958,140.53825740003958,140.53825740003958,140.53825740003958,22,0,,,140.53825740003958,140.74008750007488,1000,140.74008750007488,1000,1000,1000,1000,0,num_3,0.4550993999000639,,34,1,2026-03-13_10h12.09.828,2026A_exp2,2022.2.4,60.100199087238515,
1000,1,4.9,0.0,0,0,30,30,50,,,,,141.22222720016725,141.8727812001016,141.8727812001016,142.3739444001112,315,45,142.3739444001112,142.3739444001112,142.3739444001112,142.3739444001112,142.3739444001112,142.3739444001112,142.3739444001112,142.3739444001112,142.3739444001112,142.72371230018325,142.72371230018325,142.72371230018325,142.72371230018325,142.72371230018325,142.72371230018325,142.72371230018325,142.72371230018325,142.72371230018325,22,0,,,142.72371230018325,142.92578879999928,1000,142.92578879999928,1000,1000,1000,1000,0,num_3,0.4300887000281364,,34,1,2026-03-13_10h12.09.828,2026A_exp2,2022.2.4,60.100199087238515,
1000,1,0.0,3.7,1,0,31,31,65,,,,,143.37420800002292,144.0250034001656,144.0250034001656,144.52613650006242,315,45,144.52613650006242,144.52613650006242,144.52613650006242,144.52613650006242,144.52613650006242,144.52613650006242,144.52613650006242,144.52613650006242,144.52613650006242,144.8758229999803,144.8758229999803,144.8758229999803,144.8758229999803,144.8758229999803,144.8758229999803,144.8758229999803,144.8758229999803,144.8758229999803,22,0,,,144.8758229999803,145.07792489998974,1000,145.07792489998974,1000,1000,1000,1000,1,num_2,0.47040849970653653,,34,1,2026-03-13_10h12.09.828,2026A_exp2,2022.2.4,60.100199087238515,
1000,1,0.0,6.1,1,0,32,32,69,,,,,145.5764961000532,146.22726230020635,146.22726230020635,146.7281498000957,45,45,146.7281498000957,146.7281498000957,146.7281498000957,146.7281498000957,146.7281498000957,146.7281498000957,146.7281498000957,146.7281498000957,146.7281498000957,147.09457870014012,147.09457870014012,147.09457870014012,147.09457870014012,147.09457870014012,147.09457870014012,147.09457870014012,147.09457870014012,147.09457870014012,23,0,,,147.09457870014012,147.3289416001644,1000,147.3289416001644,1000,1000,1000,1000,1,num_2,0.47572429990395904,,34,1,2026-03-13_10h12.09.828,2026A_exp2,2022.2.4,60.100199087238515,
1,0,0.0,0.0,1,0,33,33,21,,,,,147.82877580006607,148.47948010009713,148.47948010009713,148.9805883001536,315,315,148.9805883001536,148.9805883001536,148.9805883001536,148.9805883001536,148.9805883001536,148.9805883001536,148.9805883001536,148.9805883001536,148.9805883001536,149.3469715001993,149.3469715001993,149.3469715001993,149.3469715001993,149.3469715001993,149.3469715001993,149.3469715001993,149.3469715001993,149.3469715001993,23,0,,,149.3469715001993,149.547173100058,0.0,149.547173100058,0,0.0,0,1,1000,num_1,0.6564078996889293,,34,1,2026-03-13_10h12.09.828,2026A_exp2,2022.2.4,60.100199087238515,
1,0,0.0,3.7,0,0,34,34,61,,,,,150.2310262999963,150.88187510007992,150.88187510007992,151.38305390020832,315,45,151.38305390020832,151.38305390020832,151.38305390020832,151.38305390020832,151.38305390020832,151.38305390020832,151.38305390020832,151.38305390020832,151.38305390020832,151.73275480000302,151.73275480000302,151.73275480000302,151.73275480000302,151.73275480000302,151.73275480000302,151.73275480000302,151.73275480000302,151.73275480000302,22,0,,,151.73275480000302,151.93280580011196,0.0,151.93280580011196,0,0.0,0,1,1000,num_1,0.7346457000821829,,34,1,2026-03-13_10h12.09.828,2026A_exp2,2022.2.4,60.100199087238515,
1000,1,3.7,0.0,0,0,35,35,32,,,,,152.6835398999974,153.33433660003357,153.33433660003357,153.81878340011463,45,45,153.81878340011463,153.81878340011463,153.81878340011463,153.81878340011463,153.81878340011463,153.81878340011463,153.81878340011463,153.81878340011463,153.81878340011463,154.1851803001482,154.1851803001482,154.1851803001482,154.1851803001482,154.1851803001482,154.1851803001482,154.1851803001482,154.1851803001482,154.1851803001482,23,0,,,154.1851803001482,154.38763790018857,1000,154.38763790018857,1000,1000,1000,1000,0,num_3,0.4957787999883294,,34,1,2026-03-13_10h12.09.828,2026A_exp2,2022.2.4,60.100199087238515,
1000,1,0.0,6.1,0,0,36,36,2,,,,,154.9024752001278,155.55304270004854,155.55304270004854,156.0543816999998,315,45,156.0543816999998,156.0543816999998,156.0543816999998,156.0543816999998,156.0543816999998,156.0543816999998,156.0543816999998,156.0543816999998,156.0543816999998,156.42076860019006,156.42076860019006,156.42076860019006,156.42076860019006,156.42076860019006,156.42076860019006,156.42076860019006,156.42076860019006,156.42076860019006,23,0,,,156.42076860019006,156.62285610008985,1000,156.62285610008985,1000,1000,1000,1000,1,num_2,0.5652889998164028,,34,1,2026-03-13_10h12.09.828,2026A_exp2,2022.2.4,60.100199087238515,
1000,1,0.0,0.0,0,0,37,37,36,,,,,157.204757100204,157.85557490005158,157.85557490005158,158.3564737001434,315,45,158.3564737001434,158.3564737001434,158.3564737001434,158.3564737001434,158.3564737001434,158.3564737001434,158.3564737001434,158.3564737001434,158.3564737001434,158.723090399988,158.723090399988,158.723090399988,158.723090399988,158.723090399988,158.723090399988,158.723090399988,158.723090399988,158.723090399988,23,0,,,158.723090399988,158.92480480019003,1000,158.92480480019003,1000,1000,1000,1000,1,num_2,0.5599479998927563,,34,1,2026-03-13_10h12.09.828,2026A_exp2,2022.2.4,60.100199087238515,
1,0,3.7,6.1,1,0,38,38,77,,,,,159.50700910016894,160.15786230005324,160.15786230005324,160.65911580016837,45,45,160.65911580016837,160.65911580016837,160.65911580016837,160.65911580016837,160.65911580016837,160.65911580016837,160.65911580016837,160.65911580016837,160.65911580016837,161.02538150013424,161.02538150013424,161.02538150013424,161.02538150013424,161.02538150013424,161.02538150013424,161.02538150013424,161.02538150013424,161.02538150013424,23,0,,,161.02538150013424,161.22546250000596,6.1,161.22546250000596,1,6.1,1,1,1000,num_4,0.627317399950698,,34,1,2026-03-13_10h12.09.828,2026A_exp2,2022.2.4,60.100199087238515,
1000,1,3.7,6.1,1,0,39,39,29,,,,,161.87604160001501,162.5267172001768,162.5267172001768,163.01121760020033,315,315,163.01121760020033,163.01121760020033,163.01121760020033,163.01121760020033,163.01121760020033,163.01121760020033,163.01121760020033,163.01121760020033,163.01121760020033,163.3777348001022,163.3777348001022,163.3777348001022,163.3777348001022,163.3777348001022,163.3777348001022,163.3777348001022,163.3777348001022,163.3777348001022,23,0,,,163.3777348001022,163.57995530008338,1000,163.57995530008338,1000,1000,1000,1000,1,num_2,0.8313753998372704,,34,1,2026-03-13_10h12.09.828,2026A_exp2,2022.2.4,60.100199087238515,
0,0,3.7,6.1,0,0,40,40,73,,,,,164.42876860010438,165.07939420011826,165.07939420011826,165.58055329998024,45,315,165.58055329998024,165.58055329998024,165.58055329998024,165.58055329998024,165.58055329998024,165.58055329998024,165.58055329998024,165.58055329998024,165.58055329998024,165.93028510012664,165.93028510012664,165.93028510012664,165.93028510012664,165.93028510012664,165.93028510012664,165.93028510012664,165.93028510012664,165.93028510012664,22,0,,,165.93028510012664,166.13042340008542,6.1,166.13042340008542,1,6.1,1,1,1000,num_4,0.6093498999252915,,34,1,2026-03-13_10h12.09.828,2026A_exp2,2022.2.4,60.100199087238515,
0,0,0.0,0.0,0,0,41,41,70,,,,,166.7642957000062,167.4152131001465,167.4152131001465,167.89931110013276,45,45,167.89931110013276,167.89931110013276,167.89931110013276,167.89931110013276,167.89931110013276,167.89931110013276,167.89931110013276,167.89931110013276,167.89931110013276,168.26597270020284,168.26597270020284,168.26597270020284,168.26597270020284,168.26597270020284,168.26597270020284,168.26597270020284,168.26597270020284,168.26597270020284,23,0,,,168.26597270020284,168.46583960019052,0.0,168.46583960019052,1,0.0,0,0,1000,num_4,0.6497795998584479,,34,1,2026-03-13_10h12.09.828,2026A_exp2,2022.2.4,60.100199087238515,
0,0,0.0,0.0,0,0,42,42,22,,,,,169.13318860018626,169.78402130003087,169.78402130003087,170.2684720000252,315,315,170.2684720000252,170.2684720000252,170.2684720000252,170.2684720000252,170.2684720000252,170.2684720000252,170.2684720000252,170.2684720000252,170.2684720000252,170.63480770005845,170.63480770005845,170.63480770005845,170.63480770005845,170.63480770005845,170.63480770005845,170.63480770005845,170.63480770005845,170.63480770005845,23,0,,,170.63480770005845,170.83489580010064,0.0,170.8514746001456,1,0.0,0,0,1000,num_4,0.584292900050059,,34,1,2026-03-13_10h12.09.828,2026A_exp2,2022.2.4,60.100199087238515,
1000,1,6.1,0.0,0,0,43,43,89,,,,,171.4523430999834,172.1032440001145,172.1032440001145,172.58752280008048,315,45,172.58752280008048,172.58752280008048,172.58752280008048,172.58752280008048,172.58752280008048,172.58752280008048,172.58752280008048,172.58752280008048,172.58752280008048,172.95400000014342,172.95400000014342,172.95400000014342,172.95400000014342,172.95400000014342,172.95400000014342,172.95400000014342,172.95400000014342,172.95400000014342,23,0,,,172.95400000014342,173.15611750003882,1000,173.15611750003882,1000,1000,1000,1000,0,num_3,0.4960417998954654,,34,1,2026-03-13_10h12.09.828,2026A_exp2,2022.2.4,60.100199087238515,
1,0,3.7,4.9,1,0,44,44,71,,,,,173.67121130018495,174.32201930019073,174.32201930019073,174.82321810000576,45,45,174.82321810000576,174.82321810000576,174.82321810000576,174.82321810000576,174.82321810000576,174.82321810000576,174.82321810000576,174.82321810000576,174.82321810000576,175.18950209999457,175.18950209999457,175.18950209999457,175.18950209999457,175.18950209999457,175.18950209999457,175.18950209999457,175.18950209999457,175.18950209999457,23,0,,,175.18950209999457,175.38961590011604,4.9,175.38961590011604,1,4.9,1,1,1000,num_4,0.5738039999268949,,34,1,2026-03-13_10h12.09.828,2026A_exp2,2022.2.4,60.100199087238515,
1000,1,0.0,6.1,1,0,45,45,62,,,,,175.99032069998793,176.6241796000395,176.6241796000395,177.1254197000526,315,315,177.1254197000526,177.1254197000526,177.1254197000526,177.1254197000526,177.1254197000526,177.1254197000526,177.1254197000526,177.1254197000526,177.1254197000526,177.49175970000215,177.49175970000215,177.49175970000215,177.49175970000215,177.49175970000215,177.49175970000215,177.49175970000215,177.49175970000215,177.49175970000215,23,0,,,177.49175970000215,177.6939123000484,1000,177.6939123000484,1000,1000,1000,1000,1,num_2,0.821753199910745,,34,1,2026-03-13_10h12.09.828,2026A_exp2,2022.2.4,60.100199087238515,
1000,1,0.0,0.0,1,0,46,46,23,,,,,178.5429543000646,179.1935876000207,179.1935876000207,179.6778283000458,45,45,179.6778283000458,179.6778283000458,179.6778283000458,179.6778283000458,179.6778283000458,179.6778283000458,179.6778283000458,179.6778283000458,179.6778283000458,180.04419510019943,180.04419510019943,180.04419510019943,180.04419510019943,180.04419510019943,180.04419510019943,180.04419510019943,180.04419510019943,180.04419510019943,23,0,,,180.04419510019943,180.24664770020172,1000,180.24664770020172,1000,1000,1000,1000,1,num_2,0.5900908999610692,,34,1,2026-03-13_10h12.09.828,2026A_exp2,2022.2.4,60.100199087238515,
1,0,3.7,0.0,1,0,47,47,28,,,,,180.86205530003645,181.51255080010742,181.51255080010742,181.99698190018535,45,45,181.99698190018535,181.99698190018535,181.99698190018535,181.99698190018535,181.99698190018535,181.99698190018535,181.99698190018535,181.99698190018535,181.99698190018535,182.36337710008956,182.36337710008956,182.36337710008956,182.36337710008956,182.36337710008956,182.36337710008956,182.36337710008956,182.36337710008956,182.36337710008956,23,0,,,182.36337710008956,182.56353370007128,0.0,182.56353370007128,0,0.0,0,1,1000,num_1,0.7931568999774754,,34,1,2026-03-13_10h12.09.828,2026A_exp2,2022.2.4,60.100199087238515,
1000,1,0.0,6.1,1,0,48,48,19,,,,,183.3808731001336,184.03171090013348,184.03171090013348,184.51580500020646,315,315,184.51580500020646,184.51580500020646,184.51580500020646,184.51580500020646,184.51580500020646,184.51580500020646,184.51580500020646,184.51580500020646,184.51580500020646,184.88258620002307,184.88258620002307,184.88258620002307,184.88258620002307,184.88258620002307,184.88258620002307,184.88258620002307,184.88258620002307,184.88258620002307,23,0,,,184.88258620002307,185.08493800018914,1000,185.08493800018914,1000,1000,1000,1000,1,num_2,0.5028837998397648,,34,1,2026-03-13_10h12.09.828,2026A_exp2,2022.2.4,60.100199087238515,
1000,1,0.0,4.9,0,0,49,49,74,,,,,185.61651389999315,186.26724550011568,186.26724550011568,186.76830560015514,315,315,186.76830560015514,186.76830560015514,186.76830560015514,186.76830560015514,186.76830560015514,186.76830560015514,186.76830560015514,186.76830560015514,186.76830560015514,187.13485640008003,187.13485640008003,187.13485640008003,187.13485640008003,187.13485640008003,187.13485640008003,187.13485640008003,187.13485640008003,187.13485640008003,23,0,,,187.13485640008003,187.3372212999966,1000,187.3372212999966,1000,1000,1000,1000,1,num_2,0.4505801999475807,,34,1,2026-03-13_10h12.09.828,2026A_exp2,2022.2.4,60.100199087238515,
1000,1,0.0,4.9,1,0,50,50,79,,,,,187.81866410002112,188.4693997001741,188.4693997001741,188.97065040003508,315,315,188.97065040003508,188.97065040003508,188.97065040003508,188.97065040003508,188.97065040003508,188.97065040003508,188.97065040003508,188.97065040003508,188.97065040003508,189.33699770015664,189.33699770015664,189.33699770015664,189.33699770015664,189.33699770015664,189.33699770015664,189.33699770015664,189.33699770015664,189.33699770015664,23,0,,,189.33699770015664,189.53903340012766,1000,189.53903340012766,1000,1000,1000,1000,1,num_2,0.5364902000874281,,34,1,2026-03-13_10h12.09.828,2026A_exp2,2022.2.4,60.100199087238515,
1,0,3.7,0.0,1,0,51,51,11,,,,,190.10445390013047,190.755080900155,190.755080900155,191.2393695001956,45,315,191.2393695001956,191.2393695001956,191.2393695001956,191.2393695001956,191.2393695001956,191.2393695001956,191.2393695001956,191.2393695001956,191.2393695001956,191.6059020999819,191.6059020999819,191.6059020999819,191.6059020999819,191.6059020999819,191.6059020999819,191.6059020999819,191.6059020999819,191.6059020999819,23,0,,,191.6059020999819,191.80622460017912,0.0,191.80622460017912,0,0.0,0,1,1000,num_1,0.7494134998414665,,34,1,2026-03-13_10h12.09.828,2026A_exp2,2022.2.4,60.100199087238515,
1000,1,3.7,0.0,0,0,52,52,66,,,,,192.5734569001943,193.22414400009438,193.22414400009438,193.70864169998094,315,315,193.70864169998094,193.70864169998094,193.70864169998094,193.70864169998094,193.70864169998094,193.70864169998094,193.70864169998094,193.70864169998094,193.70864169998094,194.07509470009245,194.07509470009245,194.07509470009245,194.07509470009245,194.07509470009245,194.07509470009245,194.07509470009245,194.07509470009245,194.07509470009245,23,0,,,194.07509470009245,194.27720830007456,1000,194.27720830007456,1000,1000,1000,1000,1,num_2,1.0623514999169856,,34,1,2026-03-13_10h12.09.828,2026A_exp2,2022.2.4,60.100199087238515,
0,0,6.1,0.0,1,0,53,53,30,,,,,195.35984060005285,196.01029530004598,196.01029530004598,196.5113954001572,315,45,196.5113954001572,196.5113954001572,196.5113954001572,196.5113954001572,196.5113954001572,196.5113954001572,196.5113954001572,196.5113954001572,196.5113954001572,196.87782100006007,196.87782100006007,196.87782100006007,196.87782100006007,196.87782100006007,196.87782100006007,196.87782100006007,196.87782100006007,196.87782100006007,23,0,,,196.87782100006007,197.07803000020795,6.1,197.07803000020795,1,6.1,1,1,1000,num_4,0.5906384000554681,,34,1,2026-03-13_10h12.09.828,2026A_exp2,2022.2.4,60.100199087238515,
1000,1,0.0,4.9,0,0,54,54,53,,,,,197.69521620008163,198.34602870000526,198.34602870000526,198.8302906001918,315,45,198.8302906001918,198.8302906001918,198.8302906001918,198.8302906001918,198.8302906001918,198.8302906001918,198.8302906001918,198.8302906001918,198.8302906001918,199.19682599999942,199.19682599999942,199.19682599999942,199.19682599999942,199.19682599999942,199.19682599999942,199.19682599999942,199.19682599999942,199.19682599999942,23,0,,,199.19682599999942,199.39930240018293,1000,199.39930240018293,1000,1000,1000,1000,1,num_2,0.4612294998951256,,34,1,2026-03-13_10h12.09.828,2026A_exp2,2022.2.4,60.100199087238515,
1000,1,0.0,6.1,1,0,55,55,52,,,,,199.88077570009045,200.5315344000701,200.5315344000701,201.03274090006016,315,45,201.03274090006016,201.03274090006016,201.03274090006016,201.03274090006016,201.03274090006016,201.03274090006016,201.03274090006016,201.03274090006016,201.03274090006016,201.39902300015092,201.39902300015092,201.39902300015092,201.39902300015092,201.39902300015092,201.39902300015092,201.39902300015092,201.39902300015092,201.39902300015092,23,0,,,201.39902300015092,201.6015892000869,1000,201.6015892000869,1000,1000,1000,1000,1,num_2,0.3778047999367118,,34,1,2026-03-13_10h12.09.828,2026A_exp2,2022.2.4,60.100199087238515,
1,0,4.9,4.9,0,0,56,56,84,,,,,201.99981599999592,202.6503842000384,202.6503842000384,203.15113210002892,315,45,203.15113210002892,203.15113210002892,203.15113210002892,203.15113210002892,203.15113210002892,203.15113210002892,203.15113210002892,203.15113210002892,203.15113210002892,203.51786000002176,203.51786000002176,203.51786000002176,203.51786000002176,203.51786000002176,203.51786000002176,203.51786000002176,203.51786000002176,203.51786000002176,23,0,,,203.51786000002176,203.71811430016533,4.9,203.71811430016533,1,4.9,1,1,1000,num_4,0.5822187997400761,,34,1,2026-03-13_10h12.09.828,2026A_exp2,2022.2.4,60.100199087238515,
0,0,6.1,6.1,0,0,57,57,42,,,,,204.3185633001849,204.96925910003483,204.96925910003483,205.47026640013792,315,45,205.47026640013792,205.47026640013792,205.47026640013792,205.47026640013792,205.47026640013792,205.47026640013792,205.47026640013792,205.47026640013792,205.47026640013792,205.81994160008617,205.81994160008617,205.81994160008617,205.81994160008617,205.81994160008617,205.81994160008617,205.81994160008617,205.81994160008617,205.81994160008617,22,0,,,205.81994160008617,206.02027530013584,6.1,206.02027530013584,1,6.1,1,1,1000,num_4,0.6481520999222994,,34,1,2026-03-13_10h12.09.828,2026A_exp2,2022.2.4,60.100199087238515,
1000,1,0.0,6.1,0,0,58,58,75,,,,,206.68753390014172,207.3384094000794,207.3384094000794,207.82267050002702,45,315,207.82267050002702,207.82267050002702,207.82267050002702,207.82267050002702,207.82267050002702,207.82267050002702,207.82267050002702,207.82267050002702,207.82267050002702,208.18928430019878,208.18928430019878,208.18928430019878,208.18928430019878,208.18928430019878,208.18928430019878,208.18928430019878,208.18928430019878,208.18928430019878,23,0,,,208.18928430019878,208.39044090011157,1000,208.39044090011157,1000,1000,1000,1000,1,num_2,0.4290100997313857,,34,1,2026-03-13_10h12.09.828,2026A_exp2,2022.2.4,60.100199087238515,
1,0,4.9,0.0,1,0,59,59,25,,,,,208.84001050004736,209.4905006000772,209.4905006000772,209.97495470009744,315,315,209.97495470009744,209.97495470009744,209.97495470009744,209.97495470009744,209.97495470009744,209.97495470009744,209.97495470009744,209.97495470009744,209.97495470009744,210.34133120020851,210.34133120020851,210.34133120020851,210.34133120020851,210.34133120020851,210.34133120020851,210.34133120020851,210.34133120020851,210.34133120020851,23,0,,,210.34133120020851,210.54150580009446,0.0,210.54150580009446,0,0.0,0,1,1000,num_1,0.639154699863866,,34,1,2026-03-13_10h12.09.828,2026A_exp2,2022.2.4,60.100199087238515,
1,0,0.0,6.1,0,0,60,60,43,,,,,211.20862520020455,211.8595098000951,211.8595098000951,212.34399930015206,45,315,212.34399930015206,212.34399930015206,212.34399930015206,212.34399930015206,212.34399930015206,212.34399930015206,212.34399930015206,212.34399930015206,212.34399930015206,212.71038469998166,212.71038469998166,212.71038469998166,212.71038469998166,212.71038469998166,212.71038469998166,212.71038469998166,212.71038469998166,212.71038469998166,23,0,,,212.71038469998166,212.91049540019594,0.0,212.91049540019594,0,0.0,0,1,1000,num_1,0.557247799821198,,34,1,2026-03-13_10h12.09.828,2026A_exp2,2022.2.4,60.100199087238515,
1000,1,0.0,0.0,0,0,61,61,37,,,,,213.49424800020643,214.12841330002993,214.12841330002993,214.6295924000442,315,45,214.6295924000442,214.6295924000442,214.6295924000442,214.6295924000442,214.6295924000442,214.6295924000442,214.6295924000442,214.6295924000442,214.6295924000442,214.995866100071,214.995866100071,214.995866100071,214.995866100071,214.995866100071,214.995866100071,214.995866100071,214.995866100071,214.995866100071,23,0,,,214.995866100071,215.1984201001469,1000,215.1984201001469,1000,1000,1000,1000,1,num_2,0.5257612997666001,,34,1,2026-03-13_10h12.09.828,2026A_exp2,2022.2.4,60.100199087238515,
1000,1,0.0,3.7,0,0,62,62,57,,,,,215.74664290016517,216.39735740004107,216.39735740004107,216.89850770006888,45,315,216.89850770006888,216.89850770006888,216.89850770006888,216.89850770006888,216.89850770006888,216.89850770006888,216.89850770006888,216.89850770006888,216.89850770006888,217.26487120008096,217.26487120008096,217.26487120008096,217.26487120008096,217.26487120008096,217.26487120008096,217.26487120008096,217.26487120008096,217.26487120008096,23,0,,,217.26487120008096,217.467394300038,1000,217.467394300038,1000,1000,1000,1000,1,num_2,0.46431959979236126,,34,1,2026-03-13_10h12.09.828,2026A_exp2,2022.2.4,60.100199087238515,
1,0,0.0,0.0,0,0,63,63,51,,,,,217.9488449001219,218.59947090013884,218.59947090013884,219.10074970009737,45,45,219.10074970009737,219.10074970009737,219.10074970009737,219.10074970009737,219.10074970009737,219.10074970009737,219.10074970009737,219.10074970009737,219.10074970009737,219.46714650001377,219.46714650001377,219.46714650001377,219.46714650001377,219.46714650001377,219.46714650001377,219.46714650001377,219.46714650001377,219.46714650001377,23,0,,,219.46714650001377,219.66730740014464,0.0,219.66730740014464,0,0.0,0,1,1000,num_1,0.4889133998658508,,34,1,2026-03-13_10h12.09.828,2026A_exp2,2022.2.4,60.100199087238515,
1000,1,0.0,0.0,0,0,64,64,6,,,,,220.18456080020405,220.8351818001829,220.8351818001829,221.3197767001111,315,45,221.3197767001111,221.3197767001111,221.3197767001111,221.3197767001111,221.3197767001111,221.3197767001111,221.3197767001111,221.3197767001111,221.3197767001111,221.68604120006785,221.68604120006785,221.68604120006785,221.68604120006785,221.68604120006785,221.68604120006785,221.68604120006785,221.68604120006785,221.68604120006785,23,0,,,221.68604120006785,221.8883679001592,1000,221.8883679001592,1000,1000,1000,1000,0,num_3,0.9309288000222296,,34,1,2026-03-13_10h12.09.828,2026A_exp2,2022.2.4,60.100199087238515,
1,0,0.0,0.0,0,0,65,65,44,,,,,222.8370726001449,223.48788720020093,223.48788720020093,223.98881700006314,45,45,223.98881700006314,223.98881700006314,223.98881700006314,223.98881700006314,223.98881700006314,223.98881700006314,223.98881700006314,223.98881700006314,223.98881700006314,224.35533170006238,224.35533170006238,224.35533170006238,224.35533170006238,224.35533170006238,224.35533170006238,224.35533170006238,224.35533170006238,224.35533170006238,23,0,,,224.35533170006238,224.55558420019224,0.0,224.55558420019224,0,0.0,0,1,1000,num_1,0.49587380001321435,,34,1,2026-03-13_10h12.09.828,2026A_exp2,2022.2.4,60.100199087238515,
1000,1,0.0,0.0,1,0,66,66,16,,,,,225.07265830016695,225.72335890005343,225.72335890005343,226.20779940020293,45,315,226.20779940020293,226.20779940020293,226.20779940020293,226.20779940020293,226.20779940020293,226.20779940020293,226.20779940020293,226.20779940020293,226.20779940020293,226.5742936001625,226.5742936001625,226.5742936001625,226.5742936001625,226.5742936001625,226.5742936001625,226.5742936001625,226.5742936001625,226.5742936001625,23,0,,,226.5742936001625,226.77458170009777,1000,226.77458170009777,1000,1000,1000,1000,1,num_2,0.42951669986359775,,34,1,2026-03-13_10h12.09.828,2026A_exp2,2022.2.4,60.100199087238515,
1,0,0.0,0.0,1,0,67,67,24,,,,,227.22473970009014,227.8754997001961,227.8754997001961,228.3765377001837,315,45,228.3765377001837,228.3765377001837,228.3765377001837,228.3765377001837,228.3765377001837,228.3765377001837,228.3765377001837,228.3765377001837,228.3765377001837,228.7429433001671,228.7429433001671,228.7429433001671,228.7429433001671,228.7429433001671,228.7429433001671,228.7429433001671,228.7429433001671,228.7429433001671,23,0,,,228.7429433001671,228.94311830005608,0.0,228.94311830005608,0,0.0,0,1,1000,num_1,0.5009290997404605,,34,1,2026-03-13_10h12.09.828,2026A_exp2,2022.2.4,60.100199087238515,
1000,1,3.7,0.0,1,0,68,68,88,,,,,229.46036800020374,230.11095000011846,230.11095000011846,230.59546970017254,45,315,230.59546970017254,230.59546970017254,230.59546970017254,230.59546970017254,230.59546970017254,230.59546970017254,230.59546970017254,230.59546970017254,230.59546970017254,230.96161750005558,230.96161750005558,230.96161750005558,230.96161750005558,230.96161750005558,230.96161750005558,230.96161750005558,230.96161750005558,230.96161750005558,1,1,[0.0012597998138517141],[0.3664571999106556],230.96161750005558,231.1622960001696,1000,231.1622960001696,1000,1000,1000,1000,1,num_2,0.6178182999137789,,34,1,2026-03-13_10h12.09.828,2026A_exp2,2022.2.4,60.100199087238515,
1000,1,0.0,4.9,1,0,69,69,78,,,,,231.79601360019296,232.44680630019866,232.44680630019866,232.94783520000055,315,315,232.94783520000055,232.94783520000055,232.94783520000055,232.94783520000055,232.94783520000055,232.94783520000055,232.94783520000055,232.94783520000055,232.94783520000055,233.3141841001343,233.3141841001343,233.3141841001343,233.3141841001343,233.3141841001343,233.3141841001343,233.3141841001343,233.3141841001343,233.3141841001343,23,0,,,233.3141841001343,233.51642900006846,1000,233.51642900006846,1000,1000,1000,1000,1,num_2,0.4549691998399794,,34,1,2026-03-13_10h12.09.828,2026A_exp2,2022.2.4,60.100199087238515,
1,0,3.7,0.0,0,0,70,70,8,,,,,233.99829540005885,234.64890050003305,234.64890050003305,235.14999950001948,45,45,235.14999950001948,235.14999950001948,235.14999950001948,235.14999950001948,235.14999950001948,235.14999950001948,235.14999950001948,235.14999950001948,235.14999950001948,235.5166907000821,235.5166907000821,235.5166907000821,235.5166907000821,235.5166907000821,235.5166907000821,235.5166907000821,235.5166907000821,235.5166907000821,23,0,,,235.5166907000821,235.71676159999333,3.7,235.71676159999333,0,3.7,1,0,1000,num_1,0.43890259973704815,,34,1,2026-03-13_10h12.09.828,2026A_exp2,2022.2.4,60.100199087238515,
0,0,4.9,4.9,1,0,71,71,48,,,,,236.1851270000916,236.81775160017423,236.81775160017423,237.31894380017184,45,45,237.31894380017184,237.31894380017184,237.31894380017184,237.31894380017184,237.31894380017184,237.31894380017184,237.31894380017184,237.31894380017184,237.31894380017184,237.6851745999884,237.6851745999884,237.6851745999884,237.6851745999884,237.6851745999884,237.6851745999884,237.6851745999884,237.6851745999884,237.6851745999884,23,0,,,237.6851745999884,237.88555750017986,4.9,237.88555750017986,0,4.9,1,0,1000,num_1,0.5500725999008864,,34,1,2026-03-13_10h12.09.828,2026A_exp2,2022.2.4,60.100199087238515,
1000,1,0.0,6.1,0,0,72,72,35,,,,,238.45276190014556,239.10337040014565,239.10337040014565,239.58791100000963,45,315,239.58791100000963,239.58791100000963,239.58791100000963,239.58791100000963,239.58791100000963,239.58791100000963,239.58791100000963,239.58791100000963,239.58791100000963,239.95430400012992,239.95430400012992,239.95430400012992,239.95430400012992,239.95430400012992,239.95430400012992,239.95430400012992,239.95430400012992,239.95430400012992,23,0,,,239.95430400012992,240.15661420021206,1000,240.15661420021206,1000,1000,1000,1000,1,num_2,0.4720221997704357,,34,1,2026-03-13_10h12.09.828,2026A_exp2,2022.2.4,60.100199087238515,
1,0,4.9,0.0,0,0,73,73,4,,,,,240.6548645000439,241.30554510001093,241.30554510001093,241.80667369998991,45,45,241.80667369998991,241.80667369998991,241.80667369998991,241.80667369998991,241.80667369998991,241.80667369998991,241.80667369998991,241.80667369998991,241.80667369998991,242.17323520011269,242.17323520011269,242.17323520011269,242.17323520011269,242.17323520011269,242.17323520011269,242.17323520011269,242.17323520011269,242.17323520011269,23,0,,,242.17323520011269,242.37340830010362,4.9,242.37340830010362,0,4.9,1,0,1000,num_1,0.574898999882862,,34,1,2026-03-13_10h12.09.828,2026A_exp2,2022.2.4,60.100199087238515,
1,0,4.9,4.9,0,0,74,74,39,,,,,242.97390630003065,243.6245707999915,243.6245707999915,244.1089004999958,315,315,244.1089004999958,244.1089004999958,244.1089004999958,244.1089004999958,244.1089004999958,244.1089004999958,244.1089004999958,244.1089004999958,244.1089004999958,244.47542660008185,244.47542660008185,244.47542660008185,244.47542660008185,244.47542660008185,244.47542660008185,244.47542660008185,244.47542660008185,244.47542660008185,23,0,,,244.47542660008185,244.6754995000083,4.9,244.6754995000083,1,4.9,1,1,1000,num_4,0.6411860997322947,,34,1,2026-03-13_10h12.09.828,2026A_exp2,2022.2.4,60.100199087238515,
1,0,3.7,0.0,1,0,75,75,13,,,,,245.34302210016176,245.993656600127,245.993656600127,246.47800720017403,315,45,246.47800720017403,246.47800720017403,246.47800720017403,246.47800720017403,246.47800720017403,246.47800720017403,246.47800720017403,246.47800720017403,246.47800720017403,246.84444690006785,246.84444690006785,246.84444690006785,246.84444690006785,246.84444690006785,246.84444690006785,246.84444690006785,246.84444690006785,246.84444690006785,11,1,[0.18356929998844862],[0.36687550018541515],246.84444690006785,247.04446320002899,0.0,247.04446320002899,1,0.0,0,0,1000,num_4,0.9109380997251719,,34,1,2026-03-13_10h12.09.828,2026A_exp2,2022.2.4,60.100199087238515,
1,0,6.1,4.9,0,0,76,76,81,,,,,247.97890050010756,248.62965930020437,248.62965930020437,249.113993300125,315,45,249.113993300125,249.113993300125,249.113993300125,249.113993300125,249.113993300125,249.113993300125,249.113993300125,249.113993300125,249.113993300125,249.48048060014844,249.48048060014844,249.48048060014844,249.48048060014844,249.48048060014844,249.48048060014844,249.48048060014844,249.48048060014844,249.48048060014844,23,0,,,249.48048060014844,249.68071590014733,6.1,249.68071590014733,0,6.1,1,0,1000,num_1,0.5957804997451603,,34,1,2026-03-13_10h12.09.828,2026A_exp2,2022.2.4,60.100199087238515,
1,0,3.7,3.7,1,0,77,77,86,,,,,250.29804670019075,250.9485989001114,250.9485989001114,251.43323730002157,315,315,251.43323730002157,251.43323730002157,251.43323730002157,251.43323730002157,251.43323730002157,251.43323730002157,251.43323730002157,251.43323730002157,251.43323730002157,251.7994570999872,251.7994570999872,251.7994570999872,251.7994570999872,251.7994570999872,251.7994570999872,251.7994570999872,251.7994570999872,251.7994570999872,0,1,[0.0007201000116765499],[0.3674629998859018],251.7994570999872,251.9995918001514,3.7,251.9995918001514,1,3.7,1,1,1000,num_4,0.5001036999747157,,34,1,2026-03-13_10h12.09.828,2026A_exp2,2022.2.4,60.100199087238515,
0,0,0.0,0.0,1,0,78,78,38,,,,,252.51672359998338,253.16744800005108,253.16744800005108,253.6519358002115,315,315,253.6519358002115,253.6519358002115,253.6519358002115,253.6519358002115,253.6519358002115,253.6519358002115,253.6519358002115,253.6519358002115,253.6519358002115,254.01836550002918,254.01836550002918,254.01836550002918,254.01836550002918,254.01836550002918,254.01836550002918,254.01836550002918,254.01836550002918,254.01836550002918,23,0,,,254.01836550002918,254.2184926001355,0.0,254.2184926001355,0,0.0,0,1,1000,num_1,0.5853284997865558,,34,1,2026-03-13_10h12.09.828,2026A_exp2,2022.2.4,60.100199087238515,
1,0,6.1,3.7,0,0,79,79,31,,,,,254.83593280008063,255.4696631000843,255.4696631000843,255.9709360001143,45,315,255.9709360001143,255.9709360001143,255.9709360001143,255.9709360001143,255.9709360001143,255.9709360001143,255.9709360001143,255.9709360001143,255.9709360001143,256.3373122001067,256.3373122001067,256.3373122001067,256.3373122001067,256.3373122001067,256.3373122001067,256.3373122001067,256.3373122001067,256.3373122001067,23,0,,,256.3373122001067,256.5373911000788,6.1,256.5373911000788,1,6.1,1,1,1000,num_4,0.7630859999917448,,34,1,2026-03-13_10h12.09.828,2026A_exp2,2022.2.4,60.100199087238515,
1000,1,0.0,0.0,0,0,80,80,15,,,,,257.3215752001852,257.97230920009315,257.97230920009315,258.45676900004037,45,315,258.45676900004037,258.45676900004037,258.45676900004037,258.45676900004037,258.45676900004037,258.45676900004037,258.45676900004037,258.45676900004037,258.45676900004037,258.8231174000539,258.8231174000539,258.8231174000539,258.8231174000539,258.8231174000539,258.8231174000539,258.8231174000539,258.8231174000539,258.8231174000539,23,0,,,258.8231174000539,259.025273400126,1000,259.025273400126,1000,1000,1000,1000,1,num_2,0.4901044999714941,,34,1,2026-03-13_10h12.09.828,2026A_exp2,2022.2.4,60.100199087238515,
1000,1,0.0,6.1,0,0,81,81,58,,,,,259.54059300012887,260.19120460003614,260.19120460003614,260.6922329000663,45,315,260.6922329000663,260.6922329000663,260.6922329000663,260.6922329000663,260.6922329000663,260.6922329000663,260.6922329000663,260.6922329000663,260.6922329000663,261.0587560001295,261.0587560001295,261.0587560001295,261.0587560001295,261.0587560001295,261.0587560001295,261.0587560001295,261.0587560001295,261.0587560001295,21,2,"[0.0012181000784039497, 0.3670463999733329]","[0.01729650003835559, 0.3670510998927057]",261.0587560001295,261.2590104001574,1000,261.2590104001574,1000,1000,1000,1000,1,num_2,0.42454579984769225,,34,1,2026-03-13_10h12.09.828,2026A_exp2,2022.2.4,60.100199087238515,
1,0,6.1,6.1,0,0,82,82,27,,,,,261.7093735001981,262.360063200118,262.360063200118,262.86118650017306,45,315,262.86118650017306,262.86118650017306,262.86118650017306,262.86118650017306,262.86118650017306,262.86118650017306,262.86118650017306,262.86118650017306,262.86118650017306,263.2108684000559,263.2108684000559,263.2108684000559,263.2108684000559,263.2108684000559,263.2108684000559,263.2108684000559,263.2108684000559,263.2108684000559,20,1,[0.0336795998737216],[0.05045580002479255],263.2108684000559,263.41116340016015,6.1,263.41116340016015,0,6.1,1,0,1000,num_1,0.5613513998687267,,34,1,2026-03-13_10h12.09.828,2026A_exp2,2022.2.4,60.100199087238515,
1000,1,0.0,0.0,0,0,83,83,45,,,,,263.99510510009713,264.64565070020035,264.64565070020035,265.13008900010027,315,45,265.13008900010027,265.13008900010027,265.13008900010027,265.13008900010027,265.13008900010027,265.13008900010027,265.13008900010027,265.13008900010027,265.13008900010027,265.49632260017097,265.49632260017097,265.49632260017097,265.49632260017097,265.49632260017097,265.49632260017097,265.49632260017097,265.49632260017097,265.49632260017097,23,0,,,265.49632260017097,265.698364000069,1000,265.698364000069,1000,1000,1000,1000,1,num_2,0.4095833997707814,,34,1,2026-03-13_10h12.09.828,2026A_exp2,2022.2.4,60.100199087238515,
1000,1,0.0,0.0,0,0,84,84,7,,,,,266.130332400091,266.77290550014004,266.77290550014004,267.2733595999889,45,315,267.2733595999889,267.2733595999889,267.2733595999889,267.2733595999889,267.2733595999889,267.2733595999889,267.2733595999889,267.2733595999889,267.2733595999889,267.63192420010455,267.63192420010455,267.63192420010455,267.63192420010455,267.63192420010455,267.63192420010455,267.63192420010455,267.63192420010455,267.63192420010455,0,1,[0.003185400040820241],[0.36536010005511343],267.63192420010455,267.8340040000621,1000,267.8340040000621,1000,1000,1000,1000,1,num_2,0.43344159983098507,,34,1,2026-03-13_10h12.09.828,2026A_exp2,2022.2.4,60.100199087238515,
1,0,3.7,4.9,0,0,85,85,76,,,,,268.2825155002065,268.93340770015493,268.93340770015493,269.43419519998133,315,45,269.43419519998133,269.43419519998133,269.43419519998133,269.43419519998133,269.43419519998133,269.43419519998133,269.43419519998133,269.43419519998133,269.43419519998133,269.80076410016045,269.80076410016045,269.80076410016045,269.80076410016045,269.80076410016045,269.80076410016045,269.80076410016045,269.80076410016045,269.80076410016045,0,1,[0.0012033998500555754],[0.3676979998126626],269.80076410016045,270.0010324001778,3.7,270.0010324001778,0,3.7,1,0,1000,num_1,0.5228447997942567,,34,1,2026-03-13_10h12.09.828,2026A_exp2,2022.2.4,60.100199087238515,
1000,1,6.1,0.0,0,0,86,86,59,,,,,270.55141790001653,271.2021969000343,271.2021969000343,271.6865567001514,45,45,271.6865567001514,271.6865567001514,271.6865567001514,271.6865567001514,271.6865567001514,271.6865567001514,271.6865567001514,271.6865567001514,271.6865567001514,272.0530839001294,272.0530839001294,272.0530839001294,272.0530839001294,272.0530839001294,272.0530839001294,272.0530839001294,272.0530839001294,272.0530839001294,10,3,"[0.0008933001663535833, 0.2673499002121389, 0.31739360000938177]","[0.1672923001460731, 0.2840627001132816, 0.35077710007317364]",272.0530839001294,272.2549021001905,1000,272.2549021001905,1000,1000,1000,1000,0,num_3,0.45356950000859797,,34,1,2026-03-13_10h12.09.828,2026A_exp2,2022.2.4,60.100199087238515,
0,0,0.0,3.7,0,0,87,87,83,,,,,272.73696190002374,273.3877236000262,273.3877236000262,273.8887748999987,45,45,273.8887748999987,273.8887748999987,273.8887748999987,273.8887748999987,273.8887748999987,273.8887748999987,273.8887748999987,273.8887748999987,273.8887748999987,274.2385092000477,274.2385092000477,274.2385092000477,274.2385092000477,274.2385092000477,274.2385092000477,274.2385092000477,274.2385092000477,274.2385092000477,22,0,,,274.2385092000477,274.4386839000508,3.7,274.4386839000508,1,3.7,1,1,1000,num_4,0.7899913997389376,,34,1,2026-03-13_10h12.09.828,2026A_exp2,2022.2.4,60.100199087238515,
0,0,0.0,3.7,0,0,88,88,47,,,,,275.25605800002813,275.90691460017115,275.90691460017115,276.3914158002008,45,315,276.3914158002008,276.3914158002008,276.3914158002008,276.3914158002008,276.3914158002008,276.3914158002008,276.3914158002008,276.3914158002008,276.3914158002008,276.75770860002376,276.75770860002376,276.75770860002376,276.75770860002376,276.75770860002376,276.75770860002376,276.75770860002376,276.75770860002376,276.75770860002376,23,0,,,276.75770860002376,276.95785470004193,3.7,276.95785470004193,1,3.7,1,1,1000,num_4,0.5334435999393463,,34,1,2026-03-13_10h12.09.828,2026A_exp2,2022.2.4,60.100199087238515,
1,0,3.7,0.0,1,0,89,89,12,,,,,277.5084242001176,278.1591584000271,278.1591584000271,278.64367010002024,315,45,278.64367010002024,278.64367010002024,278.64367010002024,278.64367010002024,278.64367010002024,278.64367010002024,278.64367010002024,278.64367010002024,278.64367010002024,279.01001410000026,279.01001410000026,279.01001410000026,279.01001410000026,279.01001410000026,279.01001410000026,279.01001410000026,279.01001410000026,279.01001410000026,23,0,,,279.01001410000026,279.21011340012774,0.0,279.21011340012774,0,0.0,0,1,1000,num_1,1.1782486999873072,,34,1,2026-03-13_10h12.09.828,2026A_exp2,2022.2.4,60.100199087238515,
,,,,,,,,,,,,,,,,,,,,,,,,,,,,,,,,,,,,,,,,,,,,,,,,,,,,280.4216360000428,,,,,,,
