validity,detectorcomp,contrastCW,contrastCCW,precueCWorCCW,block_80trials.thisRepN,block_80trials.thisTrialN,block_80trials.thisN,block_80trials.thisIndex,etRecord.started,etRecord.stopped,text.started,text.stopped,text_4.started,text_4.stopped,text_6.started,text_6.stopped,oriCW,oriCCW,roi_2.started,grating_UR.started,grating_UL.started,grating_LR.started,grating_LL.started,noise_UR.started,noise_UL.started,noise_LR.started,noise_LL.started,roi_2.stopped,grating_UR.stopped,grating_UL.stopped,grating_LR.stopped,grating_LL.stopped,noise_UR.stopped,noise_UL.stopped,noise_LR.stopped,noise_LL.stopped,outframe,roi_2.numLooks,roi_2.timesOn,roi_2.timesOff,text_2.started,text_2.stopped,probedcontrast,key_resp.started,respdetect,relevantContrast,correctDetect,TorFdetect,respCWorCCW,key_resp.keys,key_resp.rt,feedback_display_.started,participantNo,blockNo,date,expName,psychopyVersion,frameRate,
1,0,0.0,0.0,1,0,0,0,66,7.149996235966682e-05,7.149996235966682e-05,53.58463820000179,55.589823900023475,55.589823900023475,56.22105080005713,56.22105080005713,56.74358450016007,315,315,56.74358450016007,56.74358450016007,56.74358450016007,56.74358450016007,56.74358450016007,56.74358450016007,56.74358450016007,56.74358450016007,56.74358450016007,57.088696900056675,57.088696900056675,57.088696900056675,57.088696900056675,57.088696900056675,57.088696900056675,57.088696900056675,57.088696900056675,57.088696900056675,7,2,"[0.0990981999784708, 0.19973220000974834]","[0.18305140011943877, 0.36608970002271235]",57.088696900056675,57.30967230000533,0.0,57.30967230000533,0,0.0,0,1,1000,num_1,0.5318198997993022,,30,3,2026-03-12_10h29.10.290,2026A_exp2,2022.2.4,59.93313861171132,
1,0,0.0,0.0,1,0,1,1,43,,,,,57.87617509998381,58.52346760011278,58.52346760011278,59.024464700138196,45,315,59.024464700138196,59.024464700138196,59.024464700138196,59.024464700138196,59.024464700138196,59.024464700138196,59.024464700138196,59.024464700138196,59.024464700138196,59.39105400000699,59.39105400000699,59.39105400000699,59.39105400000699,59.39105400000699,59.39105400000699,59.39105400000699,59.39105400000699,59.39105400000699,23,0,,,59.39105400000699,59.59123190003447,0.0,59.59123190003447,0,0.0,0,1,1000,num_1,0.5625813999213278,,30,3,2026-03-12_10h29.10.290,2026A_exp2,2022.2.4,59.93313861171132,
1,0,6.1,0.0,0,0,2,2,50,,,,,60.17519350000657,60.82574790017679,60.82574790017679,61.31026540021412,45,45,61.31026540021412,61.31026540021412,61.31026540021412,61.31026540021412,61.31026540021412,61.31026540021412,61.31026540021412,61.31026540021412,61.31026540021412,61.67661010008305,61.67661010008305,61.67661010008305,61.67661010008305,61.67661010008305,61.67661010008305,61.67661010008305,61.67661010008305,61.67661010008305,9,5,"[0.0011144999880343676, 0.10037039988674223, 0.18373129982501268, 0.2671473999507725, 0.33391789998859167]","[0.05021429993212223, 0.15045899990946054, 0.23375109978951514, 0.3002975999843329, 0.36725939996540546]",61.67661010008305,61.87681860011071,6.1,61.87681860011071,0,6.1,1,0,1000,num_1,0.7247005999088287,,30,3,2026-03-12_10h29.10.290,2026A_exp2,2022.2.4,59.93313861171132,
1,0,6.1,3.7,0,0,3,3,26,,,,,62.627644299995154,63.27823300007731,63.27823300007731,63.762423400068656,45,315,63.762423400068656,63.762423400068656,63.762423400068656,63.762423400068656,63.762423400068656,63.762423400068656,63.762423400068656,63.762423400068656,63.762423400068656,64.12962390016764,64.12962390016764,64.12962390016764,64.12962390016764,64.12962390016764,64.12962390016764,64.12962390016764,64.12962390016764,64.12962390016764,23,0,,,64.12962390016764,64.32922730012797,6.1,64.32922730012797,1,6.1,1,1,1000,num_4,0.7036221998278052,,30,3,2026-03-12_10h29.10.290,2026A_exp2,2022.2.4,59.93313861171132,
1,0,0.0,0.0,1,0,4,4,18,,,,,65.06335830013268,65.71404390013777,65.71404390013777,66.19836130016483,45,315,66.19836130016483,66.19836130016483,66.19836130016483,66.19836130016483,66.19836130016483,66.19836130016483,66.19836130016483,66.19836130016483,66.19836130016483,66.56488270009868,66.56488270009868,66.56488270009868,66.56488270009868,66.56488270009868,66.56488270009868,66.56488270009868,66.56488270009868,66.56488270009868,23,0,,,66.56488270009868,66.76501620002091,0.0,66.76501620002091,0,0.0,0,1,1000,num_1,0.3403989998623729,,30,3,2026-03-12_10h29.10.290,2026A_exp2,2022.2.4,59.93313861171132,
1000,1,4.9,0.0,1,0,5,5,25,,,,,67.1321370000951,67.78277980000712,67.78277980000712,68.26721170009114,45,45,68.26721170009114,68.26721170009114,68.26721170009114,68.26721170009114,68.26721170009114,68.26721170009114,68.26721170009114,68.26721170009114,68.26721170009114,68.6334865000099,68.6334865000099,68.6334865000099,68.6334865000099,68.6334865000099,68.6334865000099,68.6334865000099,68.6334865000099,68.6334865000099,20,1,[0.050293299835175276],[0.10009719990193844],68.6334865000099,68.83936650003307,1000,68.83936650003307,1000,1000,1000,1000,0,num_3,0.5132703997660428,,30,3,2026-03-12_10h29.10.290,2026A_exp2,2022.2.4,59.93313861171132,
1,0,0.0,0.0,0,0,6,6,59,,,,,69.3676041001454,70.01829200005159,70.01829200005159,70.51957800006494,315,45,70.51957800006494,70.51957800006494,70.51957800006494,70.51957800006494,70.51957800006494,70.51957800006494,70.51957800006494,70.51957800006494,70.51957800006494,70.88589260005392,70.88589260005392,70.88589260005392,70.88589260005392,70.88589260005392,70.88589260005392,70.88589260005392,70.88589260005392,70.88589260005392,0,1,[0.0007297999691218138],[0.36778969992883503],70.88589260005392,71.08608670020476,0.0,71.08608670020476,0,0.0,0,1,1000,num_1,0.8912642998620868,,30,3,2026-03-12_10h29.10.290,2026A_exp2,2022.2.4,59.93313861171132,
1000,1,0.0,4.9,0,0,7,7,11,,,,,72.00349490018561,72.65434150001965,72.65434150001965,73.13887979998253,45,315,73.13887979998253,73.13887979998253,73.13887979998253,73.13887979998253,73.13887979998253,73.13887979998253,73.13887979998253,73.13887979998253,73.13887979998253,73.50509630003944,73.50509630003944,73.50509630003944,73.50509630003944,73.50509630003944,73.50509630003944,73.50509630003944,73.50509630003944,73.50509630003944,6,1,[0.0007422999478876591],[0.28447440010495484],73.50509630003944,73.70745600014925,1000,73.70745600014925,1000,1000,1000,1000,1,num_2,0.46204219991341233,,30,3,2026-03-12_10h29.10.290,2026A_exp2,2022.2.4,59.93313861171132,
1000,1,0.0,4.9,1,0,8,8,51,,,,,74.18903510016389,74.83988240011968,74.83988240011968,75.34104380011559,45,315,75.34104380011559,75.34104380011559,75.34104380011559,75.34104380011559,75.34104380011559,75.34104380011559,75.34104380011559,75.34104380011559,75.34104380011559,75.70738570019603,75.70738570019603,75.70738570019603,75.70738570019603,75.70738570019603,75.70738570019603,75.70738570019603,75.70738570019603,75.70738570019603,0,1,[0.00131720001809299],[0.36695569986477494],75.70738570019603,75.91007630014792,1000,75.91007630014792,1000,1000,1000,1000,1,num_2,0.6504717997740954,,30,3,2026-03-12_10h29.10.290,2026A_exp2,2022.2.4,59.93313861171132,
1,0,0.0,3.7,0,0,9,9,12,,,,,76.59145070007071,77.24207720020786,77.24207720020786,77.7432525001932,315,315,77.7432525001932,77.7432525001932,77.7432525001932,77.7432525001932,77.7432525001932,77.7432525001932,77.7432525001932,77.7432525001932,77.7432525001932,78.10976790008135,78.10976790008135,78.10976790008135,78.10976790008135,78.10976790008135,78.10976790008135,78.10976790008135,78.10976790008135,78.10976790008135,0,1,[0.0012400997802615166],[0.3672169998753816],78.10976790008135,78.30986720020883,0.0,78.30986720020883,0,0.0,0,1,1000,num_1,0.6992245998699218,,30,3,2026-03-12_10h29.10.290,2026A_exp2,2022.2.4,59.93313861171132,
1000,1,6.1,3.7,0,0,10,10,87,,,,,79.02718660002574,79.67785810003988,79.67785810003988,80.1622463001404,315,45,80.1622463001404,80.1622463001404,80.1622463001404,80.1622463001404,80.1622463001404,80.1622463001404,80.1622463001404,80.1622463001404,80.1622463001404,80.5288811000064,80.5288811000064,80.5288811000064,80.5288811000064,80.5288811000064,80.5288811000064,80.5288811000064,80.5288811000064,80.5288811000064,0,1,[0.001261100172996521],[0.3671708002220839],80.5288811000064,80.73146040015854,1000,80.73146040015854,1000,1000,1000,1000,0,num_3,0.7340641999617219,,30,3,2026-03-12_10h29.10.290,2026A_exp2,2022.2.4,59.93313861171132,
1,0,4.9,6.1,1,0,11,11,86,,,,,81.49649210018106,82.14708950021304,82.14708950021304,82.6482769001741,315,315,82.6482769001741,82.6482769001741,82.6482769001741,82.6482769001741,82.6482769001741,82.6482769001741,82.6482769001741,82.6482769001741,82.6482769001741,82.99786540004425,82.99786540004425,82.99786540004425,82.99786540004425,82.99786540004425,82.99786540004425,82.99786540004425,82.99786540004425,82.99786540004425,0,1,[0.0012621001806110144],[0.35043950006365776],82.99786540004425,83.1982411001809,6.1,83.1982411001809,1,6.1,1,1,1000,num_4,0.8833260999526829,,30,3,2026-03-12_10h29.10.290,2026A_exp2,2022.2.4,59.93313861171132,
1000,1,0.0,0.0,1,0,12,12,23,,,,,84.09922830015421,84.74967640009709,84.74967640009709,85.25078120012768,315,315,85.25078120012768,85.25078120012768,85.25078120012768,85.25078120012768,85.25078120012768,85.25078120012768,85.25078120012768,85.25078120012768,85.25078120012768,85.6005926001817,85.6005926001817,85.6005926001817,85.6005926001817,85.6005926001817,85.6005926001817,85.6005926001817,85.6005926001817,85.6005926001817,0,1,[0.0012731999158859253],[0.3504727999679744],85.6005926001817,85.80273790005594,1000,85.80273790005594,1000,1000,1000,1000,1,num_2,0.6944956998340786,,30,3,2026-03-12_10h29.10.290,2026A_exp2,2022.2.4,59.93313861171132,
1,0,4.9,0.0,1,0,13,13,84,,,,,86.51791560021229,87.16888200002722,87.16888200002722,87.6698857001029,315,315,87.6698857001029,87.6698857001029,87.6698857001029,87.6698857001029,87.6698857001029,87.6698857001029,87.6698857001029,87.6698857001029,87.6698857001029,88.03634180012159,88.03634180012159,88.03634180012159,88.03634180012159,88.03634180012159,88.03634180012159,88.03634180012159,88.03634180012159,88.03634180012159,0,1,[0.0011177998967468739],[0.3674403000622988],88.03634180012159,88.23660070006736,0.0,88.23660070006736,0,0.0,0,1,1000,num_1,0.9412624998949468,,30,3,2026-03-12_10h29.10.290,2026A_exp2,2022.2.4,59.93313861171132,
1000,1,0.0,0.0,0,0,14,14,69,,,,,89.20401590014808,89.8548874000553,89.8548874000553,90.35601110011339,315,315,90.35601110011339,90.35601110011339,90.35601110011339,90.35601110011339,90.35601110011339,90.35601110011339,90.35601110011339,90.35601110011339,90.35601110011339,90.7057110001333,90.7057110001333,90.7057110001333,90.7057110001333,90.7057110001333,90.7057110001333,90.7057110001333,90.7057110001333,90.7057110001333,0,1,[0.0013097000773996115],[0.35048729996196926],90.7057110001333,90.90818530018441,1000,90.90818530018441,1000,1000,1000,1000,1,num_2,0.6935213999822736,,30,3,2026-03-12_10h29.10.290,2026A_exp2,2022.2.4,59.93313861171132,
0,0,0.0,0.0,1,0,15,15,62,,,,,91.62325699999928,92.27383940014988,92.27383940014988,92.77507900004275,315,45,92.77507900004275,92.77507900004275,92.77507900004275,92.77507900004275,92.77507900004275,92.77507900004275,92.77507900004275,92.77507900004275,92.77507900004275,93.14133720006794,93.14133720006794,93.14133720006794,93.14133720006794,93.14133720006794,93.14133720006794,93.14133720006794,93.14133720006794,93.14133720006794,0,1,[0.0014361999928951263],[0.36702720005996525],93.14133720006794,93.34175190003589,0.0,93.34175190003589,0,0.0,0,1,1000,num_1,0.5155235996935517,,30,3,2026-03-12_10h29.10.290,2026A_exp2,2022.2.4,59.93313861171132,
1000,1,4.9,3.7,1,0,16,16,67,,,,,93.87536450009793,94.52619490004145,94.52619490004145,95.01061460003257,45,315,95.01061460003257,95.01061460003257,95.01061460003257,95.01061460003257,95.01061460003257,95.01061460003257,95.01061460003257,95.01061460003257,95.01061460003257,95.37701670010574,95.37701670010574,95.37701670010574,95.37701670010574,95.37701670010574,95.37701670010574,95.37701670010574,95.37701670010574,95.37701670010574,23,0,,,95.37701670010574,95.57944830018096,1000,95.57944830018096,1000,1000,1000,1000,1,num_2,0.901098599890247,,30,3,2026-03-12_10h29.10.290,2026A_exp2,2022.2.4,59.93313861171132,
1000,1,0.0,3.7,0,0,17,17,44,,,,,96.51148970006034,97.16205859999172,97.16205859999172,97.66317170020193,45,315,97.66317170020193,97.66317170020193,97.66317170020193,97.66317170020193,97.66317170020193,97.66317170020193,97.66317170020193,97.66317170020193,97.66317170020193,98.02961260010488,98.02961260010488,98.02961260010488,98.02961260010488,98.02961260010488,98.02961260010488,98.02961260010488,98.02961260010488,98.02961260010488,0,1,[0.001125900074839592],[0.3673431999050081],98.02961260010488,98.231804799987,1000,98.231804799987,1000,1000,1000,1000,1,num_2,0.4088700998108834,,30,3,2026-03-12_10h29.10.290,2026A_exp2,2022.2.4,59.93313861171132,
1000,1,3.7,0.0,1,0,18,18,79,,,,,98.66354650002904,99.3140180001501,99.3140180001501,99.81508060009219,45,45,99.81508060009219,99.81508060009219,99.81508060009219,99.81508060009219,99.81508060009219,99.81508060009219,99.81508060009219,99.81508060009219,99.81508060009219,100.18147220020182,100.18147220020182,100.18147220020182,100.18147220020182,100.18147220020182,100.18147220020182,100.18147220020182,100.18147220020182,100.18147220020182,0,1,[0.0007613999769091606],[0.3668372000101954],100.18147220020182,100.3819642001763,1000,100.3819642001763,1000,1000,1000,1000,0,num_3,0.4747584997676313,,30,3,2026-03-12_10h29.10.290,2026A_exp2,2022.2.4,59.93313861171132,
1000,1,4.9,4.9,0,0,19,19,31,,,,,100.88284780015238,,101.53385900007561,102.03438470000401,45,45,102.03438470000401,102.03438470000401,102.03438470000401,102.03438470000401,102.03438470000401,102.03438470000401,102.03438470000401,102.03438470000401,102.03438470000401,102.38377260020934,102.38377260020934,102.38377260020934,102.38377260020934,102.38377260020934,102.38377260020934,102.38377260020934,102.38377260020934,102.38377260020934,0,1,[0.000758900074288249],[0.35090270009823143],102.38377260020934,102.58413920016028,1000,102.58413920016028,1000,1000,1000,1000,0,num_3,0.3847407998982817,,30,3,2026-03-12_10h29.10.290,2026A_exp2,2022.2.4,59.93313861171132,
1000,1,6.1,4.9,1,0,20,20,53,,,,,103.00115890009329,103.65154640004039,103.65154640004039,104.13598510017619,45,45,104.13598510017619,104.13598510017619,104.13598510017619,104.13598510017619,104.13598510017619,104.13598510017619,104.13598510017619,104.13598510017619,104.13598510017619,104.50245690019801,104.50245690019801,104.50245690019801,104.50245690019801,104.50245690019801,104.50245690019801,104.50245690019801,104.50245690019801,104.50245690019801,0,1,[0.0007613999769091606],[0.3675798000767827],104.50245690019801,104.70276550017297,1000,104.70276550017297,1000,1000,1000,1000,0,num_3,0.51485599973239,,30,3,2026-03-12_10h29.10.290,2026A_exp2,2022.2.4,59.93313861171132,
1000,1,3.7,3.7,1,0,21,21,40,,,,,105.23693530005403,105.88734450004995,105.88734450004995,106.38853880017996,315,45,106.38853880017996,106.38853880017996,106.38853880017996,106.38853880017996,106.38853880017996,106.38853880017996,106.38853880017996,106.38853880017996,106.38853880017996,106.73841630015522,106.73841630015522,106.73841630015522,106.73841630015522,106.73841630015522,106.73841630015522,106.73841630015522,106.73841630015522,106.73841630015522,0,1,[0.0018870001658797264],[0.35024920012801886],106.73841630015522,106.94118720013648,1000,106.94118720013648,1000,1000,1000,1000,1,num_2,0.3714097999036312,,30,3,2026-03-12_10h29.10.290,2026A_exp2,2022.2.4,59.93313861171132,
1000,1,6.1,3.7,1,0,22,22,10,,,,,107.33888370008208,107.98969640000723,107.98969640000723,108.49069710006006,315,45,108.49069710006006,108.49069710006006,108.49069710006006,108.49069710006006,108.49069710006006,108.49069710006006,108.49069710006006,108.49069710006006,108.49069710006006,108.85716690006666,108.85716690006666,108.85716690006666,108.85716690006666,108.85716690006666,108.85716690006666,108.85716690006666,108.85716690006666,108.85716690006666,7,1,[0.0013221998233348131],[0.26693359995260835],108.85716690006666,109.05953630013391,1000,109.05953630013391,1000,1000,1000,1000,0,num_3,0.5902522997930646,,30,3,2026-03-12_10h29.10.290,2026A_exp2,2022.2.4,59.93313861171132,
1,0,0.0,3.7,0,0,23,23,78,,,,,109.67447870015167,110.32794630015269,110.32794630015269,110.82636140007526,315,45,110.82636140007526,110.82636140007526,110.82636140007526,110.82636140007526,110.82636140007526,110.82636140007526,110.82636140007526,110.82636140007526,110.82636140007526,111.19289030018263,111.19289030018263,111.19289030018263,111.19289030018263,111.19289030018263,111.19289030018263,111.19289030018263,111.19289030018263,111.19289030018263,0,1,[0.0016245001461356878],[0.3666036000940949],111.19289030018263,111.39310320001096,0.0,111.39310320001096,0,0.0,0,1,1000,num_1,0.8077185000292957,,30,3,2026-03-12_10h29.10.290,2026A_exp2,2022.2.4,59.93313861171132,
1,0,0.0,4.9,0,0,24,24,85,,,,,112.22710460005328,112.87766720005311,112.87766720005311,113.36220380011946,315,315,113.36220380011946,113.36220380011946,113.36220380011946,113.36220380011946,113.36220380011946,113.36220380011946,113.36220380011946,113.36220380011946,113.36220380011946,113.72849050001241,113.72849050001241,113.72849050001241,113.72849050001241,113.72849050001241,113.72849050001241,113.72849050001241,113.72849050001241,113.72849050001241,7,1,[0.0012639998458325863],[0.2671083998866379],113.72849050001241,113.92855930002406,0.0,113.92855930002406,0,0.0,0,1,1000,num_1,0.6730888998135924,,30,3,2026-03-12_10h29.10.290,2026A_exp2,2022.2.4,59.93313861171132,
1,0,4.9,4.9,1,0,25,25,89,,,,,114.62939260015264,115.2801730001811,115.2801730001811,115.76470960001461,45,315,115.76470960001461,115.76470960001461,115.76470960001461,115.76470960001461,115.76470960001461,115.76470960001461,115.76470960001461,115.76470960001461,115.76470960001461,116.13117459998466,116.13117459998466,116.13117459998466,116.13117459998466,116.13117459998466,116.13117459998466,116.13117459998466,116.13117459998466,116.13117459998466,0,1,[0.0013003000058233738],[0.3666425000410527],116.13117459998466,116.33123660017736,4.9,116.33123660017736,1,4.9,1,1,1000,num_4,0.8063720997888595,,30,3,2026-03-12_10h29.10.290,2026A_exp2,2022.2.4,59.93313861171132,
1,0,0.0,4.9,1,0,26,26,45,,,,,117.1655916001182,117.81596760009415,117.81596760009415,118.31276410003193,45,315,118.31276410003193,118.31276410003193,118.31276410003193,118.31276410003193,118.31276410003193,118.31276410003193,118.31276410003193,118.31276410003193,118.31276410003193,118.66698870016262,118.66698870016262,118.66698870016262,118.66698870016262,118.66698870016262,118.66698870016262,118.66698870016262,118.66698870016262,118.66698870016262,0,1,[0.004442400066182017],[0.3652655999176204],118.66698870016262,118.87092800019309,4.9,118.87092800019309,1,4.9,1,1,1000,num_4,0.6423826997634023,,30,3,2026-03-12_10h29.10.290,2026A_exp2,2022.2.4,59.93313861171132,
1000,1,0.0,0.0,0,0,27,27,20,,,,,119.5343325000722,120.18502490012906,120.18502490012906,120.68619460007176,45,315,120.68619460007176,120.68619460007176,120.68619460007176,120.68619460007176,120.68619460007176,120.68619460007176,120.68619460007176,120.68619460007176,120.68619460007176,121.03631740016863,121.03631740016863,121.03631740016863,121.03631740016863,121.03631740016863,121.03631740016863,121.03631740016863,121.03631740016863,121.03631740016863,0,1,[0.0012938000727444887],[0.3506038000341505],121.03631740016863,121.23820050014183,1000,121.252979000099,1000,1000,1000,1000,1,num_2,0.42065989994443953,,30,3,2026-03-12_10h29.10.290,2026A_exp2,2022.2.4,59.93313861171132,
1,0,0.0,0.0,0,0,28,28,49,,,,,121.70324830012396,122.35449270019308,122.35449270019308,122.84094770019874,315,315,122.84094770019874,122.84094770019874,122.84094770019874,122.84094770019874,122.84094770019874,122.84094770019874,122.84094770019874,122.84094770019874,122.84094770019874,123.20496060000733,123.20496060000733,123.20496060000733,123.20496060000733,123.20496060000733,123.20496060000733,123.20496060000733,123.20496060000733,123.20496060000733,8,1,[0.0009916000999510288],[0.24891380011104047],123.20496060000733,123.40662050014362,0.0,123.40662050014362,0,0.0,0,1,1000,num_1,1.0024480000138283,,30,3,2026-03-12_10h29.10.290,2026A_exp2,2022.2.4,59.93313861171132,
1,0,3.7,4.9,1,0,29,29,39,,,,,124.43959060008638,,125.09180580009706,125.57607330009341,315,45,125.57607330009341,125.57607330009341,125.57607330009341,125.57607330009341,125.57607330009341,125.57607330009341,125.57607330009341,125.57607330009341,125.57607330009341,125.94143100013025,125.94143100013025,125.94143100013025,125.94143100013025,125.94143100013025,125.94143100013025,125.94143100013025,125.94143100013025,125.94143100013025,23,0,,,125.94143100013025,126.14234300004318,4.9,126.14234300004318,1,4.9,1,1,1000,num_4,0.8596532999072224,,30,3,2026-03-12_10h29.10.290,2026A_exp2,2022.2.4,59.93313861171132,
1,0,4.9,0.0,1,0,30,30,82,,,,,127.02513840002939,127.67603580001742,127.67603580001742,128.16044570016675,45,315,128.16044570016675,128.16044570016675,128.16044570016675,128.16044570016675,128.16044570016675,128.16044570016675,128.16044570016675,128.16044570016675,128.16044570016675,128.52677750005387,128.52677750005387,128.52677750005387,128.52677750005387,128.52677750005387,128.52677750005387,128.52677750005387,128.52677750005387,128.52677750005387,0,1,[0.0012463999446481466],[0.3674017998855561],128.52677750005387,128.7268720001448,0.0,128.7268720001448,0,0.0,0,1,1000,num_1,0.6824878000188619,,30,3,2026-03-12_10h29.10.290,2026A_exp2,2022.2.4,59.93313861171132,
1000,1,0.0,4.9,1,0,31,31,27,,,,,129.42786410008557,130.07835700013675,130.07835700013675,130.5627257002052,315,45,130.5627257002052,130.5627257002052,130.5627257002052,130.5627257002052,130.5627257002052,130.5627257002052,130.5627257002052,130.5627257002052,130.5627257002052,130.92916729999706,130.92916729999706,130.92916729999706,130.92916729999706,130.92916729999706,130.92916729999706,130.92916729999706,130.92916729999706,130.92916729999706,0,1,[0.0012481999583542347],[0.36714880005456507],130.92916729999706,131.13137389998883,1000,131.13137389998883,1000,1000,1000,1000,1,num_2,0.5494625999126583,,30,3,2026-03-12_10h29.10.290,2026A_exp2,2022.2.4,59.93313861171132,
1000,1,4.9,6.1,1,0,32,32,1,,,,,131.69657610007562,132.3472136000637,132.3472136000637,132.84847900015302,315,45,132.84847900015302,132.84847900015302,132.84847900015302,132.84847900015302,132.84847900015302,132.84847900015302,132.84847900015302,132.84847900015302,132.84847900015302,133.21482690004632,133.21482690004632,133.21482690004632,133.21482690004632,133.21482690004632,133.21482690004632,133.21482690004632,133.21482690004632,133.21482690004632,0,1,[0.0012145999353379011],[0.367183499969542],133.21482690004632,133.4169856000226,1000,133.4169856000226,1000,1000,1000,1000,1,num_2,0.6081842000130564,,30,3,2026-03-12_10h29.10.290,2026A_exp2,2022.2.4,59.93313861171132,
1,0,0.0,0.0,0,0,33,33,81,,,,,134.04913410008885,134.69978750008158,134.69978750008158,135.2006760002114,315,315,135.2006760002114,135.2006760002114,135.2006760002114,135.2006760002114,135.2006760002114,135.2006760002114,135.2006760002114,135.2006760002114,135.2006760002114,135.56715160002932,135.56715160002932,135.56715160002932,135.56715160002932,135.56715160002932,135.56715160002932,135.56715160002932,135.56715160002932,135.56715160002932,8,1,[0.001268699998036027],[0.25030079996213317],135.56715160002932,135.76745720021427,0.0,135.76745720021427,1,0.0,0,0,1000,num_4,1.257800699910149,,30,3,2026-03-12_10h29.10.290,2026A_exp2,2022.2.4,59.93313861171132,
0,0,3.7,0.0,1,0,34,34,83,,,,,137.0519438001793,137.7027302000206,137.7027302000206,138.1871225000359,315,315,138.1871225000359,138.1871225000359,138.1871225000359,138.1871225000359,138.1871225000359,138.1871225000359,138.1871225000359,138.1871225000359,138.1871225000359,138.55354200000875,138.55354200000875,138.55354200000875,138.55354200000875,138.55354200000875,138.55354200000875,138.55354200000875,138.55354200000875,138.55354200000875,15,5,"[0.001310399966314435, 0.08344210009090602, 0.1502698000986129, 0.2335318000987172, 0.36645299987867475]","[0.017292599892243743, 0.11691439989954233, 0.16683249990455806, 0.2834830000065267, 0.3664565999060869]",138.55354200000875,138.75337290018797,3.7,138.75337290018797,0,3.7,1,0,1000,num_1,0.5036571999080479,,30,3,2026-03-12_10h29.10.290,2026A_exp2,2022.2.4,59.93313861171132,
1,0,0.0,4.9,0,0,35,35,71,,,,,139.287453800207,139.93819150002673,139.93819150002673,140.42273810016923,45,45,140.42273810016923,140.42273810016923,140.42273810016923,140.42273810016923,140.42273810016923,140.42273810016923,140.42273810016923,140.42273810016923,140.42273810016923,140.78912990004756,140.78912990004756,140.78912990004756,140.78912990004756,140.78912990004756,140.78912990004756,140.78912990004756,140.78912990004756,140.78912990004756,16,1,[0.0012252000160515308],[0.11709910002537072],140.78912990004756,140.9893571001012,0.0,140.9893571001012,0,0.0,0,1,1000,num_1,0.7002845997922122,,30,3,2026-03-12_10h29.10.290,2026A_exp2,2022.2.4,59.93313861171132,
1,0,0.0,0.0,0,0,36,36,9,,,,,141.70659570000134,142.35734930005856,142.35734930005856,142.8418011001777,315,315,142.8418011001777,142.8418011001777,142.8418011001777,142.8418011001777,142.8418011001777,142.8418011001777,142.8418011001777,142.8418011001777,142.8418011001777,143.20817100000568,143.20817100000568,143.20817100000568,143.20817100000568,143.20817100000568,143.20817100000568,143.20817100000568,143.20817100000568,143.20817100000568,0,1,[0.0012248000130057335],[0.3672255000565201],143.20817100000568,143.40845270012505,0.0,143.40845270012505,0,0.0,0,1,1000,num_1,0.4561653998680413,,30,3,2026-03-12_10h29.10.290,2026A_exp2,2022.2.4,59.93313861171132,
0,0,0.0,6.1,1,0,37,37,76,,,,,143.89208280015737,144.52603520010598,144.52603520010598,145.02716180006973,45,45,145.02716180006973,145.02716180006973,145.02716180006973,145.02716180006973,145.02716180006973,145.02716180006973,145.02716180006973,145.02716180006973,145.02716180006973,145.3936871001497,145.3936871001497,145.3936871001497,145.3936871001497,145.3936871001497,145.3936871001497,145.3936871001497,145.3936871001497,145.3936871001497,23,0,,,145.3936871001497,145.5939875000622,0.0,145.5939875000622,0,0.0,0,1,1000,num_1,0.6553197999019176,,30,3,2026-03-12_10h29.10.290,2026A_exp2,2022.2.4,59.93313861171132,
1000,1,6.1,3.7,1,0,38,38,0,,,,,146.27792180003598,146.92861840012483,146.92861840012483,147.42962270020507,45,315,147.42962270020507,147.42962270020507,147.42962270020507,147.42962270020507,147.42962270020507,147.42962270020507,147.42962270020507,147.42962270020507,147.42962270020507,147.7960104001686,147.7960104001686,147.7960104001686,147.7960104001686,147.7960104001686,147.7960104001686,147.7960104001686,147.7960104001686,147.7960104001686,7,1,[0.0014406000263988972],[0.26703789993189275],147.7960104001686,147.99872730020434,1000,147.99872730020434,1000,1000,1000,1000,1,num_2,0.7870520998258144,,30,3,2026-03-12_10h29.10.290,2026A_exp2,2022.2.4,59.93313861171132,
1000,1,4.9,0.0,0,0,39,39,36,,,,,148.81373480008915,149.46450790017843,149.46450790017843,149.96537610003725,315,315,149.96537610003725,149.96537610003725,149.96537610003725,149.96537610003725,149.96537610003725,149.96537610003725,149.96537610003725,149.96537610003725,149.96537610003725,150.33201740006916,150.33201740006916,150.33201740006916,150.33201740006916,150.33201740006916,150.33201740006916,150.33201740006916,150.33201740006916,150.33201740006916,0,1,[0.0013234999496489763],[0.3669986999593675],150.33201740006916,150.5350981000811,1000,150.5350981000811,1000,1000,1000,1000,1,num_2,1.2422754999715835,,30,3,2026-03-12_10h29.10.290,2026A_exp2,2022.2.4,59.93313861171132,
1000,1,0.0,0.0,0,0,40,40,65,,,,,151.7999768999871,152.45081790001132,152.45081790001132,152.95192830008455,315,45,152.95192830008455,152.95192830008455,152.95192830008455,152.95192830008455,152.95192830008455,152.95192830008455,152.95192830008455,152.95192830008455,152.95192830008455,153.31809610011987,153.31809610011987,153.31809610011987,153.31809610011987,153.31809610011987,153.31809610011987,153.31809610011987,153.31809610011987,153.31809610011987,0,1,[0.0009600999765098095],[0.36726749991066754],153.31809610011987,153.520291400142,1000,153.520291400142,1000,1000,1000,1000,1,num_2,0.6415516997221857,,30,3,2026-03-12_10h29.10.290,2026A_exp2,2022.2.4,59.93313861171132,
1,0,0.0,4.9,0,0,41,41,17,,,,,154.18574410001747,154.83656010008417,154.83656010008417,155.33719890005887,45,315,155.33719890005887,155.33719890005887,155.33719890005887,155.33719890005887,155.33719890005887,155.33719890005887,155.33719890005887,155.33719890005887,155.33719890005887,155.7041690000333,155.7041690000333,155.7041690000333,155.7041690000333,155.7041690000333,155.7041690000333,155.7041690000333,155.7041690000333,155.7041690000333,1,2,"[0.001266400096938014, 0.06629990017972887]","[0.050237599993124604, 0.36965740006417036]",155.7041690000333,155.91212410014123,0.0,155.91212410014123,0,0.0,0,1,1000,num_1,0.649153399746865,,30,3,2026-03-12_10h29.10.290,2026A_exp2,2022.2.4,59.93313861171132,
1000,1,3.7,0.0,1,0,42,42,55,,,,,156.5883706000168,157.2388870001305,157.2388870001305,157.74131530011073,45,45,157.74131530011073,157.74131530011073,157.74131530011073,157.74131530011073,157.74131530011073,157.74131530011073,157.74131530011073,157.74131530011073,157.74131530011073,158.10633890004829,158.10633890004829,158.10633890004829,158.10633890004829,158.10633890004829,158.10633890004829,158.10633890004829,158.10633890004829,158.10633890004829,23,0,,,158.10633890004829,158.30856050015427,1000,158.30856050015427,1000,1000,1000,1000,1,num_2,0.4684066998306662,,30,3,2026-03-12_10h29.10.290,2026A_exp2,2022.2.4,59.93313861171132,
0,0,0.0,3.7,1,0,43,43,21,,,,,158.80720020015724,159.4578082000371,159.4578082000371,159.9587562000379,45,315,159.9587562000379,159.9587562000379,159.9587562000379,159.9587562000379,159.9587562000379,159.9587562000379,159.9587562000379,159.9587562000379,159.9587562000379,160.32531950017437,160.32531950017437,160.32531950017437,160.32531950017437,160.32531950017437,160.32531950017437,160.32531950017437,160.32531950017437,160.32531950017437,23,0,,,160.32531950017437,160.52559340000153,0.0,160.52559340000153,0,0.0,0,1,1000,num_1,1.2350395999383181,,30,3,2026-03-12_10h29.10.290,2026A_exp2,2022.2.4,59.93313861171132,
1000,1,0.0,0.0,1,0,44,44,47,,,,,161.77665060013533,162.42729030014016,162.42729030014016,162.92857360001653,315,315,162.92857360001653,162.92857360001653,162.92857360001653,162.92857360001653,162.92857360001653,162.92857360001653,162.92857360001653,162.92857360001653,162.92857360001653,163.27836400014348,163.27836400014348,163.27836400014348,163.27836400014348,163.27836400014348,163.27836400014348,163.27836400014348,163.27836400014348,163.27836400014348,22,0,,,163.27836400014348,163.48071989999153,1000,163.48071989999153,1000,1000,1000,1000,1,num_2,0.8886221998836845,,30,3,2026-03-12_10h29.10.290,2026A_exp2,2022.2.4,59.93313861171132,
1000,1,0.0,4.9,0,0,45,45,77,,,,,164.39590630005114,165.04669350013137,165.04669350013137,165.54783060005866,315,315,165.54783060005866,165.54783060005866,165.54783060005866,165.54783060005866,165.54783060005866,165.54783060005866,165.54783060005866,165.54783060005866,165.54783060005866,165.91424920014106,165.91424920014106,165.91424920014106,165.91424920014106,165.91424920014106,165.91424920014106,165.91424920014106,165.91424920014106,165.91424920014106,3,1,[0.0012148001696914434],[0.3334900001063943],165.91424920014106,166.116934500169,1000,166.116934500169,1000,1000,1000,1000,1,num_2,0.5964061997365206,,30,3,2026-03-12_10h29.10.290,2026A_exp2,2022.2.4,59.93313861171132,
1,0,3.7,0.0,1,0,46,46,74,,,,,166.73155200015754,167.3824232001789,167.3824232001789,167.88346060016192,315,45,167.88346060016192,167.88346060016192,167.88346060016192,167.88346060016192,167.88346060016192,167.88346060016192,167.88346060016192,167.88346060016192,167.88346060016192,168.24994750018232,168.24994750018232,168.24994750018232,168.24994750018232,168.24994750018232,168.24994750018232,168.24994750018232,168.24994750018232,168.24994750018232,23,0,,,168.24994750018232,168.45005460013635,0.0,168.45005460013635,0,0.0,0,1,1000,num_1,0.6545941999647766,,30,3,2026-03-12_10h29.10.290,2026A_exp2,2022.2.4,59.93313861171132,
1,0,4.9,6.1,0,0,47,47,15,,,,,169.13401010003872,169.78473890013993,169.78473890013993,170.26903830002993,315,45,170.26903830002993,170.26903830002993,170.26903830002993,170.26903830002993,170.26903830002993,170.26903830002993,170.26903830002993,170.26903830002993,170.26903830002993,170.6356076002121,170.6356076002121,170.6356076002121,170.6356076002121,170.6356076002121,170.6356076002121,170.6356076002121,170.6356076002121,170.6356076002121,0,1,[0.0012499999720603228],[0.3670159000903368],170.6356076002121,170.835790600162,4.9,170.835790600162,0,4.9,1,0,1000,num_1,0.5899733998812735,,30,3,2026-03-12_10h29.10.290,2026A_exp2,2022.2.4,59.93313861171132,
1000,1,4.9,3.7,1,0,48,48,32,,,,,171.4529677000828,172.1038220000919,172.1038220000919,172.58807180006988,45,45,172.58807180006988,172.58807180006988,172.58807180006988,172.58807180006988,172.58807180006988,172.58807180006988,172.58807180006988,172.58807180006988,172.58807180006988,172.95462960004807,172.95462960004807,172.95462960004807,172.95462960004807,172.95462960004807,172.95462960004807,172.95462960004807,172.95462960004807,172.95462960004807,5,1,[0.001387299969792366],[0.3004030000884086],172.95462960004807,173.1574203001801,1000,173.1574203001801,1000,1000,1000,1000,1,num_2,1.3640061998739839,,30,3,2026-03-12_10h29.10.290,2026A_exp2,2022.2.4,59.93313861171132,
0,0,0.0,0.0,1,0,49,49,8,,,,,174.5394506000448,175.19022039999254,175.19022039999254,175.6913548000157,315,315,175.6913548000157,175.6913548000157,175.6913548000157,175.6913548000157,175.6913548000157,175.6913548000157,175.6913548000157,175.6913548000157,175.6913548000157,176.05779099999927,176.05779099999927,176.05779099999927,176.05779099999927,176.05779099999927,176.05779099999927,176.05779099999927,176.05779099999927,176.05779099999927,23,0,,,176.05779099999927,176.26851480011828,0.0,176.26851480011828,0,0.0,0,1,1000,num_1,0.6519773998297751,,30,3,2026-03-12_10h29.10.290,2026A_exp2,2022.2.4,59.93313861171132,
0,0,3.7,4.9,1,0,50,50,3,,,,,176.94162699999288,177.59260300011374,177.59260300011374,178.09367349999957,315,45,178.09367349999957,178.09367349999957,178.09367349999957,178.09367349999957,178.09367349999957,178.09367349999957,178.09367349999957,178.09367349999957,178.09367349999957,178.44339260016568,178.44339260016568,178.44339260016568,178.44339260016568,178.44339260016568,178.44339260016568,178.44339260016568,178.44339260016568,178.44339260016568,7,4,"[0.0014190999791026115, 0.06685240007936954, 0.1831954000517726, 0.30026699998416007]","[0.03348689991980791, 0.14966539992019534, 0.23366179992444813, 0.3503436001483351]",178.44339260016568,178.6436488002073,3.7,178.66034530010074,1,3.7,1,1,1000,num_4,1.357294799759984,,30,3,2026-03-12_10h29.10.290,2026A_exp2,2022.2.4,59.93313861171132,
1,0,0.0,0.0,1,0,51,51,70,,,,,180.04523310018703,180.69565760018304,180.69565760018304,181.18004810018465,45,45,181.18004810018465,181.18004810018465,181.18004810018465,181.18004810018465,181.18004810018465,181.18004810018465,181.18004810018465,181.18004810018465,181.18004810018465,181.54636760009453,181.54636760009453,181.54636760009453,181.54636760009453,181.54636760009453,181.54636760009453,181.54636760009453,181.54636760009453,181.54636760009453,1,2,"[0.001258700154721737, 0.20020860014483333]","[0.18368580006062984, 0.3670475999824703]",181.54636760009453,181.74677800014615,0.0,181.74677800014615,0,0.0,0,1,1000,num_1,0.5662552998401225,,30,3,2026-03-12_10h29.10.290,2026A_exp2,2022.2.4,59.93313861171132,
1000,1,0.0,3.7,1,0,52,52,80,,,,,182.33050190005451,182.96464480017312,182.96464480017312,183.46578070009127,315,315,183.46578070009127,183.46578070009127,183.46578070009127,183.46578070009127,183.46578070009127,183.46578070009127,183.46578070009127,183.46578070009127,183.46578070009127,183.83173330011778,183.83173330011778,183.83173330011778,183.83173330011778,183.83173330011778,183.83173330011778,183.83173330011778,183.83173330011778,183.83173330011778,23,0,,,183.83173330011778,184.03207350010052,1000,184.03207350010052,1000,1000,1000,1000,1,num_2,0.5452866998966783,,30,3,2026-03-12_10h29.10.290,2026A_exp2,2022.2.4,59.93313861171132,
1,0,0.0,0.0,1,0,53,53,37,,,,,184.5992825999856,185.25016160006635,185.25016160006635,185.7513131001033,315,45,185.7513131001033,185.7513131001033,185.7513131001033,185.7513131001033,185.7513131001033,185.7513131001033,185.7513131001033,185.7513131001033,185.7513131001033,186.1011884000618,186.1011884000618,186.1011884000618,186.1011884000618,186.1011884000618,186.1011884000618,186.1011884000618,186.1011884000618,186.1011884000618,0,1,[0.0012215001042932272],[0.35197239997796714],186.1011884000618,186.30602260003798,0.0,186.30602260003798,0,0.0,0,1,1000,num_1,0.44674409995786846,,30,3,2026-03-12_10h29.10.290,2026A_exp2,2022.2.4,59.93313861171132,
1000,1,3.7,6.1,0,0,54,54,28,,,,,186.76823320006952,187.41911820019595,187.41911820019595,187.9034447001759,45,315,187.9034447001759,187.9034447001759,187.9034447001759,187.9034447001759,187.9034447001759,187.9034447001759,187.9034447001759,187.9034447001759,187.9034447001759,188.26994590018876,188.26994590018876,188.26994590018876,188.26994590018876,188.26994590018876,188.26994590018876,188.26994590018876,188.26994590018876,188.26994590018876,23,0,,,188.26994590018876,188.47269990015775,1000,188.47269990015775,1000,1000,1000,1000,1,num_2,0.4405639998149127,,30,3,2026-03-12_10h29.10.290,2026A_exp2,2022.2.4,59.93313861171132,
1000,1,0.0,0.0,1,0,55,55,29,,,,,188.93712840019725,189.58791770017706,189.58791770017706,190.08890940016136,315,45,190.08890940016136,190.08890940016136,190.08890940016136,190.08890940016136,190.08890940016136,190.08890940016136,190.08890940016136,190.08890940016136,190.08890940016136,190.45536210015416,190.45536210015416,190.45536210015416,190.45536210015416,190.45536210015416,190.45536210015416,190.45536210015416,190.45536210015416,190.45536210015416,0,1,[0.0012627998366951942],[0.3673002999275923],190.45536210015416,190.65722370008007,1000,190.65722370008007,1000,1000,1000,1000,1,num_2,1.3034679000265896,,30,3,2026-03-12_10h29.10.290,2026A_exp2,2022.2.4,59.93313861171132,
1,0,0.0,0.0,1,0,56,56,41,,,,,191.99010440008715,192.64083010004833,192.64083010004833,193.1421200002078,45,315,193.1421200002078,193.1421200002078,193.1421200002078,193.1421200002078,193.1421200002078,193.1421200002078,193.1421200002078,193.1421200002078,193.1421200002078,193.50849650008604,193.50849650008604,193.50849650008604,193.50849650008604,193.50849650008604,193.50849650008604,193.50849650008604,193.50849650008604,193.50849650008604,23,0,,,193.50849650008604,193.7085756000597,0.0,193.7085756000597,0,0.0,0,1,1000,num_1,0.3808157998137176,,30,3,2026-03-12_10h29.10.290,2026A_exp2,2022.2.4,59.93313861171132,
1000,1,0.0,0.0,1,0,57,57,14,,,,,194.10895770019852,194.75936920009553,194.75936920009553,195.24414900015108,315,315,195.24414900015108,195.24414900015108,195.24414900015108,195.24414900015108,195.24414900015108,195.24414900015108,195.24414900015108,195.24414900015108,195.24414900015108,195.61050220020115,195.61050220020115,195.61050220020115,195.61050220020115,195.61050220020115,195.61050220020115,195.61050220020115,195.61050220020115,195.61050220020115,18,1,[0.001218999968841672],[0.08360749995335937],195.61050220020115,195.81306930002756,1000,195.81306930002756,1000,1000,1000,1000,1,num_2,0.6927438999991864,,30,3,2026-03-12_10h29.10.290,2026A_exp2,2022.2.4,59.93313861171132,
1000,1,0.0,6.1,1,0,58,58,88,,,,,196.5280480000656,197.1900204999838,197.1900204999838,197.6799429000821,315,45,197.6799429000821,197.6799429000821,197.6799429000821,197.6799429000821,197.6799429000821,197.6799429000821,197.6799429000821,197.6799429000821,197.6799429000821,198.0463894000277,198.0463894000277,198.0463894000277,198.0463894000277,198.0463894000277,198.0463894000277,198.0463894000277,198.0463894000277,198.0463894000277,0,1,[0.0012809999752789736],[0.36714579979889095],198.0463894000277,198.24868510011584,1000,198.24868510011584,1000,1000,1000,1000,1,num_2,0.5124377000611275,,30,3,2026-03-12_10h29.10.290,2026A_exp2,2022.2.4,59.93313861171132,
1,0,0.0,0.0,1,0,59,59,73,,,,,198.78029810008593,199.43111140001565,199.43111140001565,199.9322872001212,315,45,199.9322872001212,199.9322872001212,199.9322872001212,199.9322872001212,199.9322872001212,199.9322872001212,199.9322872001212,199.9322872001212,199.9322872001212,200.2818821000401,200.2818821000401,200.2818821000401,200.2818821000401,200.2818821000401,200.2818821000401,200.2818821000401,200.2818821000401,200.2818821000401,22,0,,,200.2818821000401,200.48218860011548,0.0,200.48218860011548,0,0.0,0,1,1000,num_1,0.5672586997970939,,30,3,2026-03-12_10h29.10.290,2026A_exp2,2022.2.4,59.93313861171132,
1,0,0.0,3.7,1,0,60,60,57,,,,,201.06586820003577,201.71648920001462,201.71648920001462,202.20102770021185,45,315,202.20102770021185,202.20102770021185,202.20102770021185,202.20102770021185,202.20102770021185,202.20102770021185,202.20102770021185,202.20102770021185,202.20102770021185,202.56754150008783,202.56754150008783,202.56754150008783,202.56754150008783,202.56754150008783,202.56754150008783,202.56754150008783,202.56754150008783,202.56754150008783,23,0,,,202.56754150008783,202.7676959000528,3.7,202.7676959000528,0,3.7,1,0,1000,num_1,0.5131868999451399,,30,3,2026-03-12_10h29.10.290,2026A_exp2,2022.2.4,59.93313861171132,
1000,1,4.9,0.0,1,0,61,61,72,,,,,203.30150480009615,203.95217579999007,203.95217579999007,204.436630200129,45,315,204.436630200129,204.436630200129,204.436630200129,204.436630200129,204.436630200129,204.436630200129,204.436630200129,204.436630200129,204.436630200129,204.80313760018907,204.80313760018907,204.80313760018907,204.80313760018907,204.80313760018907,204.80313760018907,204.80313760018907,204.80313760018907,204.80313760018907,17,2,"[0.0013001000043004751, 0.16692139999940991]","[0.08354989998042583, 0.18365469994023442]",204.80313760018907,205.00500230002217,1000,205.00500230002217,1000,1000,1000,1000,0,num_3,0.8519825998228043,,30,3,2026-03-12_10h29.10.290,2026A_exp2,2022.2.4,59.93313861171132,
1,0,0.0,6.1,0,0,62,62,68,,,,,205.89096980006434,206.5382197999861,206.5382197999861,207.03907770011574,45,45,207.03907770011574,207.03907770011574,207.03907770011574,207.03907770011574,207.03907770011574,207.03907770011574,207.03907770011574,207.03907770011574,207.03907770011574,207.4057768001221,207.4057768001221,207.4057768001221,207.4057768001221,207.4057768001221,207.4057768001221,207.4057768001221,207.4057768001221,207.4057768001221,0,1,[0.0012622999493032694],[0.3672486001159996],207.4057768001221,207.60584560013376,0.0,207.60584560013376,0,0.0,0,1,1000,num_1,0.6440605998504907,,30,3,2026-03-12_10h29.10.290,2026A_exp2,2022.2.4,59.93313861171132,
1000,1,0.0,0.0,0,0,63,63,75,,,,,208.27308740001172,208.92376999999397,208.92376999999397,209.4082504999824,315,45,209.4082504999824,209.4082504999824,209.4082504999824,209.4082504999824,209.4082504999824,209.4082504999824,209.4082504999824,209.4082504999824,209.4082504999824,209.77479420020245,209.77479420020245,209.77479420020245,209.77479420020245,209.77479420020245,209.77479420020245,209.77479420020245,209.77479420020245,209.77479420020245,23,0,,,209.77479420020245,209.97697299998254,1000,209.97697299998254,1000,1000,1000,1000,1,num_2,0.6000757999718189,,30,3,2026-03-12_10h29.10.290,2026A_exp2,2022.2.4,59.93313861171132,
1,0,4.9,0.0,1,0,64,64,6,,,,,210.59218300017528,211.24287450010888,211.24287450010888,211.7438070999924,45,315,211.7438070999924,211.7438070999924,211.7438070999924,211.7438070999924,211.7438070999924,211.7438070999924,211.7438070999924,211.7438070999924,211.7438070999924,212.11037080013193,212.11037080013193,212.11037080013193,212.11037080013193,212.11037080013193,212.11037080013193,212.11037080013193,212.11037080013193,212.11037080013193,23,0,,,212.11037080013193,212.31047710007988,0.0,212.31047710007988,0,0.0,0,1,1000,num_1,1.0827889998909086,,30,3,2026-03-12_10h29.10.290,2026A_exp2,2022.2.4,59.93313861171132,
1000,1,0.0,6.1,0,0,65,65,34,,,,,213.4115402000025,214.0623699000571,214.0623699000571,214.5468657000456,45,315,214.5468657000456,214.5468657000456,214.5468657000456,214.5468657000456,214.5468657000456,214.5468657000456,214.5468657000456,214.5468657000456,214.5468657000456,214.91324560018256,214.91324560018256,214.91324560018256,214.91324560018256,214.91324560018256,214.91324560018256,214.91324560018256,214.91324560018256,214.91324560018256,23,0,,,214.91324560018256,215.11522110016085,1000,215.11522110016085,1000,1000,1000,1000,1,num_2,0.46957680000923574,,30,3,2026-03-12_10h29.10.290,2026A_exp2,2022.2.4,59.93313861171132,
1,0,4.9,0.0,0,0,66,66,48,,,,,215.61407060013153,216.26454390003346,216.26454390003346,216.7658507002052,45,45,216.7658507002052,216.7658507002052,216.7658507002052,216.7658507002052,216.7658507002052,216.7658507002052,216.7658507002052,216.7658507002052,216.7658507002052,217.13203620002605,217.13203620002605,217.13203620002605,217.13203620002605,217.13203620002605,217.13203620002605,217.13203620002605,217.13203620002605,217.13203620002605,21,1,[0.2836476999800652],[0.3002620998304337],217.13203620002605,217.3323816000484,4.9,217.3323816000484,1,4.9,1,1,1000,num_4,0.8288210998289287,,30,3,2026-03-12_10h29.10.290,2026A_exp2,2022.2.4,59.93313861171132,
1000,1,0.0,3.7,0,0,67,67,52,,,,,218.1829635000322,218.8338333000429,218.8338333000429,219.31820149999112,315,45,219.31820149999112,219.31820149999112,219.31820149999112,219.31820149999112,219.31820149999112,219.31820149999112,219.31820149999112,219.31820149999112,219.31820149999112,219.68446730007418,219.68446730007418,219.68446730007418,219.68446730007418,219.68446730007418,219.68446730007418,219.68446730007418,219.68446730007418,219.68446730007418,23,0,,,219.68446730007418,219.88737580017187,1000,219.88737580017187,1000,1000,1000,1000,1,num_2,0.5782088998239487,,30,3,2026-03-12_10h29.10.290,2026A_exp2,2022.2.4,59.93313861171132,
1000,1,4.9,4.9,0,0,68,68,42,,,,,220.48549910006113,221.1360224999953,221.1360224999953,221.63729590014555,315,45,221.63729590014555,221.63729590014555,221.63729590014555,221.63729590014555,221.63729590014555,221.63729590014555,221.63729590014555,221.63729590014555,221.63729590014555,222.00367220002227,222.00367220002227,222.00367220002227,222.00367220002227,222.00367220002227,222.00367220002227,222.00367220002227,222.00367220002227,222.00367220002227,22,1,[0.001778600038960576],[0.01727689988911152],222.00367220002227,222.20607980014756,1000,222.20607980014756,1000,1000,1000,1000,0,num_3,1.2103954998310655,,30,3,2026-03-12_10h29.10.290,2026A_exp2,2022.2.4,59.93313861171132,
1,0,0.0,0.0,0,0,69,69,2,,,,,223.43825430003926,224.08898020000197,224.08898020000197,224.59007210005075,315,45,224.59007210005075,224.59007210005075,224.59007210005075,224.59007210005075,224.59007210005075,224.59007210005075,224.59007210005075,224.59007210005075,224.59007210005075,224.95662600011565,224.95662600011565,224.95662600011565,224.95662600011565,224.95662600011565,224.95662600011565,224.95662600011565,224.95662600011565,224.95662600011565,23,0,,,224.95662600011565,225.15685180015862,0.0,225.15685180015862,0,0.0,0,1,1000,num_1,0.5398428998887539,,30,3,2026-03-12_10h29.10.290,2026A_exp2,2022.2.4,59.93313861171132,
1,0,4.9,4.9,0,0,70,70,63,,,,,225.72383200004697,226.3746952000074,226.3746952000074,226.85910720005631,45,315,226.85910720005631,226.85910720005631,226.85910720005631,226.85910720005631,226.85910720005631,226.85910720005631,226.85910720005631,226.85910720005631,226.85910720005631,227.2255310001783,227.2255310001783,227.2255310001783,227.2255310001783,227.2255310001783,227.2255310001783,227.2255310001783,227.2255310001783,227.2255310001783,23,0,,,227.2255310001783,227.42569050006568,4.9,227.42569050006568,0,4.9,1,0,1000,num_1,0.7353682999964803,,30,3,2026-03-12_10h29.10.290,2026A_exp2,2022.2.4,59.93313861171132,
0,0,0.0,4.9,0,0,71,71,54,,,,,228.19309740001336,228.84377740020864,228.84377740020864,229.3281038000714,45,45,229.3281038000714,229.3281038000714,229.3281038000714,229.3281038000714,229.3281038000714,229.3281038000714,229.3281038000714,229.3281038000714,229.3281038000714,229.69459339999594,229.69459339999594,229.69459339999594,229.69459339999594,229.69459339999594,229.69459339999594,229.69459339999594,229.69459339999594,229.69459339999594,23,0,,,229.69459339999594,229.89482889999636,4.9,229.89482889999636,1,4.9,1,1,1000,num_4,0.7624603000003844,,30,3,2026-03-12_10h29.10.290,2026A_exp2,2022.2.4,59.93313861171132,
1000,1,0.0,0.0,0,0,72,72,61,,,,,230.67885820008814,231.32961850007996,231.32961850007996,231.81402690010145,45,315,231.81402690010145,231.81402690010145,231.81402690010145,231.81402690010145,231.81402690010145,231.81402690010145,231.81402690010145,231.81402690010145,231.81402690010145,232.18047780008055,232.18047780008055,232.18047780008055,232.18047780008055,232.18047780008055,232.18047780008055,232.18047780008055,232.18047780008055,232.18047780008055,0,1,[0.001231699949130416],[0.3674251998309046],232.18047780008055,232.38326000003144,1000,232.38326000003144,1000,1000,1000,1000,1,num_2,0.6266575998160988,,30,3,2026-03-12_10h29.10.290,2026A_exp2,2022.2.4,59.93313861171132,
1000,1,6.1,4.9,1,0,73,73,16,,,,,233.0312503001187,233.68199790013023,233.68199790013023,234.1829845001921,45,315,234.1829845001921,234.1829845001921,234.1829845001921,234.1829845001921,234.1829845001921,234.1829845001921,234.1829845001921,234.1829845001921,234.1829845001921,234.54958470002748,234.54958470002748,234.54958470002748,234.54958470002748,234.54958470002748,234.54958470002748,234.54958470002748,234.54958470002748,234.54958470002748,23,0,,,234.54958470002748,234.7517141001299,1000,234.7517141001299,1000,1000,1000,1000,0,num_3,1.5293773000594229,,30,3,2026-03-12_10h29.10.290,2026A_exp2,2022.2.4,59.93313861171132,
1,0,0.0,6.1,0,0,74,74,5,,,,,236.30123740015551,236.9519843000453,236.9519843000453,237.45300380000845,315,45,237.45300380000845,237.45300380000845,237.45300380000845,237.45300380000845,237.45300380000845,237.45300380000845,237.45300380000845,237.45300380000845,237.45300380000845,237.80277240020223,237.80277240020223,237.80277240020223,237.80277240020223,237.80277240020223,237.80277240020223,237.80277240020223,237.80277240020223,237.80277240020223,22,0,,,237.80277240020223,238.00300710019656,0.0,238.00300710019656,0,0.0,0,1,1000,num_1,0.646577499806881,,30,3,2026-03-12_10h29.10.290,2026A_exp2,2022.2.4,59.93313861171132,
1000,1,6.1,0.0,0,0,75,75,33,,,,,238.67015050002374,239.32083890005015,239.32083890005015,239.80541720008478,315,315,239.80541720008478,239.80541720008478,239.80541720008478,239.80541720008478,239.80541720008478,239.80541720008478,239.80541720008478,239.80541720008478,239.80541720008478,240.1717115000356,240.1717115000356,240.1717115000356,240.1717115000356,240.1717115000356,240.1717115000356,240.1717115000356,240.1717115000356,240.1717115000356,0,1,[0.0012483999598771334],[0.36713130003772676],240.1717115000356,240.3742606001906,1000,240.3742606001906,1000,1000,1000,1000,0,num_3,0.8992880997247994,,30,3,2026-03-12_10h29.10.290,2026A_exp2,2022.2.4,59.93313861171132,
1000,1,4.9,0.0,0,0,76,76,22,,,,,241.28944520000368,241.94009420019574,241.94009420019574,242.4410513001494,315,315,242.4410513001494,242.4410513001494,242.4410513001494,242.4410513001494,242.4410513001494,242.4410513001494,242.4410513001494,242.4410513001494,242.4410513001494,242.80751810013317,242.80751810013317,242.80751810013317,242.80751810013317,242.80751810013317,242.80751810013317,242.80751810013317,242.80751810013317,242.80751810013317,0,1,[0.0012825001031160355],[0.367267900146544],242.80751810013317,243.01395360007882,1000,243.01395360007882,1000,1000,1000,1000,0,num_3,0.7152044998947531,,30,3,2026-03-12_10h29.10.290,2026A_exp2,2022.2.4,59.93313861171132,
0,0,4.9,0.0,0,0,77,77,30,,,,,243.7584653000813,244.40923580015078,244.40923580015078,244.893734900048,45,45,244.893734900048,244.893734900048,244.893734900048,244.893734900048,244.893734900048,244.893734900048,244.893734900048,244.893734900048,244.893734900048,245.2601205999963,245.2601205999963,245.2601205999963,245.2601205999963,245.2601205999963,245.2601205999963,245.2601205999963,245.2601205999963,245.2601205999963,23,0,,,245.2601205999963,245.46034810016863,0.0,245.46034810016863,0,0.0,0,1,1000,num_1,1.6369127999059856,,30,3,2026-03-12_10h29.10.290,2026A_exp2,2022.2.4,59.93313861171132,
1000,1,6.1,0.0,1,0,78,78,60,,,,,247.1286137001589,247.77946520014666,247.77946520014666,248.26375330006704,315,315,248.26375330006704,248.26375330006704,248.26375330006704,248.26375330006704,248.26375330006704,248.26375330006704,248.26375330006704,248.26375330006704,248.26375330006704,248.6300985000562,248.6300985000562,248.6300985000562,248.6300985000562,248.6300985000562,248.6300985000562,248.6300985000562,248.6300985000562,248.6300985000562,4,3,"[0.0012670999858528376, 0.15012000012211502, 0.333484300179407]","[0.08354200003668666, 0.3166726001072675, 0.3670175999868661]",248.6300985000562,248.8326310000848,1000,248.8326310000848,1000,1000,1000,1000,0,num_3,0.46465749968774617,,30,3,2026-03-12_10h29.10.290,2026A_exp2,2022.2.4,59.93313861171132,
0,0,0.0,4.9,1,0,79,79,56,,,,,249.31420050002635,249.96481100004166,249.96481100004166,250.4659429001622,315,45,250.4659429001622,250.4659429001622,250.4659429001622,250.4659429001622,250.4659429001622,250.4659429001622,250.4659429001622,250.4659429001622,250.4659429001622,250.83263120008633,250.83263120008633,250.83263120008633,250.83263120008633,250.83263120008633,250.83263120008633,250.83263120008633,250.83263120008633,250.83263120008633,23,0,,,250.83263120008633,251.0327199001331,0.0,251.0327199001331,0,0.0,0,1,1000,num_1,0.7517323000356555,,30,3,2026-03-12_10h29.10.290,2026A_exp2,2022.2.4,59.93313861171132,
1,0,0.0,0.0,0,0,80,80,38,,,,,251.80003440007567,252.45078220008872,252.45078220008872,252.95189810008742,315,315,252.95189810008742,252.95189810008742,252.95189810008742,252.95189810008742,252.95189810008742,252.95189810008742,252.95189810008742,252.95189810008742,252.95189810008742,253.3015893001575,253.3015893001575,253.3015893001575,253.3015893001575,253.3015893001575,253.3015893001575,253.3015893001575,253.3015893001575,253.3015893001575,17,1,[0.0013227998279035091],[0.08344429987482727],253.3015893001575,253.50172890000977,0.0,253.50172890000977,0,0.0,0,1,1000,num_1,0.7553993999026716,,30,3,2026-03-12_10h29.10.290,2026A_exp2,2022.2.4,59.93313861171132,
1000,1,4.9,0.0,0,0,81,81,58,,,,,254.2858512001112,254.93637710018083,254.93637710018083,255.4210352001246,315,45,255.4210352001246,255.4210352001246,255.4210352001246,255.4210352001246,255.4210352001246,255.4210352001246,255.4210352001246,255.4210352001246,255.4210352001246,255.7874525000807,255.7874525000807,255.7874525000807,255.7874525000807,255.7874525000807,255.7874525000807,255.7874525000807,255.7874525000807,255.7874525000807,0,1,[0.0012338000815361738],[0.36736080003902316],255.7874525000807,255.9902290001046,1000,255.9902290001046,1000,1000,1000,1000,0,num_3,1.0191130999010056,,30,3,2026-03-12_10h29.10.290,2026A_exp2,2022.2.4,59.93313861171132,
1000,1,0.0,0.0,1,0,82,82,7,,,,,257.038772800006,257.6892850000877,257.6892850000877,258.1904852001462,315,45,258.1904852001462,258.1904852001462,258.1904852001462,258.1904852001462,258.1904852001462,258.1904852001462,258.1904852001462,258.1904852001462,258.1904852001462,258.54021270014346,258.54021270014346,258.54021270014346,258.54021270014346,258.54021270014346,258.54021270014346,258.54021270014346,258.54021270014346,258.54021270014346,0,1,[0.0012800998520106077],[0.350511800032109],258.54021270014346,258.7427656000946,1000,258.7427656000946,1000,1000,1000,1000,1,num_2,0.7628836000803858,,30,3,2026-03-12_10h29.10.290,2026A_exp2,2022.2.4,59.93313861171132,
1,0,6.1,4.9,1,0,83,83,35,,,,,259.52438100008294,260.17520810011774,260.17520810011774,260.67625910020433,315,315,260.67625910020433,260.67625910020433,260.67625910020433,260.67625910020433,260.67625910020433,260.67625910020433,260.67625910020433,260.67625910020433,260.67625910020433,261.04268950014375,261.04268950014375,261.04268950014375,261.04268950014375,261.04268950014375,261.04268950014375,261.04268950014375,261.04268950014375,261.04268950014375,23,0,,,261.04268950014375,261.2428053000476,4.9,261.2428053000476,1,4.9,1,1,1000,num_4,2.182075699791312,,30,3,2026-03-12_10h29.10.290,2026A_exp2,2022.2.4,59.93313861171132,
1,0,4.9,0.0,1,0,84,84,4,,,,,263.44586089998484,264.0955609001685,264.0955609001685,264.5967109000776,315,45,264.5967109000776,264.5967109000776,264.5967109000776,264.5967109000776,264.5967109000776,264.5967109000776,264.5967109000776,264.5967109000776,264.5967109000776,264.96328580006957,264.96328580006957,264.96328580006957,264.96328580006957,264.96328580006957,264.96328580006957,264.96328580006957,264.96328580006957,264.96328580006957,18,3,"[0.0012646999675780535, 0.06628779997117817, 0.14991359994746745]","[0.03339400002732873, 0.09937389986589551, 0.16637759981676936]",264.96328580006957,265.16344120004214,0.0,265.16344120004214,0,0.0,0,1,1000,num_1,1.1091506998054683,,30,3,2026-03-12_10h29.10.290,2026A_exp2,2022.2.4,59.93313861171132,
1000,1,6.1,0.0,0,0,85,85,19,,,,,266.2977905999869,266.9486031001434,266.9486031001434,267.4330904001836,45,45,267.4330904001836,267.4330904001836,267.4330904001836,267.4330904001836,267.4330904001836,267.4330904001836,267.4330904001836,267.4330904001836,267.4330904001836,267.7992700000759,267.7992700000759,267.7992700000759,267.7992700000759,267.7992700000759,267.7992700000759,267.7992700000759,267.7992700000759,267.7992700000759,23,0,,,267.7992700000759,268.0019281001296,1000,268.0019281001296,1000,1000,1000,1000,0,num_3,0.5834719997365028,,30,3,2026-03-12_10h29.10.290,2026A_exp2,2022.2.4,59.93313861171132,
1,0,6.1,0.0,1,0,86,86,13,,,,,268.61695940000936,269.2675693000201,269.2675693000201,269.7520095000509,315,45,269.7520095000509,269.7520095000509,269.7520095000509,269.7520095000509,269.7520095000509,269.7520095000509,269.7520095000509,269.7520095000509,269.7520095000509,270.11835560016334,270.11835560016334,270.11835560016334,270.11835560016334,270.11835560016334,270.11835560016334,270.11835560016334,270.11835560016334,270.11835560016334,23,0,,,270.11835560016334,270.3184944000095,0.0,270.3184944000095,0,0.0,0,1,1000,num_1,1.482648499775678,,30,3,2026-03-12_10h29.10.290,2026A_exp2,2022.2.4,59.93313861171132,
1,0,0.0,0.0,0,0,87,87,64,,,,,271.8199205000419,272.47061399999075,272.47061399999075,272.95533630019054,315,45,272.95533630019054,272.95533630019054,272.95533630019054,272.95533630019054,272.95533630019054,272.95533630019054,272.95533630019054,272.95533630019054,272.95533630019054,273.3216598001309,273.3216598001309,273.3216598001309,273.3216598001309,273.3216598001309,273.3216598001309,273.3216598001309,273.3216598001309,273.3216598001309,23,0,,,273.3216598001309,273.52181260008365,0.0,273.52181260008365,0,0.0,0,1,1000,num_1,0.7272695999126881,,30,3,2026-03-12_10h29.10.290,2026A_exp2,2022.2.4,59.93313861171132,
1000,1,6.1,3.7,1,0,88,88,24,,,,,274.272327600047,274.9232111000456,274.9232111000456,275.4076677002013,315,315,275.4076677002013,275.4076677002013,275.4076677002013,275.4076677002013,275.4076677002013,275.4076677002013,275.4076677002013,275.4076677002013,275.4076677002013,275.77407849999145,275.77407849999145,275.77407849999145,275.77407849999145,275.77407849999145,275.77407849999145,275.77407849999145,275.77407849999145,275.77407849999145,0,1,[0.0012471000663936138],[0.366908100200817],275.77407849999145,275.97611839999445,1000,275.97611839999445,1000,1000,1000,1000,0,num_3,0.6726540999952704,,30,3,2026-03-12_10h29.10.290,2026A_exp2,2022.2.4,59.93313861171132,
1,0,4.9,6.1,1,0,89,89,46,,,,,276.6752190000843,277.32568300003186,277.32568300003186,277.8266196001787,315,315,277.8266196001787,277.8266196001787,277.8266196001787,277.8266196001787,277.8266196001787,277.8266196001787,277.8266196001787,277.8266196001787,277.8266196001787,278.1764472001232,278.1764472001232,278.1764472001232,278.1764472001232,278.1764472001232,278.1764472001232,278.1764472001232,278.1764472001232,278.1764472001232,22,0,,,278.1764472001232,278.3765646000393,6.1,278.3765646000393,1,6.1,1,1,1000,num_4,1.5451072996947914,,30,3,2026-03-12_10h29.10.290,2026A_exp2,2022.2.4,59.93313861171132,
,,,,,,,,,,,,,,,,,,,,,,,,,,,,,,,,,,,,,,,,,,,,,,,,,,,,279.94557840004563,,,,,,,
