validity,detectorcomp,contrastCW,contrastCCW,precueCWorCCW,block_80trials.thisRepN,block_80trials.thisTrialN,block_80trials.thisN,block_80trials.thisIndex,etRecord.started,etRecord.stopped,text.started,text.stopped,text_4.started,text_4.stopped,text_6.started,text_6.stopped,oriCW,oriCCW,roi_2.started,grating_UR.started,grating_UL.started,grating_LR.started,grating_LL.started,noise_UR.started,noise_UL.started,noise_LR.started,noise_LL.started,roi_2.stopped,grating_UR.stopped,grating_UL.stopped,grating_LR.stopped,grating_LL.stopped,noise_UR.stopped,noise_UL.stopped,noise_LR.stopped,noise_LL.stopped,outframe,roi_2.numLooks,roi_2.timesOn,roi_2.timesOff,text_2.started,text_2.stopped,probedcontrast,key_resp.started,respdetect,relevantContrast,correctDetect,TorFdetect,respCWorCCW,key_resp.keys,key_resp.rt,feedback_display_.started,participantNo,blockNo,date,expName,psychopyVersion,frameRate,
1000,1,0.0,4.9,1,0,0,0,66,3.619998460635543e-05,3.619998460635543e-05,55.007250700029545,57.01014180004131,57.01014180004131,57.64335600001505,57.64335600001505,58.16127189999679,45,45,58.16127189999679,58.16127189999679,58.16127189999679,58.16127189999679,58.16127189999679,58.16127189999679,58.16127189999679,58.16127189999679,58.16127189999679,58.51103370002238,58.51103370002238,58.51103370002238,58.51103370002238,58.51103370002238,58.51103370002238,58.51103370002238,58.51103370002238,58.51103370002238,0,1,[0.00122819998068735],[0.3677186000277288],58.51103370002238,58.71802269999171,1000,58.71802269999171,1000,1000,1000,1000,1,num_2,0.5035342000192031,,27,12,2026-03-05_14h04.56.156,2026A_exp2,2022.2.4,59.945317890335566,
1,0,3.7,4.9,1,0,1,1,18,,,,,59.245094800018705,59.89573749998817,59.89573749998817,60.379947900015395,45,45,60.379947900015395,60.379947900015395,60.379947900015395,60.379947900015395,60.379947900015395,60.379947900015395,60.379947900015395,60.379947900015395,60.379947900015395,60.74655720003648,60.74655720003648,60.74655720003648,60.74655720003648,60.74655720003648,60.74655720003648,60.74655720003648,60.74655720003648,60.74655720003648,23,0,,,60.74655720003648,60.94668980001006,4.9,60.94668980001006,1,4.9,1,1,1000,num_4,0.6257291999645531,,27,12,2026-03-05_14h04.56.156,2026A_exp2,2022.2.4,59.945317890335566,
0,0,0.0,0.0,0,0,2,2,59,,,,,61.59729930001777,62.24792150000576,62.24792150000576,62.73235519998707,45,45,62.73235519998707,62.73235519998707,62.73235519998707,62.73235519998707,62.73235519998707,62.73235519998707,62.73235519998707,62.73235519998707,62.73235519998707,63.09900899999775,63.09900899999775,63.09900899999775,63.09900899999775,63.09900899999775,63.09900899999775,63.09900899999775,63.09900899999775,63.09900899999775,23,0,,,63.09900899999775,63.298957300023176,0.0,63.298957300023176,0,0.0,0,1,1000,num_1,0.5299363999511115,,27,12,2026-03-05_14h04.56.156,2026A_exp2,2022.2.4,59.945317890335566,
1000,1,0.0,0.0,1,0,3,3,1,,,,,63.8496068000095,64.50023280002642,64.50023280002642,64.98586280003656,315,45,64.98586280003656,64.98586280003656,64.98586280003656,64.98586280003656,64.98586280003656,64.98586280003656,64.98586280003656,64.98586280003656,64.98586280003656,65.35107959999004,65.35107959999004,65.35107959999004,65.35107959999004,65.35107959999004,65.35107959999004,65.35107959999004,65.35107959999004,65.35107959999004,23,0,,,65.35107959999004,65.55302849999862,1000,65.55302849999862,1000,1000,1000,1000,0,num_3,0.6676543999928981,,27,12,2026-03-05_14h04.56.156,2026A_exp2,2022.2.4,59.945317890335566,
1,0,4.9,3.7,1,0,4,4,27,,,,,66.25213370000711,66.90272750001168,66.90272750001168,67.40360140003031,315,315,67.40360140003031,67.40360140003031,67.40360140003031,67.40360140003031,67.40360140003031,67.40360140003031,67.40360140003031,67.40360140003031,67.40360140003031,67.75355840002885,67.75355840002885,67.75355840002885,67.75355840002885,67.75355840002885,67.75355840002885,67.75355840002885,67.75355840002885,67.75355840002885,22,0,,,67.75355840002885,67.95386010000948,3.7,67.97061950003263,0,3.7,1,0,1000,num_1,0.5548165999935009,,27,12,2026-03-05_14h04.56.156,2026A_exp2,2022.2.4,59.945317890335566,
1000,1,3.7,3.7,0,0,5,5,72,,,,,68.55437700002221,69.20504269999219,69.20504269999219,69.70597190002445,45,45,69.70597190002445,69.70597190002445,69.70597190002445,69.70597190002445,69.70597190002445,69.70597190002445,69.70597190002445,69.70597190002445,69.70597190002445,70.07220410002628,70.07220410002628,70.07220410002628,70.07220410002628,70.07220410002628,70.07220410002628,70.07220410002628,70.07220410002628,70.07220410002628,0,1,[0.0015408999752253294],[0.3662591999745928],70.07220410002628,70.27474730001995,1000,70.27474730001995,1000,1000,1000,1000,0,num_3,0.513968700019177,,27,12,2026-03-05_14h04.56.156,2026A_exp2,2022.2.4,59.945317890335566,
1000,1,4.9,0.0,0,0,6,6,54,,,,,70.80648359999759,71.45733300002757,71.45733300002757,71.95841550000478,315,45,71.95841550000478,71.95841550000478,71.95841550000478,71.95841550000478,71.95841550000478,71.95841550000478,71.95841550000478,71.95841550000478,71.95841550000478,72.32456750003621,72.32456750003621,72.32456750003621,72.32456750003621,72.32456750003621,72.32456750003621,72.32456750003621,72.32456750003621,72.32456750003621,23,0,,,72.32456750003621,72.52879950002534,1000,72.52879950002534,1000,1000,1000,1000,0,num_3,0.4998590999748558,,27,12,2026-03-05_14h04.56.156,2026A_exp2,2022.2.4,59.945317890335566,
1,0,3.7,6.1,0,0,7,7,52,,,,,73.05880629998865,73.70954810001422,73.70954810001422,74.21066959999735,45,315,74.21066959999735,74.21066959999735,74.21066959999735,74.21066959999735,74.21066959999735,74.21066959999735,74.21066959999735,74.21066959999735,74.21066959999735,74.57687930000247,74.57687930000247,74.57687930000247,74.57687930000247,74.57687930000247,74.57687930000247,74.57687930000247,74.57687930000247,74.57687930000247,23,0,,,74.57687930000247,74.77726960001746,3.7,74.77726960001746,0,3.7,1,0,1000,num_1,0.6833772999816574,,27,12,2026-03-05_14h04.56.156,2026A_exp2,2022.2.4,59.945317890335566,
1,0,0.0,0.0,0,0,8,8,55,,,,,75.47824860003311,76.12864489998901,76.12864489998901,76.61292440001853,315,315,76.61292440001853,76.61292440001853,76.61292440001853,76.61292440001853,76.61292440001853,76.61292440001853,76.61292440001853,76.61292440001853,76.61292440001853,76.97951030003605,76.97951030003605,76.97951030003605,76.97951030003605,76.97951030003605,76.97951030003605,76.97951030003605,76.97951030003605,76.97951030003605,23,0,,,76.97951030003605,77.17968840000685,0.0,77.17968840000685,0,0.0,0,1,1000,num_1,0.6406618999899365,,27,12,2026-03-05_14h04.56.156,2026A_exp2,2022.2.4,59.945317890335566,
1,0,6.1,0.0,1,0,9,9,89,,,,,77.8470943000284,78.49762219999684,78.49762219999684,78.98209440003848,315,315,78.98209440003848,78.98209440003848,78.98209440003848,78.98209440003848,78.98209440003848,78.98209440003848,78.98209440003848,78.98209440003848,78.98209440003848,79.3484732999932,79.3484732999932,79.3484732999932,79.3484732999932,79.3484732999932,79.3484732999932,79.3484732999932,79.3484732999932,79.3484732999932,23,0,,,79.3484732999932,79.54860610002652,0.0,79.54860610002652,0,0.0,0,1,1000,num_1,0.5203636000514962,,27,12,2026-03-05_14h04.56.156,2026A_exp2,2022.2.4,59.945317890335566,
1,0,0.0,0.0,1,0,10,10,42,,,,,80.09933430003002,80.74998900003266,80.74998900003266,81.23425440001301,45,45,81.23425440001301,81.23425440001301,81.23425440001301,81.23425440001301,81.23425440001301,81.23425440001301,81.23425440001301,81.23425440001301,81.23425440001301,81.60078590002377,81.60078590002377,81.60078590002377,81.60078590002377,81.60078590002377,81.60078590002377,81.60078590002377,81.60078590002377,81.60078590002377,23,0,,,81.60078590002377,81.80098649999127,0.0,81.80098649999127,0,0.0,0,1,1000,num_1,0.6199138999800198,,27,12,2026-03-05_14h04.56.156,2026A_exp2,2022.2.4,59.945317890335566,
1000,1,0.0,3.7,1,0,11,11,13,,,,,82.45150060002925,83.10224390000803,83.10224390000803,83.5865450000274,45,45,83.5865450000274,83.5865450000274,83.5865450000274,83.5865450000274,83.5865450000274,83.5865450000274,83.5865450000274,83.5865450000274,83.5865450000274,83.95305890002055,83.95305890002055,83.95305890002055,83.95305890002055,83.95305890002055,83.95305890002055,83.95305890002055,83.95305890002055,83.95305890002055,23,0,,,83.95305890002055,84.15523470001062,1000,84.15523470001062,1000,1000,1000,1000,1,num_2,0.5384317999705672,,27,12,2026-03-05_14h04.56.156,2026A_exp2,2022.2.4,59.945317890335566,
1000,1,0.0,0.0,0,0,12,12,15,,,,,84.72042249998776,85.37990550004179,85.37990550004179,85.8773816000321,45,45,85.8773816000321,85.8773816000321,85.8773816000321,85.8773816000321,85.8773816000321,85.8773816000321,85.8773816000321,85.8773816000321,85.8773816000321,86.22194160002982,86.22194160002982,86.22194160002982,86.22194160002982,86.22194160002982,86.22194160002982,86.22194160002982,86.22194160002982,86.22194160002982,22,0,,,86.22194160002982,86.42587800003821,1000,86.42587800003821,1000,1000,1000,1000,1,num_2,0.6349596000509337,,27,12,2026-03-05_14h04.56.156,2026A_exp2,2022.2.4,59.945317890335566,
1,0,0.0,4.9,0,0,13,13,73,,,,,87.08940990001429,87.74012850003783,87.74012850003783,88.24138940003468,45,45,88.24138940003468,88.24138940003468,88.24138940003468,88.24138940003468,88.24138940003468,88.24138940003468,88.24138940003468,88.24138940003468,88.24138940003468,88.59109170001466,88.59109170001466,88.59109170001466,88.59109170001466,88.59109170001466,88.59109170001466,88.59109170001466,88.59109170001466,88.59109170001466,22,0,,,88.59109170001466,88.79110870003933,0.0,88.79110870003933,0,0.0,0,1,1000,num_1,0.6136141000315547,,27,12,2026-03-05_14h04.56.156,2026A_exp2,2022.2.4,59.945317890335566,
1,0,3.7,3.7,1,0,14,14,30,,,,,89.4251518000383,90.0758428000263,90.0758428000263,90.56026890000794,315,45,90.56026890000794,90.56026890000794,90.56026890000794,90.56026890000794,90.56026890000794,90.56026890000794,90.56026890000794,90.56026890000794,90.56026890000794,90.92675580002833,90.92675580002833,90.92675580002833,90.92675580002833,90.92675580002833,90.92675580002833,90.92675580002833,90.92675580002833,90.92675580002833,4,2,"[0.050111700023990124, 0.08344590000342578]","[0.06686479999916628, 0.3669332000426948]",90.92675580002833,91.12691610003822,3.7,91.12691610003822,0,3.7,1,0,1000,num_1,1.0692826000158675,,27,12,2026-03-05_14h04.56.156,2026A_exp2,2022.2.4,59.945317890335566,
1000,1,0.0,0.0,0,0,15,15,5,,,,,92.22812119999435,92.87870920001296,92.87870920001296,93.36315410002135,315,315,93.36315410002135,93.36315410002135,93.36315410002135,93.36315410002135,93.36315410002135,93.36315410002135,93.36315410002135,93.36315410002135,93.36315410002135,93.72953000001144,93.72953000001144,93.72953000001144,93.72953000001144,93.72953000001144,93.72953000001144,93.72953000001144,93.72953000001144,93.72953000001144,19,3,"[0.11766729998635128, 0.1677048000274226, 0.26763919997029006]","[0.15090279997093603, 0.184292700025253, 0.2843091000104323]",93.72953000001144,93.93156220001401,1000,93.93156220001401,1000,1000,1000,1000,0,num_3,0.5448632999905385,,27,12,2026-03-05_14h04.56.156,2026A_exp2,2022.2.4,59.945317890335566,
1000,1,6.1,6.1,0,0,16,16,16,,,,,94.49701769999228,95.14753110002493,95.14753110002493,95.64858280000044,315,45,95.64858280000044,95.64858280000044,95.64858280000044,95.64858280000044,95.64858280000044,95.64858280000044,95.64858280000044,95.64858280000044,95.64858280000044,95.99848030001158,95.99848030001158,95.99848030001158,95.99848030001158,95.99848030001158,95.99848030001158,95.99848030001158,95.99848030001158,95.99848030001158,22,0,,,95.99848030001158,96.2006093999953,1000,96.2006093999953,1000,1000,1000,1000,0,num_3,0.45226609997916967,,27,12,2026-03-05_14h04.56.156,2026A_exp2,2022.2.4,59.945317890335566,
0,0,0.0,3.7,0,0,17,17,34,,,,,96.68228579999413,97.33315100002801,97.33315100002801,97.83412940002745,315,315,97.83412940002745,97.83412940002745,97.83412940002745,97.83412940002745,97.83412940002745,97.83412940002745,97.83412940002745,97.83412940002745,97.83412940002745,98.2006859999965,98.2006859999965,98.2006859999965,98.2006859999965,98.2006859999965,98.2006859999965,98.2006859999965,98.2006859999965,98.2006859999965,1,2,"[0.0012465000036172569, 0.36709980003070086]","[0.35034090001136065, 0.36710460000904277]",98.2006859999965,98.40081500000088,3.7,98.40081500000088,1,3.7,1,1,1000,num_4,0.5877308999770321,,27,12,2026-03-05_14h04.56.156,2026A_exp2,2022.2.4,59.945317890335566,
1000,1,3.7,0.0,0,0,18,18,56,,,,,99.01807900000131,99.66879740002332,99.66879740002332,100.1532193000312,45,315,100.1532193000312,100.1532193000312,100.1532193000312,100.1532193000312,100.1532193000312,100.1532193000312,100.1532193000312,100.1532193000312,100.1532193000312,100.51969650003593,100.51969650003593,100.51969650003593,100.51969650003593,100.51969650003593,100.51969650003593,100.51969650003593,100.51969650003593,100.51969650003593,23,0,,,100.51969650003593,100.72179560002405,1000,100.72179560002405,1000,1000,1000,1000,0,num_3,0.37895129999378696,,27,12,2026-03-05_14h04.56.156,2026A_exp2,2022.2.4,59.945317890335566,
1000,1,0.0,0.0,1,0,19,19,85,,,,,101.12006660003681,101.77101190004032,101.77101190004032,102.27201990003232,315,315,102.27201990003232,102.27201990003232,102.27201990003232,102.27201990003232,102.27201990003232,102.27201990003232,102.27201990003232,102.27201990003232,102.27201990003232,102.63823030004278,102.63823030004278,102.63823030004278,102.63823030004278,102.63823030004278,102.63823030004278,102.63823030004278,102.63823030004278,102.63823030004278,4,2,"[0.0012549000093713403, 0.3004808000405319]","[0.25031850003870204, 0.36707970005227253]",102.63823030004278,102.84030949999578,1000,102.84030949999578,1000,1000,1000,1000,1,num_2,0.6049021999933757,,27,12,2026-03-05_14h04.56.156,2026A_exp2,2022.2.4,59.945317890335566,
1000,1,3.7,6.1,1,0,20,20,58,,,,,103.47260919999098,104.12313230003929,104.12313230003929,104.62427050003316,45,315,104.62427050003316,104.62427050003316,104.62427050003316,104.62427050003316,104.62427050003316,104.62427050003316,104.62427050003316,104.62427050003316,104.62427050003316,104.9907715000445,104.9907715000445,104.9907715000445,104.9907715000445,104.9907715000445,104.9907715000445,104.9907715000445,104.9907715000445,104.9907715000445,23,0,,,104.9907715000445,105.1928188999882,1000,105.1928188999882,1000,1000,1000,1000,1,num_2,0.37225300003774464,,27,12,2026-03-05_14h04.56.156,2026A_exp2,2022.2.4,59.945317890335566,
1000,1,6.1,6.1,1,0,21,21,8,,,,,105.59131650003837,106.24208060000092,106.24208060000092,106.74320060003083,45,45,106.74320060003083,106.74320060003083,106.74320060003083,106.74320060003083,106.74320060003083,106.74320060003083,106.74320060003083,106.74320060003083,106.74320060003083,107.10962659999495,107.10962659999495,107.10962659999495,107.10962659999495,107.10962659999495,107.10962659999495,107.10962659999495,107.10962659999495,107.10962659999495,23,0,,,107.10962659999495,107.31177760002902,1000,107.31177760002902,1000,1000,1000,1000,0,num_3,0.4216014999547042,,27,12,2026-03-05_14h04.56.156,2026A_exp2,2022.2.4,59.945317890335566,
1000,1,3.7,3.7,0,0,22,22,63,,,,,107.76014560001204,108.41094870003872,108.41094870003872,108.91204329999164,315,315,108.91204329999164,108.91204329999164,108.91204329999164,108.91204329999164,108.91204329999164,108.91204329999164,108.91204329999164,108.91204329999164,108.91204329999164,109.27833729999838,109.27833729999838,109.27833729999838,109.27833729999838,109.27833729999838,109.27833729999838,109.27833729999838,109.27833729999838,109.27833729999838,23,0,,,109.27833729999838,109.48087930004112,1000,109.48087930004112,1000,1000,1000,1000,0,num_3,0.42793529998743907,,27,12,2026-03-05_14h04.56.156,2026A_exp2,2022.2.4,59.945317890335566,
1000,1,0.0,6.1,1,0,23,23,71,,,,,109.92895339999814,110.57980950002093,110.57980950002093,111.08087649999652,315,45,111.08087649999652,111.08087649999652,111.08087649999652,111.08087649999652,111.08087649999652,111.08087649999652,111.08087649999652,111.08087649999652,111.08087649999652,111.4304439999978,111.4304439999978,111.4304439999978,111.4304439999978,111.4304439999978,111.4304439999978,111.4304439999978,111.4304439999978,111.4304439999978,22,0,,,111.4304439999978,111.63239270000486,1000,111.63239270000486,1000,1000,1000,1000,1,num_2,0.38053429999854416,,27,12,2026-03-05_14h04.56.156,2026A_exp2,2022.2.4,59.945317890335566,
1000,1,6.1,0.0,0,0,24,24,81,,,,,112.03129920002539,112.68179430003511,112.68179430003511,113.16617879999103,45,315,113.16617879999103,113.16617879999103,113.16617879999103,113.16617879999103,113.16617879999103,113.16617879999103,113.16617879999103,113.16617879999103,113.16617879999103,113.53257939999457,113.53257939999457,113.53257939999457,113.53257939999457,113.53257939999457,113.53257939999457,113.53257939999457,113.53257939999457,113.53257939999457,23,0,,,113.53257939999457,113.73476970003685,1000,113.73476970003685,1000,1000,1000,1000,0,num_3,0.398305100039579,,27,12,2026-03-05_14h04.56.156,2026A_exp2,2022.2.4,59.945317890335566,
1000,1,0.0,0.0,1,0,25,25,9,,,,,114.15006419998826,114.80063509999309,114.80063509999309,115.30176110001048,45,45,115.30176110001048,115.30176110001048,115.30176110001048,115.30176110001048,115.30176110001048,115.30176110001048,115.30176110001048,115.30176110001048,115.30176110001048,115.66815380001208,115.66815380001208,115.66815380001208,115.66815380001208,115.66815380001208,115.66815380001208,115.66815380001208,115.66815380001208,115.66815380001208,2,2,"[0.00121640000725165, 0.06653690000530332]","[0.05017800000496209, 0.36718000000109896]",115.66815380001208,115.87025640002685,1000,115.87025640002685,1000,1000,1000,1000,1,num_2,0.5183554000104778,,27,12,2026-03-05_14h04.56.156,2026A_exp2,2022.2.4,59.945317890335566,
1,0,4.9,3.7,0,0,26,26,44,,,,,116.4188906000345,117.0695265000104,117.0695265000104,117.57081930001732,45,315,117.57081930001732,117.57081930001732,117.57081930001732,117.57081930001732,117.57081930001732,117.57081930001732,117.57081930001732,117.57081930001732,117.57081930001732,117.92032690002816,117.92032690002816,117.92032690002816,117.92032690002816,117.92032690002816,117.92032690002816,117.92032690002816,117.92032690002816,117.92032690002816,22,0,,,117.92032690002816,118.12051179999253,4.9,118.13700640003663,1,4.9,1,1,1000,num_4,0.6996945000137202,,27,12,2026-03-05_14h04.56.156,2026A_exp2,2022.2.4,59.945317890335566,
1,0,0.0,6.1,1,0,27,27,33,,,,,118.8545970999985,119.50538210000377,119.50538210000377,119.98971890000394,315,315,119.98971890000394,119.98971890000394,119.98971890000394,119.98971890000394,119.98971890000394,119.98971890000394,119.98971890000394,119.98971890000394,119.98971890000394,120.35625910002273,120.35625910002273,120.35625910002273,120.35625910002273,120.35625910002273,120.35625910002273,120.35625910002273,120.35625910002273,120.35625910002273,23,0,,,120.35625910002273,120.55632969998987,6.1,120.55632969998987,1,6.1,1,1,1000,num_4,0.5049266999703832,,27,12,2026-03-05_14h04.56.156,2026A_exp2,2022.2.4,59.945317890335566,
1,0,0.0,4.9,1,0,28,28,37,,,,,121.09011759998975,121.74106060003396,121.74106060003396,122.22518010000931,315,315,122.22518010000931,122.22518010000931,122.22518010000931,122.22518010000931,122.22518010000931,122.22518010000931,122.22518010000931,122.22518010000931,122.22518010000931,122.59165920002852,122.59165920002852,122.59165920002852,122.59165920002852,122.59165920002852,122.59165920002852,122.59165920002852,122.59165920002852,122.59165920002852,4,2,"[0.001212799979839474, 0.15031830000225455]","[0.13369190000230446, 0.33374249999178573]",122.59165920002852,122.79156169999624,4.9,122.79156169999624,1,4.9,1,1,1000,num_4,0.4292410999769345,,27,12,2026-03-05_14h04.56.156,2026A_exp2,2022.2.4,59.945317890335566,
1,0,0.0,0.0,1,0,29,29,69,,,,,123.2422817000188,123.8930771999876,123.8930771999876,124.37747280002804,45,45,124.37747280002804,124.37747280002804,124.37747280002804,124.37747280002804,124.37747280002804,124.37747280002804,124.37747280002804,124.37747280002804,124.37747280002804,124.7438664000365,124.7438664000365,124.7438664000365,124.7438664000365,124.7438664000365,124.7438664000365,124.7438664000365,124.7438664000365,124.7438664000365,0,1,[0.0007107999990694225],[0.36782149999635294],124.7438664000365,124.94410000002244,0.0,124.94410000002244,1,0.0,0,0,1000,num_4,0.5169263000134379,,27,12,2026-03-05_14h04.56.156,2026A_exp2,2022.2.4,59.945317890335566,
1000,1,6.1,0.0,1,0,30,30,29,,,,,125.4777785000042,126.12887710001087,126.12887710001087,126.61308710003505,45,315,126.61308710003505,126.61308710003505,126.61308710003505,126.61308710003505,126.61308710003505,126.61308710003505,126.61308710003505,126.61308710003505,126.61308710003505,126.97935949999373,126.97935949999373,126.97935949999373,126.97935949999373,126.97935949999373,126.97935949999373,126.97935949999373,126.97935949999373,126.97935949999373,23,0,,,126.97935949999373,127.1813167000073,1000,127.1813167000073,1000,1000,1000,1000,0,num_3,0.5914606000296772,,27,12,2026-03-05_14h04.56.156,2026A_exp2,2022.2.4,59.945317890335566,
1,0,0.0,3.7,1,0,31,31,14,,,,,127.79684850003105,,128.44830980000552,128.94873800000641,45,45,128.94873800000641,128.94873800000641,128.94873800000641,128.94873800000641,128.94873800000641,128.94873800000641,128.94873800000641,128.94873800000641,128.94873800000641,129.31516910000937,129.31516910000937,129.31516910000937,129.31516910000937,129.31516910000937,129.31516910000937,129.31516910000937,129.31516910000937,129.31516910000937,23,0,,,129.31516910000937,129.51517960004276,3.7,129.51517960004276,1,3.7,1,1,1000,num_4,0.6341186999925412,,27,12,2026-03-05_14h04.56.156,2026A_exp2,2022.2.4,59.945317890335566,
1000,1,3.7,4.9,0,0,32,32,45,,,,,130.16597770003136,130.81663100002334,130.81663100002334,131.30113269999856,45,315,131.30113269999856,131.30113269999856,131.30113269999856,131.30113269999856,131.30113269999856,131.30113269999856,131.30113269999856,131.30113269999856,131.30113269999856,131.66726670000935,131.66726670000935,131.66726670000935,131.66726670000935,131.66726670000935,131.66726670000935,131.66726670000935,131.66726670000935,131.66726670000935,23,0,,,131.66726670000935,131.86962489999132,1000,131.86962489999132,1000,1000,1000,1000,1,num_2,0.5196984999929555,,27,12,2026-03-05_14h04.56.156,2026A_exp2,2022.2.4,59.945317890335566,
1,0,4.9,0.0,1,0,33,33,65,,,,,132.41842739999993,133.068871400028,133.068871400028,133.56992710003396,315,315,133.56992710003396,133.56992710003396,133.56992710003396,133.56992710003396,133.56992710003396,133.56992710003396,133.56992710003396,133.56992710003396,133.56992710003396,133.91966820001835,133.91966820001835,133.91966820001835,133.91966820001835,133.91966820001835,133.91966820001835,133.91966820001835,133.91966820001835,133.91966820001835,22,0,,,133.91966820001835,134.11999410000863,0.0,134.13674170000013,0,0.0,0,1,1000,num_1,0.5807423999649473,,27,12,2026-03-05_14h04.56.156,2026A_exp2,2022.2.4,59.945317890335566,
1,0,0.0,6.1,1,0,34,34,50,,,,,134.73725860001286,135.37117090000538,135.37117090000538,135.87233690003632,45,45,135.87233690003632,135.87233690003632,135.87233690003632,135.87233690003632,135.87233690003632,135.87233690003632,135.87233690003632,135.87233690003632,135.87233690003632,136.23861800000304,136.23861800000304,136.23861800000304,136.23861800000304,136.23861800000304,136.23861800000304,136.23861800000304,136.23861800000304,136.23861800000304,23,0,,,136.23861800000304,136.43899840000086,6.1,136.43899840000086,1,6.1,1,1,1000,num_4,0.9180508999852464,,27,12,2026-03-05_14h04.56.156,2026A_exp2,2022.2.4,59.945317890335566,
1,0,6.1,0.0,1,0,35,35,80,,,,,137.37305059999926,138.0238484000438,138.0238484000438,138.50819349999074,45,45,138.50819349999074,138.50819349999074,138.50819349999074,138.50819349999074,138.50819349999074,138.50819349999074,138.50819349999074,138.50819349999074,138.50819349999074,138.87458040000638,138.87458040000638,138.87458040000638,138.87458040000638,138.87458040000638,138.87458040000638,138.87458040000638,138.87458040000638,138.87458040000638,0,1,[0.001201900013256818],[0.36668450001161546],138.87458040000638,139.07476270000916,0.0,139.07476270000916,0,0.0,0,1,1000,num_1,0.6662048000143841,,27,12,2026-03-05_14h04.56.156,2026A_exp2,2022.2.4,59.945317890335566,
1000,1,3.7,0.0,0,0,36,36,76,,,,,139.75864409998758,140.40954299998702,140.40954299998702,140.89385799999582,315,45,140.89385799999582,140.89385799999582,140.89385799999582,140.89385799999582,140.89385799999582,140.89385799999582,140.89385799999582,140.89385799999582,140.89385799999582,141.26025739999022,141.26025739999022,141.26025739999022,141.26025739999022,141.26025739999022,141.26025739999022,141.26025739999022,141.26025739999022,141.26025739999022,23,0,,,141.26025739999022,141.46247440000298,1000,141.46247440000298,1000,1000,1000,1000,0,num_3,0.510464699997101,,27,12,2026-03-05_14h04.56.156,2026A_exp2,2022.2.4,59.945317890335566,
1,0,0.0,0.0,0,0,37,37,24,,,,,141.9944216000149,142.6451866000425,142.6451866000425,143.14624410000397,45,315,143.14624410000397,143.14624410000397,143.14624410000397,143.14624410000397,143.14624410000397,143.14624410000397,143.14624410000397,143.14624410000397,143.14624410000397,143.49599190003937,143.49599190003937,143.49599190003937,143.49599190003937,143.49599190003937,143.49599190003937,143.49599190003937,143.49599190003937,143.49599190003937,22,0,,,143.49599190003937,143.69607300002826,0.0,143.69607300002826,1,0.0,0,0,1000,num_4,0.7490939000272192,,27,12,2026-03-05_14h04.56.156,2026A_exp2,2022.2.4,59.945317890335566,
1,0,6.1,0.0,0,0,38,38,82,,,,,144.46348020003643,145.1141423000372,145.1141423000372,145.5986331999884,315,315,145.5986331999884,145.5986331999884,145.5986331999884,145.5986331999884,145.5986331999884,145.5986331999884,145.5986331999884,145.5986331999884,145.5986331999884,145.96509980002884,145.96509980002884,145.96509980002884,145.96509980002884,145.96509980002884,145.96509980002884,145.96509980002884,145.96509980002884,145.96509980002884,7,1,[0.11682900000596419],[0.36726819997420534],145.96509980002884,146.16511609998997,6.1,146.16511609998997,1,6.1,1,1,1000,num_4,0.5994590999907814,,27,12,2026-03-05_14h04.56.156,2026A_exp2,2022.2.4,59.945317890335566,
1000,1,0.0,6.1,1,0,39,39,43,,,,,146.7823958999943,147.43334580003284,147.43334580003284,147.917578099994,45,45,147.917578099994,147.917578099994,147.917578099994,147.917578099994,147.917578099994,147.917578099994,147.917578099994,147.917578099994,147.917578099994,148.28413440001896,148.28413440001896,148.28413440001896,148.28413440001896,148.28413440001896,148.28413440001896,148.28413440001896,148.28413440001896,148.28413440001896,0,1,[0.0012393000070005655],[0.3671324999886565],148.28413440001896,148.4860601000255,1000,148.4860601000255,1000,1000,1000,1000,1,num_2,0.5422798999934457,,27,12,2026-03-05_14h04.56.156,2026A_exp2,2022.2.4,59.945317890335566,
1000,1,3.7,6.1,1,0,40,40,48,,,,,149.051507199998,149.70213190000504,149.70213190000504,150.2033431000309,45,315,150.2033431000309,150.2033431000309,150.2033431000309,150.2033431000309,150.2033431000309,150.2033431000309,150.2033431000309,150.2033431000309,150.2033431000309,150.5531918000197,150.5531918000197,150.5531918000197,150.5531918000197,150.5531918000197,150.5531918000197,150.5531918000197,150.5531918000197,150.5531918000197,22,0,,,150.5531918000197,150.7534183000098,1000,150.7534183000098,1000,1000,1000,1000,1,num_2,0.4752425000187941,,27,12,2026-03-05_14h04.56.156,2026A_exp2,2022.2.4,59.945317890335566,
1000,1,6.1,3.7,0,0,41,41,75,,,,,151.25369780004257,151.90438810002524,151.90438810002524,152.40537210000912,315,315,152.40537210000912,152.40537210000912,152.40537210000912,152.40537210000912,152.40537210000912,152.40537210000912,152.40537210000912,152.40537210000912,152.40537210000912,152.75522039999487,152.75522039999487,152.75522039999487,152.75522039999487,152.75522039999487,152.75522039999487,152.75522039999487,152.75522039999487,152.75522039999487,0,1,[0.001201900013256818],[0.3503810999682173],152.75522039999487,152.95744750002632,1000,152.95744750002632,1000,1000,1000,1000,0,num_3,0.4243379000108689,,27,12,2026-03-05_14h04.56.156,2026A_exp2,2022.2.4,59.945317890335566,
1,0,0.0,4.9,0,0,42,42,3,,,,,153.4060593000031,154.0565330000245,154.0565330000245,154.5409905000124,45,315,154.5409905000124,154.5409905000124,154.5409905000124,154.5409905000124,154.5409905000124,154.5409905000124,154.5409905000124,154.5409905000124,154.5409905000124,154.9074365000124,154.9074365000124,154.9074365000124,154.9074365000124,154.9074365000124,154.9074365000124,154.9074365000124,154.9074365000124,154.9074365000124,0,1,[0.001196000026538968],[0.3672981000272557],154.9074365000124,155.1074514000211,0.0,155.1074514000211,0,0.0,0,1,1000,num_1,0.7455478000338189,,27,12,2026-03-05_14h04.56.156,2026A_exp2,2022.2.4,59.945317890335566,
1,0,0.0,0.0,1,0,43,43,49,,,,,155.8749198000296,156.52568359998986,156.52568359998986,157.01003639999544,315,45,157.01003639999544,157.01003639999544,157.01003639999544,157.01003639999544,157.01003639999544,157.01003639999544,157.01003639999544,157.01003639999544,157.01003639999544,157.37645540002268,157.37645540002268,157.37645540002268,157.37645540002268,157.37645540002268,157.37645540002268,157.37645540002268,157.37645540002268,157.37645540002268,7,2,"[0.0011950000189244747, 0.2503701000241563]","[0.1337072000023909, 0.36721090000355616]",157.37645540002268,157.5766741000116,0.0,157.5766741000116,1,0.0,0,0,1000,num_4,0.5960079000215046,,27,12,2026-03-05_14h04.56.156,2026A_exp2,2022.2.4,59.945317890335566,
1000,1,3.7,0.0,1,0,44,44,19,,,,,158.19381820003036,158.8445836000028,158.8445836000028,159.32912340003531,45,45,159.32912340003531,159.32912340003531,159.32912340003531,159.32912340003531,159.32912340003531,159.32912340003531,159.32912340003531,159.32912340003531,159.32912340003531,159.69550520001212,159.69550520001212,159.69550520001212,159.69550520001212,159.69550520001212,159.69550520001212,159.69550520001212,159.69550520001212,159.69550520001212,4,1,[0.06686919997446239],[0.36719179997453466],159.69550520001212,159.897435699997,1000,159.897435699997,1000,1000,1000,1000,0,num_3,0.49189529998693615,,27,12,2026-03-05_14h04.56.156,2026A_exp2,2022.2.4,59.945317890335566,
1000,1,6.1,6.1,1,0,45,45,4,,,,,160.41285680001602,161.06340069998987,161.06340069998987,161.5645610000356,315,315,161.5645610000356,161.5645610000356,161.5645610000356,161.5645610000356,161.5645610000356,161.5645610000356,161.5645610000356,161.5645610000356,161.5645610000356,161.93103219999466,161.93103219999466,161.93103219999466,161.93103219999466,161.93103219999466,161.93103219999466,161.93103219999466,161.93103219999466,161.93103219999466,0,1,[0.0007751000230200589],[0.36806379997869954],161.93103219999466,162.13303850003285,1000,162.13303850003285,1000,1000,1000,1000,1,num_2,0.44034849997842684,,27,12,2026-03-05_14h04.56.156,2026A_exp2,2022.2.4,59.945317890335566,
0,0,4.9,3.7,0,0,46,46,28,,,,,162.59844880003948,163.24907290004194,163.24907290004194,163.75013280002167,315,45,163.75013280002167,163.75013280002167,163.75013280002167,163.75013280002167,163.75013280002167,163.75013280002167,163.75013280002167,163.75013280002167,163.75013280002167,164.099821300013,164.099821300013,164.099821300013,164.099821300013,164.099821300013,164.099821300013,164.099821300013,164.099821300013,164.099821300013,22,0,,,164.099821300013,164.3000933000003,3.7,164.31681290001143,0,3.7,1,0,1000,num_1,0.5600256999605335,,27,12,2026-03-05_14h04.56.156,2026A_exp2,2022.2.4,59.945317890335566,
1000,1,0.0,0.0,1,0,47,47,78,,,,,164.900584899995,165.5513471000013,165.5513471000013,166.03565780003555,45,45,166.03565780003555,166.03565780003555,166.03565780003555,166.03565780003555,166.03565780003555,166.03565780003555,166.03565780003555,166.03565780003555,166.03565780003555,166.40214200003538,166.40214200003538,166.40214200003538,166.40214200003538,166.40214200003538,166.40214200003538,166.40214200003538,166.40214200003538,166.40214200003538,23,0,,,166.40214200003538,166.60425130004296,1000,166.60425130004296,1000,1000,1000,1000,1,num_2,0.5119813000201248,,27,12,2026-03-05_14h04.56.156,2026A_exp2,2022.2.4,59.945317890335566,
0,0,0.0,0.0,1,0,48,48,2,,,,,167.13618530001258,167.78688979998697,167.78688979998697,168.2879675999866,315,315,168.2879675999866,168.2879675999866,168.2879675999866,168.2879675999866,168.2879675999866,168.2879675999866,168.2879675999866,168.2879675999866,168.2879675999866,168.65430450002896,168.65430450002896,168.65430450002896,168.65430450002896,168.65430450002896,168.65430450002896,168.65430450002896,168.65430450002896,168.65430450002896,0,1,[0.0012402000138536096],[0.36721150000812486],168.65430450002896,168.85475240001688,0.0,168.85475240001688,0,0.0,0,1,1000,num_1,0.6536394000286236,,27,12,2026-03-05_14h04.56.156,2026A_exp2,2022.2.4,59.945317890335566,
1,0,0.0,3.7,1,0,49,49,35,,,,,169.53854750003666,170.18935770000098,170.18935770000098,170.6738222000422,45,45,170.6738222000422,170.6738222000422,170.6738222000422,170.6738222000422,170.6738222000422,170.6738222000422,170.6738222000422,170.6738222000422,170.6738222000422,171.04033059999347,171.04033059999347,171.04033059999347,171.04033059999347,171.04033059999347,171.04033059999347,171.04033059999347,171.04033059999347,171.04033059999347,1,2,"[0.0012160000042058527, 0.2837398999836296]","[0.26718239998444915, 0.36681539996061474]",171.04033059999347,171.24044220003998,3.7,171.24044220003998,1,3.7,1,1,1000,num_4,0.5242856999975629,,27,12,2026-03-05_14h04.56.156,2026A_exp2,2022.2.4,59.945317890335566,
1,0,0.0,6.1,1,0,50,50,36,,,,,171.79080180003075,172.44164239999373,172.44164239999373,172.92598060000455,45,315,172.92598060000455,172.92598060000455,172.92598060000455,172.92598060000455,172.92598060000455,172.92598060000455,172.92598060000455,172.92598060000455,172.92598060000455,173.29250490001868,173.29250490001868,173.29250490001868,173.29250490001868,173.29250490001868,173.29250490001868,173.29250490001868,173.29250490001868,173.29250490001868,0,1,[0.0012410000199452043],[0.36684860003879294],173.29250490001868,173.4925072999904,6.1,173.4925072999904,1,6.1,1,1,1000,num_4,0.39208029996370897,,27,12,2026-03-05_14h04.56.156,2026A_exp2,2022.2.4,59.945317890335566,
1000,1,6.1,0.0,1,0,51,51,83,,,,,173.90981660003308,174.560415200016,174.560415200016,175.04468140000245,315,45,175.04468140000245,175.04468140000245,175.04468140000245,175.04468140000245,175.04468140000245,175.04468140000245,175.04468140000245,175.04468140000245,175.04468140000245,175.41125910001574,175.41125910001574,175.41125910001574,175.41125910001574,175.41125910001574,175.41125910001574,175.41125910001574,175.41125910001574,175.41125910001574,23,0,,,175.41125910001574,175.61324239999522,1000,175.61324239999522,1000,1000,1000,1000,0,num_3,0.5033101000008173,,27,12,2026-03-05_14h04.56.156,2026A_exp2,2022.2.4,59.945317890335566,
1,0,6.1,4.9,1,0,52,52,11,,,,,176.1451481000404,176.79948370001512,176.79948370001512,177.2801773000392,315,45,177.2801773000392,177.2801773000392,177.2801773000392,177.2801773000392,177.2801773000392,177.2801773000392,177.2801773000392,177.2801773000392,177.2801773000392,177.64669590000995,177.64669590000995,177.64669590000995,177.64669590000995,177.64669590000995,177.64669590000995,177.64669590000995,177.64669590000995,177.64669590000995,0,1,[0.0015343999839387834],[0.3674499999615364],177.64669590000995,177.84705490001943,4.9,177.84705490001943,0,4.9,1,0,1000,num_1,0.5577201999840327,,27,12,2026-03-05_14h04.56.156,2026A_exp2,2022.2.4,59.945317890335566,
1000,1,0.0,3.7,1,0,53,53,84,,,,,178.43081560003338,179.0815019000438,179.0815019000438,179.56599030003417,45,45,179.56599030003417,179.56599030003417,179.56599030003417,179.56599030003417,179.56599030003417,179.56599030003417,179.56599030003417,179.56599030003417,179.56599030003417,179.93244649999542,179.93244649999542,179.93244649999542,179.93244649999542,179.93244649999542,179.93244649999542,179.93244649999542,179.93244649999542,179.93244649999542,23,0,,,179.93244649999542,180.13470749999397,1000,180.13470749999397,1000,1000,1000,1000,1,num_2,0.43882839998696,,27,12,2026-03-05_14h04.56.156,2026A_exp2,2022.2.4,59.945317890335566,
0,0,3.7,0.0,0,0,54,54,62,,,,,180.5998539000284,181.25048580003204,181.25048580003204,181.7514106000308,45,315,181.7514106000308,181.7514106000308,181.7514106000308,181.7514106000308,181.7514106000308,181.7514106000308,181.7514106000308,181.7514106000308,181.7514106000308,182.11791910004104,182.11791910004104,182.11791910004104,182.11791910004104,182.11791910004104,182.11791910004104,182.11791910004104,182.11791910004104,182.11791910004104,23,0,,,182.11791910004104,182.31797090003965,0.0,182.31797090003965,0,0.0,0,1,1000,num_1,0.5750808999873698,,27,12,2026-03-05_14h04.56.156,2026A_exp2,2022.2.4,59.945317890335566,
1000,1,0.0,4.9,0,0,55,55,26,,,,,182.9186288000201,183.57519480003975,183.57519480003975,184.05902129999595,45,45,184.05902129999595,184.05902129999595,184.05902129999595,184.05902129999595,184.05902129999595,184.05902129999595,184.05902129999595,184.05902129999595,184.05902129999595,184.4201844999916,184.4201844999916,184.4201844999916,184.4201844999916,184.4201844999916,184.4201844999916,184.4201844999916,184.4201844999916,184.4201844999916,0,1,[0.002585700014606118],[0.3654471000190824],184.4201844999916,184.62201150000328,1000,184.62201150000328,1000,1000,1000,1000,1,num_2,0.3992518999730237,,27,12,2026-03-05_14h04.56.156,2026A_exp2,2022.2.4,59.945317890335566,
1000,1,4.9,0.0,1,0,56,56,10,,,,,185.03755200002342,185.68804919999093,185.68804919999093,186.1892971000052,315,315,186.1892971000052,186.1892971000052,186.1892971000052,186.1892971000052,186.1892971000052,186.1892971000052,186.1892971000052,186.1892971000052,186.1892971000052,186.5389307999867,186.5389307999867,186.5389307999867,186.5389307999867,186.5389307999867,186.5389307999867,186.5389307999867,186.5389307999867,186.5389307999867,2,2,"[0.0012624000082723796, 0.1834000000380911]","[0.15002500003902242, 0.35000410000793636]",186.5389307999867,186.74086560000433,1000,186.75579870003276,1000,1000,1000,1000,0,num_3,0.44843750004656613,,27,12,2026-03-05_14h04.56.156,2026A_exp2,2022.2.4,59.945317890335566,
1,0,6.1,0.0,0,0,57,57,47,,,,,187.22289309999906,187.8736932000029,187.8736932000029,188.37470650003524,315,315,188.37470650003524,188.37470650003524,188.37470650003524,188.37470650003524,188.37470650003524,188.37470650003524,188.37470650003524,188.37470650003524,188.37470650003524,188.7412217000383,188.7412217000383,188.7412217000383,188.7412217000383,188.7412217000383,188.7412217000383,188.7412217000383,188.7412217000383,188.7412217000383,0,1,[0.001249499968253076],[0.36692699999548495],188.7412217000383,188.94130860001314,6.1,188.94130860001314,1,6.1,1,1,1000,num_4,0.6314298000070266,,27,12,2026-03-05_14h04.56.156,2026A_exp2,2022.2.4,59.945317890335566,
0,0,4.9,0.0,1,0,58,58,67,,,,,189.59191489999648,190.24275420000777,190.24275420000777,190.7270080000162,315,45,190.7270080000162,190.7270080000162,190.7270080000162,190.7270080000162,190.7270080000162,190.7270080000162,190.7270080000162,190.7270080000162,190.7270080000162,191.0936201000004,191.0936201000004,191.0936201000004,191.0936201000004,191.0936201000004,191.0936201000004,191.0936201000004,191.0936201000004,191.0936201000004,23,0,,,191.0936201000004,191.2937993000378,4.9,191.2937993000378,1,4.9,1,1,1000,num_4,0.5663937000208534,,27,12,2026-03-05_14h04.56.156,2026A_exp2,2022.2.4,59.945317890335566,
1000,1,0.0,3.7,0,0,59,59,46,,,,,191.87749010004336,192.52836019999813,192.52836019999813,193.01258570002392,45,315,193.01258570002392,193.01258570002392,193.01258570002392,193.01258570002392,193.01258570002392,193.01258570002392,193.01258570002392,193.01258570002392,193.01258570002392,193.3790113000432,193.3790113000432,193.3790113000432,193.3790113000432,193.3790113000432,193.3790113000432,193.3790113000432,193.3790113000432,193.3790113000432,2,2,"[0.001291499997023493, 0.0501700000022538]","[0.017150500032585114, 0.36707790003856644]",193.3790113000432,193.58084250002867,1000,193.58084250002867,1000,1000,1000,1000,1,num_2,0.6243516000104137,,27,12,2026-03-05_14h04.56.156,2026A_exp2,2022.2.4,59.945317890335566,
1000,1,0.0,0.0,0,0,60,60,17,,,,,194.23008800001116,194.88061880000168,194.88061880000168,195.38170269998955,315,45,195.38170269998955,195.38170269998955,195.38170269998955,195.38170269998955,195.38170269998955,195.38170269998955,195.38170269998955,195.38170269998955,195.38170269998955,195.74805470003048,195.74805470003048,195.74805470003048,195.74805470003048,195.74805470003048,195.74805470003048,195.74805470003048,195.74805470003048,195.74805470003048,23,0,,,195.74805470003048,195.9503062000149,1000,195.9503062000149,1000,1000,1000,1000,1,num_2,0.42231599998194724,,27,12,2026-03-05_14h04.56.156,2026A_exp2,2022.2.4,59.945317890335566,
1000,1,0.0,4.9,0,0,61,61,61,,,,,196.3986830000067,197.04955560003873,197.04955560003873,197.55052270001033,315,315,197.55052270001033,197.55052270001033,197.55052270001033,197.55052270001033,197.55052270001033,197.55052270001033,197.55052270001033,197.55052270001033,197.55052270001033,197.9170997000183,197.9170997000183,197.9170997000183,197.9170997000183,197.9170997000183,197.9170997000183,197.9170997000183,197.9170997000183,197.9170997000183,23,0,,,197.9170997000183,198.11867170000914,1000,198.11867170000914,1000,1000,1000,1000,1,num_2,0.41372020001290366,,27,12,2026-03-05_14h04.56.156,2026A_exp2,2022.2.4,59.945317890335566,
1000,1,4.9,3.7,0,0,62,62,40,,,,,198.5509127000114,199.2016014000401,199.2016014000401,199.70283970003948,315,315,199.70283970003948,199.70283970003948,199.70283970003948,199.70283970003948,199.70283970003948,199.70283970003948,199.70283970003948,199.70283970003948,199.70283970003948,200.06930959998863,200.06930959998863,200.06930959998863,200.06930959998863,200.06930959998863,200.06930959998863,200.06930959998863,200.06930959998863,200.06930959998863,0,1,[0.0006986000225879252],[0.367489900032524],200.06930959998863,200.27134090004256,1000,200.27134090004256,1000,1000,1000,1000,0,num_3,0.4382534999749623,,27,12,2026-03-05_14h04.56.156,2026A_exp2,2022.2.4,59.945317890335566,
1,0,0.0,6.1,1,0,63,63,31,,,,,200.73645690002013,201.3871017000056,201.3871017000056,201.88821360003203,315,315,201.88821360003203,201.88821360003203,201.88821360003203,201.88821360003203,201.88821360003203,201.88821360003203,201.88821360003203,201.88821360003203,201.88821360003203,202.25474280002527,202.25474280002527,202.25474280002527,202.25474280002527,202.25474280002527,202.25474280002527,202.25474280002527,202.25474280002527,202.25474280002527,5,4,"[0.0012217999901622534, 0.033424399967771024, 0.08354339998913929, 0.21711409999988973]","[0.01725899998564273, 0.050156000012066215, 0.20028029999230057, 0.36706839996622875]",202.25474280002527,202.45491820003372,6.1,202.45491820003372,1,6.1,1,1,1000,num_4,0.469324300007429,,27,12,2026-03-05_14h04.56.156,2026A_exp2,2022.2.4,59.945317890335566,
1,0,3.7,4.9,1,0,64,64,20,,,,,202.95533289999003,203.60595070000272,203.60595070000272,204.09040230000392,45,315,204.09040230000392,204.09040230000392,204.09040230000392,204.09040230000392,204.09040230000392,204.09040230000392,204.09040230000392,204.09040230000392,204.09040230000392,204.45685419999063,204.45685419999063,204.45685419999063,204.45685419999063,204.45685419999063,204.45685419999063,204.45685419999063,204.45685419999063,204.45685419999063,23,0,,,204.45685419999063,204.6570284999907,4.9,204.6570284999907,1,4.9,1,1,1000,num_4,0.5239456999697722,,27,12,2026-03-05_14h04.56.156,2026A_exp2,2022.2.4,59.945317890335566,
0,0,6.1,4.9,0,0,65,65,22,,,,,205.20764760003658,205.84166400000686,205.84166400000686,206.34281170001486,45,315,206.34281170001486,206.34281170001486,206.34281170001486,206.34281170001486,206.34281170001486,206.34281170001486,206.34281170001486,206.34281170001486,206.34281170001486,206.7091893000179,206.7091893000179,206.7091893000179,206.7091893000179,206.7091893000179,206.7091893000179,206.7091893000179,206.7091893000179,206.7091893000179,23,0,,,206.7091893000179,206.90945490001468,4.9,206.90945490001468,0,4.9,1,0,1000,num_1,0.6631766999489628,,27,12,2026-03-05_14h04.56.156,2026A_exp2,2022.2.4,59.945317890335566,
1,0,6.1,0.0,0,0,66,66,21,,,,,207.5933782000211,208.24409140000353,208.24409140000353,208.72836260002805,315,45,208.72836260002805,208.72836260002805,208.72836260002805,208.72836260002805,208.72836260002805,208.72836260002805,208.72836260002805,208.72836260002805,208.72836260002805,209.09474030003184,209.09474030003184,209.09474030003184,209.09474030003184,209.09474030003184,209.09474030003184,209.09474030003184,209.09474030003184,209.09474030003184,23,0,,,209.09474030003184,209.295004900021,6.1,209.295004900021,1,6.1,1,1,1000,num_4,0.6538607000256889,,27,12,2026-03-05_14h04.56.156,2026A_exp2,2022.2.4,59.945317890335566,
1,0,6.1,3.7,1,0,67,67,51,,,,,209.97930910001742,210.62984460004373,210.62984460004373,211.11407100001816,45,45,211.11407100001816,211.11407100001816,211.11407100001816,211.11407100001816,211.11407100001816,211.11407100001816,211.11407100001816,211.11407100001816,211.11407100001816,211.48061120003695,211.48061120003695,211.48061120003695,211.48061120003695,211.48061120003695,211.48061120003695,211.48061120003695,211.48061120003695,211.48061120003695,23,0,,,211.48061120003695,211.6807467000326,3.7,211.6807467000326,0,3.7,1,0,1000,num_1,0.5645887000137009,,27,12,2026-03-05_14h04.56.156,2026A_exp2,2022.2.4,59.945317890335566,
1,0,6.1,4.9,1,0,68,68,64,,,,,212.26455910003278,212.9154014000087,212.9154014000087,213.39967720001005,45,45,213.39967720001005,213.39967720001005,213.39967720001005,213.39967720001005,213.39967720001005,213.39967720001005,213.39967720001005,213.39967720001005,213.39967720001005,213.766279100033,213.766279100033,213.766279100033,213.766279100033,213.766279100033,213.766279100033,213.766279100033,213.766279100033,213.766279100033,23,0,,,213.766279100033,213.96645180002088,4.9,213.96645180002088,0,4.9,1,0,1000,num_1,0.4630627000005916,,27,12,2026-03-05_14h04.56.156,2026A_exp2,2022.2.4,59.945317890335566,
1,0,3.7,0.0,1,0,69,69,12,,,,,214.45021550002275,215.10089609998977,215.10089609998977,215.5852395000402,45,45,215.5852395000402,215.5852395000402,215.5852395000402,215.5852395000402,215.5852395000402,215.5852395000402,215.5852395000402,215.5852395000402,215.5852395000402,215.95139890001155,215.95139890001155,215.95139890001155,215.95139890001155,215.95139890001155,215.95139890001155,215.95139890001155,215.95139890001155,215.95139890001155,0,1,[0.0012046999763697386],[0.3671265000011772],215.95139890001155,216.15190410002833,0.0,216.15190410002833,0,0.0,0,1,1000,num_1,0.5012724000262097,,27,12,2026-03-05_14h04.56.156,2026A_exp2,2022.2.4,59.945317890335566,
1,0,3.7,0.0,0,0,70,70,87,,,,,216.6690072999918,217.31961890001548,217.31961890001548,217.80423850001534,45,45,217.80423850001534,217.80423850001534,217.80423850001534,217.80423850001534,217.80423850001534,217.80423850001534,217.80423850001534,217.80423850001534,217.80423850001534,218.17070130002685,218.17070130002685,218.17070130002685,218.17070130002685,218.17070130002685,218.17070130002685,218.17070130002685,218.17070130002685,218.17070130002685,23,0,,,218.17070130002685,218.37088609999046,3.7,218.37088609999046,1,3.7,1,1,1000,num_4,0.5384825000073761,,27,12,2026-03-05_14h04.56.156,2026A_exp2,2022.2.4,59.945317890335566,
1000,1,4.9,0.0,1,0,71,71,77,,,,,218.93815500003984,219.5887136000092,219.5887136000092,220.07311900000786,315,45,220.07311900000786,220.07311900000786,220.07311900000786,220.07311900000786,220.07311900000786,220.07311900000786,220.07311900000786,220.07311900000786,220.07311900000786,220.43958720000228,220.43958720000228,220.43958720000228,220.43958720000228,220.43958720000228,220.43958720000228,220.43958720000228,220.43958720000228,220.43958720000228,17,3,"[0.1498394999653101, 0.3169412999995984, 0.36724799999501556]","[0.21686569997109473, 0.33371599996462464, 0.3672524999710731]",220.43958720000228,220.64141380001092,1000,220.64141380001092,1000,1000,1000,1000,0,num_3,0.5800266999867745,,27,12,2026-03-05_14h04.56.156,2026A_exp2,2022.2.4,59.945317890335566,
1000,1,6.1,0.0,1,0,72,72,57,,,,,221.2406302000163,221.89106520003406,221.89106520003406,222.37549070001114,315,45,222.37549070001114,222.37549070001114,222.37549070001114,222.37549070001114,222.37549070001114,222.37549070001114,222.37549070001114,222.37549070001114,222.37549070001114,222.74188829999184,222.74188829999184,222.74188829999184,222.74188829999184,222.74188829999184,222.74188829999184,222.74188829999184,222.74188829999184,222.74188829999184,23,0,,,222.74188829999184,222.94384480000008,1000,222.94384480000008,1000,1000,1000,1000,0,num_3,0.4043455999926664,,27,12,2026-03-05_14h04.56.156,2026A_exp2,2022.2.4,59.945317890335566,
0,0,6.1,0.0,0,0,73,73,74,,,,,223.3756999000325,224.0265699000447,224.0265699000447,224.5275999000296,45,315,224.5275999000296,224.5275999000296,224.5275999000296,224.5275999000296,224.5275999000296,224.5275999000296,224.5275999000296,224.5275999000296,224.5275999000296,224.89389260002645,224.89389260002645,224.89389260002645,224.89389260002645,224.89389260002645,224.89389260002645,224.89389260002645,224.89389260002645,224.89389260002645,4,3,"[0.0012778000091202557, 0.11688049999065697, 0.2671657999744639]","[0.10033589997328818, 0.23363769997376949, 0.36712839995743707]",224.89389260002645,225.0941152999876,0.0,225.0941152999876,0,0.0,0,1,1000,num_1,0.5114396999706514,,27,12,2026-03-05_14h04.56.156,2026A_exp2,2022.2.4,59.945317890335566,
1,0,0.0,6.1,0,0,74,74,0,,,,,225.62795840000035,226.27873950003413,226.27873950003413,226.7632108000107,45,315,226.7632108000107,226.7632108000107,226.7632108000107,226.7632108000107,226.7632108000107,226.7632108000107,226.7632108000107,226.7632108000107,226.7632108000107,227.12959000002593,227.12959000002593,227.12959000002593,227.12959000002593,227.12959000002593,227.12959000002593,227.12959000002593,227.12959000002593,227.12959000002593,23,0,,,227.12959000002593,227.32985450001433,0.0,227.32985450001433,0,0.0,0,1,1000,num_1,0.8758012000471354,,27,12,2026-03-05_14h04.56.156,2026A_exp2,2022.2.4,59.945317890335566,
1000,1,4.9,4.9,1,0,75,75,68,,,,,228.23051910003414,228.88133370003197,228.88133370003197,229.36577959998976,45,45,229.36577959998976,229.36577959998976,229.36577959998976,229.36577959998976,229.36577959998976,229.36577959998976,229.36577959998976,229.36577959998976,229.36577959998976,229.73226720001549,229.73226720001549,229.73226720001549,229.73226720001549,229.73226720001549,229.73226720001549,229.73226720001549,229.73226720001549,229.73226720001549,23,0,,,229.73226720001549,229.93420160003006,1000,229.93420160003006,1000,1000,1000,1000,0,num_3,0.6395018000039272,,27,12,2026-03-05_14h04.56.156,2026A_exp2,2022.2.4,59.945317890335566,
1,0,0.0,0.0,0,0,76,76,79,,,,,230.59961730003124,231.25018030003412,231.25018030003412,231.75148209999315,315,45,231.75148209999315,231.75148209999315,231.75148209999315,231.75148209999315,231.75148209999315,231.75148209999315,231.75148209999315,231.75148209999315,231.75148209999315,232.10105350002414,232.10105350002414,232.10105350002414,232.10105350002414,232.10105350002414,232.10105350002414,232.10105350002414,232.10105350002414,232.10105350002414,22,0,,,232.10105350002414,232.30135750002228,0.0,232.30135750002228,1,0.0,0,0,1000,num_4,0.7997972000157461,,27,12,2026-03-05_14h04.56.156,2026A_exp2,2022.2.4,59.945317890335566,
1,0,6.1,6.1,1,0,77,77,23,,,,,233.1191589999944,233.76954330003355,233.76954330003355,234.25394710002,315,315,234.25394710002,234.25394710002,234.25394710002,234.25394710002,234.25394710002,234.25394710002,234.25394710002,234.25394710002,234.25394710002,234.62033480004175,234.62033480004175,234.62033480004175,234.62033480004175,234.62033480004175,234.62033480004175,234.62033480004175,234.62033480004175,234.62033480004175,0,1,[0.000728099956177175],[0.36767859995597973],234.62033480004175,234.82053850003285,6.1,234.82053850003285,0,6.1,1,0,1000,num_1,0.607879800023511,,27,12,2026-03-05_14h04.56.156,2026A_exp2,2022.2.4,59.945317890335566,
1000,1,0.0,4.9,0,0,78,78,60,,,,,235.4544882000191,236.1052151999902,236.1052151999902,236.58968460001051,315,45,236.58968460001051,236.58968460001051,236.58968460001051,236.58968460001051,236.58968460001051,236.58968460001051,236.58968460001051,236.58968460001051,236.58968460001051,236.95612300001085,236.95612300001085,236.95612300001085,236.95612300001085,236.95612300001085,236.95612300001085,236.95612300001085,236.95612300001085,236.95612300001085,23,0,,,236.95612300001085,237.15798489999725,1000,237.15798489999725,1000,1000,1000,1000,1,num_2,0.48761800001375377,,27,12,2026-03-05_14h04.56.156,2026A_exp2,2022.2.4,59.945317890335566,
1000,1,3.7,0.0,1,0,79,79,38,,,,,237.67337179998867,238.32383569999365,238.32383569999365,238.8252319000312,315,45,238.8252319000312,238.8252319000312,238.8252319000312,238.8252319000312,238.8252319000312,238.8252319000312,238.8252319000312,238.8252319000312,238.8252319000312,239.19168009998975,239.19168009998975,239.19168009998975,239.19168009998975,239.19168009998975,239.19168009998975,239.19168009998975,239.19168009998975,239.19168009998975,22,1,[0.050202100013848394],[0.06698860001051798],239.19168009998975,239.3936728000408,1000,239.3936728000408,1000,1000,1000,1000,0,num_3,0.45068170002195984,,27,12,2026-03-05_14h04.56.156,2026A_exp2,2022.2.4,59.945317890335566,
1000,1,0.0,0.0,0,0,80,80,7,,,,,239.87576750002336,240.5263558999868,240.5263558999868,241.0274835000164,315,45,241.0274835000164,241.0274835000164,241.0274835000164,241.0274835000164,241.0274835000164,241.0274835000164,241.0274835000164,241.0274835000164,241.0274835000164,241.37708290002774,241.37708290002774,241.37708290002774,241.37708290002774,241.37708290002774,241.37708290002774,241.37708290002774,241.37708290002774,241.37708290002774,11,3,"[0.0012629000120796263, 0.050153099989984185, 0.2831432999810204]","[0.017461500014178455, 0.1835902000311762, 0.316722400020808]",241.37708290002774,241.57874180004,1000,241.59410119999666,1000,1000,1000,1000,0,num_3,0.5141739000100642,,27,12,2026-03-05_14h04.56.156,2026A_exp2,2022.2.4,59.945317890335566,
1,0,4.9,0.0,0,0,81,81,53,,,,,242.12801710003987,242.77861080004368,242.77861080004368,243.2796365999966,45,315,243.2796365999966,243.2796365999966,243.2796365999966,243.2796365999966,243.2796365999966,243.2796365999966,243.2796365999966,243.2796365999966,243.2796365999966,243.64609410002595,243.64609410002595,243.64609410002595,243.64609410002595,243.64609410002595,243.64609410002595,243.64609410002595,243.64609410002595,243.64609410002595,0,1,[0.0012500000302679837],[0.3672085999860428],243.64609410002595,243.84653849998722,4.9,243.84653849998722,1,4.9,1,1,1000,num_4,1.118397800019011,,27,12,2026-03-05_14h04.56.156,2026A_exp2,2022.2.4,59.945317890335566,
1,0,6.1,0.0,1,0,82,82,70,,,,,244.98108990001492,245.631317100022,245.631317100022,246.1159886000096,45,45,246.1159886000096,246.1159886000096,246.1159886000096,246.1159886000096,246.1159886000096,246.1159886000096,246.1159886000096,246.1159886000096,246.1159886000096,246.48190320003778,246.48190320003778,246.48190320003778,246.48190320003778,246.48190320003778,246.48190320003778,246.48190320003778,246.48190320003778,246.48190320003778,0,1,[0.001196000026538968],[0.3673370000324212],246.48190320003778,246.68258319998858,0.0,246.68258319998858,0,0.0,0,1,1000,num_1,0.5702841999591328,,27,12,2026-03-05_14h04.56.156,2026A_exp2,2022.2.4,59.945317890335566,
1,0,0.0,0.0,1,0,83,83,39,,,,,247.2830903000431,247.93377679999685,247.93377679999685,248.41809849999845,45,45,248.41809849999845,248.41809849999845,248.41809849999845,248.41809849999845,248.41809849999845,248.41809849999845,248.41809849999845,248.41809849999845,248.41809849999845,248.78456580004422,248.78456580004422,248.78456580004422,248.78456580004422,248.78456580004422,248.78456580004422,248.78456580004422,248.78456580004422,248.78456580004422,2,1,[0.03324869996868074],[0.3667217000038363],248.78456580004422,248.98470680002356,0.0,248.98470680002356,0,0.0,0,1,1000,num_1,0.5963999000377953,,27,12,2026-03-05_14h04.56.156,2026A_exp2,2022.2.4,59.945317890335566,
1,0,0.0,3.7,1,0,84,84,32,,,,,249.60190050001256,250.2527231000131,250.2527231000131,250.73718210001243,45,45,250.73718210001243,250.73718210001243,250.73718210001243,250.73718210001243,250.73718210001243,250.73718210001243,250.73718210001243,250.73718210001243,250.73718210001243,251.10349810001208,251.10349810001208,251.10349810001208,251.10349810001208,251.10349810001208,251.10349810001208,251.10349810001208,251.10349810001208,251.10349810001208,23,0,,,251.10349810001208,251.3036468999926,3.7,251.3036468999926,1,3.7,1,1,1000,num_4,0.6620019999681972,,27,12,2026-03-05_14h04.56.156,2026A_exp2,2022.2.4,59.945317890335566,
1000,1,6.1,0.0,1,0,85,85,25,,,,,251.98795169999357,252.63846520002699,252.63846520002699,253.12276240001665,45,45,253.12276240001665,253.12276240001665,253.12276240001665,253.12276240001665,253.12276240001665,253.12276240001665,253.12276240001665,253.12276240001665,253.12276240001665,253.48928159999195,253.48928159999195,253.48928159999195,253.48928159999195,253.48928159999195,253.48928159999195,253.48928159999195,253.48928159999195,253.48928159999195,23,0,,,253.48928159999195,253.69114710000576,1000,253.69114710000576,1000,1000,1000,1000,0,num_3,0.4169844000134617,,27,12,2026-03-05_14h04.56.156,2026A_exp2,2022.2.4,59.945317890335566,
1,0,0.0,0.0,0,0,86,86,88,,,,,254.12315050000325,254.77384660003008,254.77384660003008,255.27496619999874,45,315,255.27496619999874,255.27496619999874,255.27496619999874,255.27496619999874,255.27496619999874,255.27496619999874,255.27496619999874,255.27496619999874,255.27496619999874,255.64147090003826,255.64147090003826,255.64147090003826,255.64147090003826,255.64147090003826,255.64147090003826,255.64147090003826,255.64147090003826,255.64147090003826,23,0,,,255.64147090003826,255.84171549999155,0.0,255.84171549999155,0,0.0,0,1,1000,num_1,0.9797126000048593,,27,12,2026-03-05_14h04.56.156,2026A_exp2,2022.2.4,59.945317890335566,
1000,1,4.9,0.0,0,0,87,87,41,,,,,256.8424653999973,257.4932987000211,257.4932987000211,257.97772510000505,315,315,257.97772510000505,257.97772510000505,257.97772510000505,257.97772510000505,257.97772510000505,257.97772510000505,257.97772510000505,257.97772510000505,257.97772510000505,258.34416700003203,258.34416700003203,258.34416700003203,258.34416700003203,258.34416700003203,258.34416700003203,258.34416700003203,258.34416700003203,258.34416700003203,23,0,,,258.34416700003203,258.54613730002893,1000,258.54613730002893,1000,1000,1000,1000,0,num_3,0.41135720000602305,,27,12,2026-03-05_14h04.56.156,2026A_exp2,2022.2.4,59.945317890335566,
1000,1,0.0,0.0,0,0,88,88,86,,,,,258.9780776000116,259.6287546000094,259.6287546000094,260.1299205000396,45,315,260.1299205000396,260.1299205000396,260.1299205000396,260.1299205000396,260.1299205000396,260.1299205000396,260.1299205000396,260.1299205000396,260.1299205000396,260.49624569999287,260.49624569999287,260.49624569999287,260.49624569999287,260.49624569999287,260.49624569999287,260.49624569999287,260.49624569999287,260.49624569999287,5,6,"[0.0012316000065766275, 0.03363789996365085, 0.06693739996990189, 0.1496649999753572, 0.3171462999889627, 0.3670768999727443]","[0.017447599966544658, 0.050298399990424514, 0.13364569999976084, 0.30044809996616095, 0.3504436999792233, 0.3670816000085324]",260.49624569999287,260.6976532000117,1000,260.6976532000117,1000,1000,1000,1000,0,num_3,0.4425397000159137,,27,12,2026-03-05_14h04.56.156,2026A_exp2,2022.2.4,59.945317890335566,
1000,1,0.0,4.9,0,0,89,89,6,,,,,261.16347690002294,261.81429290003143,261.81429290003143,262.3154593000072,315,45,262.3154593000072,262.3154593000072,262.3154593000072,262.3154593000072,262.3154593000072,262.3154593000072,262.3154593000072,262.3154593000072,262.3154593000072,262.68181229999755,262.68181229999755,262.68181229999755,262.68181229999755,262.68181229999755,262.68181229999755,262.68181229999755,262.68181229999755,262.68181229999755,23,0,,,262.68181229999755,262.8845824000309,1000,262.8845824000309,1000,1000,1000,1000,1,num_2,0.4331109000486322,,27,12,2026-03-05_14h04.56.156,2026A_exp2,2022.2.4,59.945317890335566,
,,,,,,,,,,,,,,,,,,,,,,,,,,,,,,,,,,,,,,,,,,,,,,,,,,,,263.3518712000223,,,,,,,
