validity,detectorcomp,contrastCW,contrastCCW,precueCWorCCW,block_80trials.thisRepN,block_80trials.thisTrialN,block_80trials.thisN,block_80trials.thisIndex,etRecord.started,etRecord.stopped,text.started,text.stopped,text_4.started,text_4.stopped,text_6.started,text_6.stopped,oriCW,oriCCW,roi_2.started,grating_UR.started,grating_UL.started,grating_LR.started,grating_LL.started,noise_UR.started,noise_UL.started,noise_LR.started,noise_LL.started,roi_2.stopped,grating_UR.stopped,grating_UL.stopped,grating_LR.stopped,grating_LL.stopped,noise_UR.stopped,noise_UL.stopped,noise_LR.stopped,noise_LL.stopped,outframe,roi_2.numLooks,roi_2.timesOn,roi_2.timesOff,text_2.started,text_2.stopped,probedcontrast,key_resp.started,respdetect,relevantContrast,correctDetect,TorFdetect,respCWorCCW,key_resp.keys,key_resp.rt,feedback_display_.started,participantNo,blockNo,date,expName,psychopyVersion,frameRate,
1000,1,3.7,4.9,1,0,0,0,43,5.3999945521354675e-05,5.3999945521354675e-05,53.87049160012975,55.87568080006167,55.87568080006167,56.50735830003396,56.50735830003396,57.026869900058955,315,315,57.026869900058955,57.026869900058955,57.026869900058955,57.026869900058955,57.026869900058955,57.026869900058955,57.026869900058955,57.026869900058955,57.026869900058955,57.374472700059414,57.374472700059414,57.374472700059414,57.374472700059414,57.374472700059414,57.374472700059414,57.374472700059414,57.374472700059414,57.374472700059414,6,5,"[0.035486199893057346, 0.14993459987454116, 0.26680330000817776, 0.31683769985102117, 0.3502297999802977]","[0.11650469992309809, 0.23346120002679527, 0.3001166998874396, 0.33359549986198545, 0.3668160999659449]",57.374472700059414,57.58172030001879,1000,57.58172030001879,1000,1000,1000,1000,1,num_2,0.582508800085634,,35,10,2026-03-13_14h12.55.751,2026A_exp2,2022.2.4,59.93137862106978,
0,0,0.0,6.1,0,0,1,1,7,,,,,58.192064200062305,58.84258530009538,58.84258530009538,59.343686500098556,45,315,59.343686500098556,59.343686500098556,59.343686500098556,59.343686500098556,59.343686500098556,59.343686500098556,59.343686500098556,59.343686500098556,59.343686500098556,59.71042660018429,59.71042660018429,59.71042660018429,59.71042660018429,59.71042660018429,59.71042660018429,59.71042660018429,59.71042660018429,59.71042660018429,7,2,"[0.0012503000907599926, 0.3506520001683384]","[0.23387810005806386, 0.36721330019645393]",59.71042660018429,59.910426900023594,6.1,59.910426900023594,1,6.1,1,1,1000,num_4,0.6457460997626185,,35,10,2026-03-13_14h12.55.751,2026A_exp2,2022.2.4,59.93137862106978,
1000,1,4.9,0.0,1,0,2,2,5,,,,,60.57783490000293,61.211838400224224,61.211838400224224,61.71269070007838,315,315,61.71269070007838,61.71269070007838,61.71269070007838,61.71269070007838,61.71269070007838,61.71269070007838,61.71269070007838,61.71269070007838,61.71269070007838,62.07912420015782,62.07912420015782,62.07912420015782,62.07912420015782,62.07912420015782,62.07912420015782,62.07912420015782,62.07912420015782,62.07912420015782,17,2,"[0.0335510999429971, 0.06698119989596307]","[0.05046009994111955, 0.15044049988500774]",62.07912420015782,62.281056800158694,1000,62.281056800158694,1000,1000,1000,1000,0,num_3,0.5316687000449747,,35,10,2026-03-13_14h12.55.751,2026A_exp2,2022.2.4,59.93137862106978,
1000,1,6.1,0.0,1,0,3,3,75,,,,,62.83005170011893,63.48042770009488,63.48042770009488,63.98171240021475,45,315,63.98171240021475,63.98171240021475,63.98171240021475,63.98171240021475,63.98171240021475,63.98171240021475,63.98171240021475,63.98171240021475,63.98171240021475,64.34797850018367,64.34797850018367,64.34797850018367,64.34797850018367,64.34797850018367,64.34797850018367,64.34797850018367,64.34797850018367,64.34797850018367,16,5,"[0.08365499996580184, 0.1336864000186324, 0.21710280003026128, 0.28376300004310906, 0.3337292999494821]","[0.10019390005618334, 0.1503440998494625, 0.26726590003818274, 0.31704559992067516, 0.35052899993024766]",64.34797850018367,64.54984020022675,1000,64.54984020022675,1000,1000,1000,1000,0,num_3,0.4388576000928879,,35,10,2026-03-13_14h12.55.751,2026A_exp2,2022.2.4,59.93137862106978,
1,0,3.7,0.0,0,0,4,4,3,,,,,65.01554400008172,65.6661507000681,65.6661507000681,66.16725660022348,315,315,66.16725660022348,66.16725660022348,66.16725660022348,66.16725660022348,66.16725660022348,66.16725660022348,66.16725660022348,66.16725660022348,66.16725660022348,66.53368970006704,66.53368970006704,66.53368970006704,66.53368970006704,66.53368970006704,66.53368970006704,66.53368970006704,66.53368970006704,66.53368970006704,22,1,[0.11694810003973544],[0.13349799998104572],66.53368970006704,66.73370410013013,3.7,66.73370410013013,0,3.7,1,0,1000,num_1,0.5345632000826299,,35,10,2026-03-13_14h12.55.751,2026A_exp2,2022.2.4,59.93137862106978,
1000,1,0.0,0.0,0,0,5,5,83,,,,,67.2842968001496,67.93470050022006,67.93470050022006,68.41952890018001,315,315,68.41952890018001,68.41952890018001,68.41952890018001,68.41952890018001,68.41952890018001,68.41952890018001,68.41952890018001,68.41952890018001,68.41952890018001,68.78580700000748,68.78580700000748,68.78580700000748,68.78580700000748,68.78580700000748,68.78580700000748,68.78580700000748,68.78580700000748,68.78580700000748,23,0,,,68.78580700000748,68.98773900000378,1000,68.98773900000378,1000,1000,1000,1000,0,num_3,0.577468799892813,,35,10,2026-03-13_14h12.55.751,2026A_exp2,2022.2.4,59.93137862106978,
1,0,0.0,6.1,1,0,6,6,52,,,,,69.58659150009044,70.23754090000875,70.23754090000875,70.73839800013229,315,45,70.73839800013229,70.73839800013229,70.73839800013229,70.73839800013229,70.73839800013229,70.73839800013229,70.73839800013229,70.73839800013229,70.73839800013229,71.10492620011792,71.10492620011792,71.10492620011792,71.10492620011792,71.10492620011792,71.10492620011792,71.10492620011792,71.10492620011792,71.10492620011792,23,0,,,71.10492620011792,71.30519920005463,6.1,71.30519920005463,1,6.1,1,1,1000,num_4,0.5395225000102073,,35,10,2026-03-13_14h12.55.751,2026A_exp2,2022.2.4,59.93137862106978,
1000,1,6.1,0.0,1,0,7,7,69,,,,,71.87215610011481,72.52298860019073,72.52298860019073,73.00740700005554,45,45,73.00740700005554,73.00740700005554,73.00740700005554,73.00740700005554,73.00740700005554,73.00740700005554,73.00740700005554,73.00740700005554,73.00740700005554,73.37387700006366,73.37387700006366,73.37387700006366,73.37387700006366,73.37387700006366,73.37387700006366,73.37387700006366,73.37387700006366,73.37387700006366,23,0,,,73.37387700006366,73.57528850017115,1000,73.57528850017115,1000,1000,1000,1000,0,num_3,0.42968139983713627,,35,10,2026-03-13_14h12.55.751,2026A_exp2,2022.2.4,59.93137862106978,
1000,1,3.7,0.0,0,0,8,8,57,,,,,74.02434480004013,74.67522850004025,74.67522850004025,75.17628880008124,315,315,75.17628880008124,75.17628880008124,75.17628880008124,75.17628880008124,75.17628880008124,75.17628880008124,75.17628880008124,75.17628880008124,75.17628880008124,75.54287810018286,75.54287810018286,75.54287810018286,75.54287810018286,75.54287810018286,75.54287810018286,75.54287810018286,75.54287810018286,75.54287810018286,23,0,,,75.54287810018286,75.744820300024,1000,75.744820300024,1000,1000,1000,1000,0,num_3,0.33989869989454746,,35,10,2026-03-13_14h12.55.751,2026A_exp2,2022.2.4,59.93137862106978,
1,0,3.7,0.0,0,0,9,9,65,,,,,76.1098172001075,76.76058230013587,76.76058230013587,77.26168520003557,315,315,77.26168520003557,77.26168520003557,77.26168520003557,77.26168520003557,77.26168520003557,77.26168520003557,77.26168520003557,77.26168520003557,77.26168520003557,77.62803840008564,77.62803840008564,77.62803840008564,77.62803840008564,77.62803840008564,77.62803840008564,77.62803840008564,77.62803840008564,77.62803840008564,19,2,"[0.23369470005854964, 0.283907099859789]","[0.25043919985182583, 0.3170745999086648]",77.62803840008564,77.82823840016499,3.7,77.82823840016499,0,3.7,1,0,1000,num_1,0.7117987996898592,,35,10,2026-03-13_14h12.55.751,2026A_exp2,2022.2.4,59.93137862106978,
1,0,3.7,0.0,1,0,10,10,50,,,,,78.56246870011091,79.19624030007981,79.19624030007981,79.69733420014381,315,45,79.69733420014381,79.69733420014381,79.69733420014381,79.69733420014381,79.69733420014381,79.69733420014381,79.69733420014381,79.69733420014381,79.69733420014381,80.063800400123,80.063800400123,80.063800400123,80.063800400123,80.063800400123,80.063800400123,80.063800400123,80.063800400123,80.063800400123,23,0,,,80.063800400123,80.2641125000082,0.0,80.2641125000082,1,0.0,0,0,1000,num_4,0.532262499909848,,35,10,2026-03-13_14h12.55.751,2026A_exp2,2022.2.4,59.93137862106978,
1000,1,0.0,0.0,1,0,11,11,67,,,,,80.81718330015428,81.46610520011745,81.46610520011745,81.96626280015334,45,315,81.96626280015334,81.96626280015334,81.96626280015334,81.96626280015334,81.96626280015334,81.96626280015334,81.96626280015334,81.96626280015334,81.96626280015334,82.3328238001559,82.3328238001559,82.3328238001559,82.3328238001559,82.3328238001559,82.3328238001559,82.3328238001559,82.3328238001559,82.3328238001559,23,0,,,82.3328238001559,82.53491750010289,1000,82.53491750010289,1000,1000,1000,1000,1,num_2,0.7817012998275459,,35,10,2026-03-13_14h12.55.751,2026A_exp2,2022.2.4,59.93137862106978,
1000,1,0.0,4.9,1,0,12,12,76,,,,,83.33407470001839,83.98435430019163,83.98435430019163,84.48542820010334,315,45,84.48542820010334,84.48542820010334,84.48542820010334,84.48542820010334,84.48542820010334,84.48542820010334,84.48542820010334,84.48542820010334,84.48542820010334,84.85197410010733,84.85197410010733,84.85197410010733,84.85197410010733,84.85197410010733,84.85197410010733,84.85197410010733,84.85197410010733,84.85197410010733,23,0,,,84.85197410010733,85.05407380010001,1000,85.05407380010001,1000,1000,1000,1000,0,num_3,0.5263772998005152,,35,10,2026-03-13_14h12.55.751,2026A_exp2,2022.2.4,59.93137862106978,
1000,1,0.0,0.0,1,0,13,13,23,,,,,85.60315350000747,86.23662990005687,86.23662990005687,86.73912030016072,45,315,86.73912030016072,86.73912030016072,86.73912030016072,86.73912030016072,86.73912030016072,86.73912030016072,86.73912030016072,86.73912030016072,86.73912030016072,87.10423370008357,87.10423370008357,87.10423370008357,87.10423370008357,87.10423370008357,87.10423370008357,87.10423370008357,87.10423370008357,87.10423370008357,9,4,"[0.03456149995326996, 0.11650389991700649, 0.14993269997648895, 0.26700280001387]","[0.049412399996072054, 0.1332308000419289, 0.25040600006468594, 0.3668120000511408]",87.10423370008357,87.30608780006878,1000,87.30608780006878,1000,1000,1000,1000,0,num_3,0.5543001997284591,,35,10,2026-03-13_14h12.55.751,2026A_exp2,2022.2.4,59.93137862106978,
1000,1,6.1,0.0,0,0,14,14,82,,,,,87.8882960001938,88.5390742002055,88.5390742002055,89.04016670002602,315,315,89.04016670002602,89.04016670002602,89.04016670002602,89.04016670002602,89.04016670002602,89.04016670002602,89.04016670002602,89.04016670002602,89.04016670002602,89.40651610004716,89.40651610004716,89.40651610004716,89.40651610004716,89.40651610004716,89.40651610004716,89.40651610004716,89.40651610004716,89.40651610004716,23,0,,,89.40651610004716,89.60884780017659,1000,89.60884780017659,1000,1000,1000,1000,0,num_3,0.45206909999251366,,35,10,2026-03-13_14h12.55.751,2026A_exp2,2022.2.4,59.93137862106978,
1000,1,0.0,3.7,0,0,15,15,51,,,,,90.09033980011009,90.7415984000545,90.7415984000545,91.24225200014189,315,45,91.24225200014189,91.24225200014189,91.24225200014189,91.24225200014189,91.24225200014189,91.24225200014189,91.24225200014189,91.24225200014189,91.24225200014189,91.60882180021144,91.60882180021144,91.60882180021144,91.60882180021144,91.60882180021144,91.60882180021144,91.60882180021144,91.60882180021144,91.60882180021144,23,0,,,91.60882180021144,91.81129650003277,1000,91.81129650003277,1000,1000,1000,1000,1,num_2,0.7938743999693543,,35,10,2026-03-13_14h12.55.751,2026A_exp2,2022.2.4,59.93137862106978,
1000,1,6.1,0.0,1,0,16,16,30,,,,,92.62666090019047,93.27701410022564,93.27701410022564,93.77820060006343,45,45,93.77820060006343,93.77820060006343,93.77820060006343,93.77820060006343,93.77820060006343,93.77820060006343,93.77820060006343,93.77820060006343,93.77820060006343,94.1445367000997,94.1445367000997,94.1445367000997,94.1445367000997,94.1445367000997,94.1445367000997,94.1445367000997,94.1445367000997,94.1445367000997,23,0,,,94.1445367000997,94.34679960017093,1000,94.34679960017093,1000,1000,1000,1000,0,num_3,0.37013459973968565,,35,10,2026-03-13_14h12.55.751,2026A_exp2,2022.2.4,59.93137862106978,
1000,1,3.7,4.9,1,0,17,17,46,,,,,94.74505800008774,95.39593760017306,95.39593760017306,95.8969408001285,45,45,95.8969408001285,95.8969408001285,95.8969408001285,95.8969408001285,95.8969408001285,95.8969408001285,95.8969408001285,95.8969408001285,95.8969408001285,96.26347850007005,96.26347850007005,96.26347850007005,96.26347850007005,96.26347850007005,96.26347850007005,96.26347850007005,96.26347850007005,96.26347850007005,23,0,,,96.26347850007005,96.46472410019487,1000,96.46472410019487,1000,1000,1000,1000,0,num_3,0.44338869978673756,,35,10,2026-03-13_14h12.55.751,2026A_exp2,2022.2.4,59.93137862106978,
1,0,0.0,3.7,0,0,18,18,61,,,,,96.9308893000707,97.58125240006484,97.58125240006484,98.06581460009329,315,45,98.06581460009329,98.06581460009329,98.06581460009329,98.06581460009329,98.06581460009329,98.06581460009329,98.06581460009329,98.06581460009329,98.06581460009329,98.43225110019557,98.43225110019557,98.43225110019557,98.43225110019557,98.43225110019557,98.43225110019557,98.43225110019557,98.43225110019557,98.43225110019557,23,0,,,98.43225110019557,98.63250220008194,0.0,98.63250220008194,0,0.0,0,1,1000,num_1,0.8363034999929368,,35,10,2026-03-13_14h12.55.751,2026A_exp2,2022.2.4,59.93137862106978,
0,0,0.0,0.0,1,0,19,19,89,,,,,99.49977200012654,100.15060070017353,100.15060070017353,100.63491800008342,45,45,100.63491800008342,100.63491800008342,100.63491800008342,100.63491800008342,100.63491800008342,100.63491800008342,100.63491800008342,100.63491800008342,100.63491800008342,101.00133220013231,101.00133220013231,101.00133220013231,101.00133220013231,101.00133220013231,101.00133220013231,101.00133220013231,101.00133220013231,101.00133220013231,23,0,,,101.00133220013231,101.20169060002081,0.0,101.20169060002081,0,0.0,0,1,1000,num_1,0.8273517000488937,,35,10,2026-03-13_14h12.55.751,2026A_exp2,2022.2.4,59.93137862106978,
1,0,0.0,0.0,1,0,20,20,87,,,,,102.05252820020542,102.7030531000346,102.7030531000346,103.18750050012022,45,45,103.18750050012022,103.18750050012022,103.18750050012022,103.18750050012022,103.18750050012022,103.18750050012022,103.18750050012022,103.18750050012022,103.18750050012022,103.55401420011185,103.55401420011185,103.55401420011185,103.55401420011185,103.55401420011185,103.55401420011185,103.55401420011185,103.55401420011185,103.55401420011185,22,1,[0.0668876999989152],[0.08325949986465275],103.55401420011185,103.75423430022784,0.0,103.75423430022784,0,0.0,0,1,1000,num_1,0.7146796998567879,,35,10,2026-03-13_14h12.55.751,2026A_exp2,2022.2.4,59.93137862106978,
1000,1,0.0,0.0,1,0,21,21,27,,,,,104.48811150016263,105.13898290018551,105.13898290018551,105.62316130008548,45,315,105.62316130008548,105.62316130008548,105.62316130008548,105.62316130008548,105.62316130008548,105.62316130008548,105.62316130008548,105.62316130008548,105.62316130008548,105.98978670011275,105.98978670011275,105.98978670011275,105.98978670011275,105.98978670011275,105.98978670011275,105.98978670011275,105.98978670011275,105.98978670011275,23,0,,,105.98978670011275,106.191833200166,1000,106.191833200166,1000,1000,1000,1000,0,num_3,0.48489979980513453,,35,10,2026-03-13_14h12.55.751,2026A_exp2,2022.2.4,59.93137862106978,
1,0,0.0,6.1,1,0,22,22,36,,,,,106.70698700007051,107.35790000017732,107.35790000017732,107.85887150000781,45,315,107.85887150000781,107.85887150000781,107.85887150000781,107.85887150000781,107.85887150000781,107.85887150000781,107.85887150000781,107.85887150000781,107.85887150000781,108.22537310002372,108.22537310002372,108.22537310002372,108.22537310002372,108.22537310002372,108.22537310002372,108.22537310002372,108.22537310002372,108.22537310002372,23,0,,,108.22537310002372,108.4255699000787,6.1,108.4255699000787,1,6.1,1,1,1000,num_4,0.30646039987914264,,35,10,2026-03-13_14h12.55.751,2026A_exp2,2022.2.4,59.93137862106978,
1,0,4.9,0.0,1,0,23,23,38,,,,,108.75908820005134,109.4097369001247,109.4097369001247,109.89432560000569,315,45,109.89432560000569,109.89432560000569,109.89432560000569,109.89432560000569,109.89432560000569,109.89432560000569,109.89432560000569,109.89432560000569,109.89432560000569,110.26069310004823,110.26069310004823,110.26069310004823,110.26069310004823,110.26069310004823,110.26069310004823,110.26069310004823,110.26069310004823,110.26069310004823,23,0,,,110.26069310004823,110.4608447002247,0.0,110.4608447002247,0,0.0,0,1,1000,num_1,0.4951613999437541,,35,10,2026-03-13_14h12.55.751,2026A_exp2,2022.2.4,59.93137862106978,
1000,1,4.9,3.7,0,0,24,24,32,,,,,110.97794730006717,111.62852850020863,111.62852850020863,112.11312010022812,45,315,112.11312010022812,112.11312010022812,112.11312010022812,112.11312010022812,112.11312010022812,112.11312010022812,112.11312010022812,112.11312010022812,112.11312010022812,112.47957950015552,112.47957950015552,112.47957950015552,112.47957950015552,112.47957950015552,112.47957950015552,112.47957950015552,112.47957950015552,112.47957950015552,23,0,,,112.47957950015552,112.68165680021048,1000,112.68165680021048,1000,1000,1000,1000,0,num_3,0.5394148998893797,,35,10,2026-03-13_14h12.55.751,2026A_exp2,2022.2.4,59.93137862106978,
1,0,0.0,4.9,1,0,25,25,53,,,,,113.24684870010242,113.89766500005499,113.89766500005499,114.39883010019548,45,315,114.39883010019548,114.39883010019548,114.39883010019548,114.39883010019548,114.39883010019548,114.39883010019548,114.39883010019548,114.39883010019548,114.39883010019548,114.74845280009322,114.74845280009322,114.74845280009322,114.74845280009322,114.74845280009322,114.74845280009322,114.74845280009322,114.74845280009322,114.74845280009322,22,0,,,114.74845280009322,114.94860160001554,4.9,114.94860160001554,1,4.9,1,1,1000,num_4,0.5114657997619361,,35,10,2026-03-13_14h12.55.751,2026A_exp2,2022.2.4,59.93137862106978,
0,0,0.0,3.7,1,0,26,26,10,,,,,115.48255520011298,116.13315540016629,116.13315540016629,116.61756230005994,315,315,116.61756230005994,116.61756230005994,116.61756230005994,116.61756230005994,116.61756230005994,116.61756230005994,116.61756230005994,116.61756230005994,116.61756230005994,116.983711700188,116.983711700188,116.983711700188,116.983711700188,116.983711700188,116.983711700188,116.983711700188,116.983711700188,116.983711700188,23,0,,,116.983711700188,117.1841405001469,0.0,117.1841405001469,0,0.0,0,1,1000,num_1,0.5564673999324441,,35,10,2026-03-13_14h12.55.751,2026A_exp2,2022.2.4,59.93137862106978,
1000,1,0.0,4.9,1,0,27,27,31,,,,,117.76812540018,118.41890130005777,118.41890130005777,118.90334570012055,315,45,118.90334570012055,118.90334570012055,118.90334570012055,118.90334570012055,118.90334570012055,118.90334570012055,118.90334570012055,118.90334570012055,118.90334570012055,119.26973040006123,119.26973040006123,119.26973040006123,119.26973040006123,119.26973040006123,119.26973040006123,119.26973040006123,119.26973040006123,119.26973040006123,23,0,,,119.26973040006123,119.47157340007834,1000,119.47157340007834,1000,1000,1000,1000,1,num_2,0.7737093998584896,,35,10,2026-03-13_14h12.55.751,2026A_exp2,2022.2.4,59.93137862106978,
1,0,6.1,4.9,0,0,28,28,39,,,,,120.27058340003714,120.92137830005959,120.92137830005959,121.42235670005903,315,315,121.42235670005903,121.42235670005903,121.42235670005903,121.42235670005903,121.42235670005903,121.42235670005903,121.42235670005903,121.42235670005903,121.42235670005903,121.78896070015617,121.78896070015617,121.78896070015617,121.78896070015617,121.78896070015617,121.78896070015617,121.78896070015617,121.78896070015617,121.78896070015617,21,2,"[0.16683000000193715, 0.3170684000942856]","[0.18365210015326738, 0.33372920006513596]",121.78896070015617,121.98900840012357,6.1,121.98900840012357,0,6.1,1,0,1000,num_1,0.5032366998493671,,35,10,2026-03-13_14h12.55.751,2026A_exp2,2022.2.4,59.93137862106978,
1000,1,0.0,0.0,0,0,29,29,85,,,,,122.52278550015762,123.1736603002064,123.1736603002064,123.65810380014591,315,315,123.65810380014591,123.65810380014591,123.65810380014591,123.65810380014591,123.65810380014591,123.65810380014591,123.65810380014591,123.65810380014591,123.65810380014591,124.02452300000004,124.02452300000004,124.02452300000004,124.02452300000004,124.02452300000004,124.02452300000004,124.02452300000004,124.02452300000004,124.02452300000004,23,0,,,124.02452300000004,124.22637850022875,1000,124.22637850022875,1000,1000,1000,1000,1,num_2,0.538054300006479,,35,10,2026-03-13_14h12.55.751,2026A_exp2,2022.2.4,59.93137862106978,
1000,1,6.1,0.0,0,0,30,30,14,,,,,124.7919455000665,125.44269450008869,125.44269450008869,125.94340580003336,45,315,125.94340580003336,125.94340580003336,125.94340580003336,125.94340580003336,125.94340580003336,125.94340580003336,125.94340580003336,125.94340580003336,125.94340580003336,126.30997920013033,126.30997920013033,126.30997920013033,126.30997920013033,126.30997920013033,126.30997920013033,126.30997920013033,126.30997920013033,126.30997920013033,23,0,,,126.30997920013033,126.51210880000144,1000,126.51210880000144,1000,1000,1000,1000,0,num_3,0.41183999995701015,,35,10,2026-03-13_14h12.55.751,2026A_exp2,2022.2.4,59.93137862106978,
0,0,0.0,0.0,1,0,31,31,71,,,,,126.9439982001204,127.59477530000731,127.59477530000731,128.09590590000153,45,45,128.09590590000153,128.09590590000153,128.09590590000153,128.09590590000153,128.09590590000153,128.09590590000153,128.09590590000153,128.09590590000153,128.09590590000153,128.4621908001136,128.4621908001136,128.4621908001136,128.4621908001136,128.4621908001136,128.4621908001136,128.4621908001136,128.4621908001136,128.4621908001136,22,1,[0.3676899999845773],[0.3676979998126626],128.4621908001136,128.66238020011224,0.0,128.66238020011224,0,0.0,0,1,1000,num_1,0.7735971000511199,,35,10,2026-03-13_14h12.55.751,2026A_exp2,2022.2.4,59.93137862106978,
1000,1,3.7,4.9,1,0,32,32,44,,,,,129.46333950012922,130.0972692000214,130.0972692000214,130.59835410001688,315,315,130.59835410001688,130.59835410001688,130.59835410001688,130.59835410001688,130.59835410001688,130.59835410001688,130.59835410001688,130.59835410001688,130.59835410001688,130.96480230009183,130.96480230009183,130.96480230009183,130.96480230009183,130.96480230009183,130.96480230009183,130.96480230009183,130.96480230009183,130.96480230009183,23,0,,,130.96480230009183,131.16646080021746,1000,131.16646080021746,1000,1000,1000,1000,0,num_3,0.45350079983472824,,35,10,2026-03-13_14h12.55.751,2026A_exp2,2022.2.4,59.93137862106978,
1000,1,4.9,0.0,0,0,33,33,54,,,,,131.6486324002035,132.2993490002118,132.2993490002118,132.80054460000247,45,45,132.80054460000247,132.80054460000247,132.80054460000247,132.80054460000247,132.80054460000247,132.80054460000247,132.80054460000247,132.80054460000247,132.80054460000247,133.1667991001159,133.1667991001159,133.1667991001159,133.1667991001159,133.1667991001159,133.1667991001159,133.1667991001159,133.1667991001159,133.1667991001159,19,3,"[0.20023579988628626, 0.3337971998844296, 0.36713030003011227]","[0.23367929994128644, 0.3504345000255853, 0.36713809985667467]",133.1667991001159,133.36918910010718,1000,133.36918910010718,1000,1000,1000,1000,0,num_3,0.42750119999982417,,35,10,2026-03-13_14h12.55.751,2026A_exp2,2022.2.4,59.93137862106978,
1000,1,4.9,6.1,0,0,34,34,20,,,,,133.81752100004815,134.46821400010958,134.46821400010958,134.96934700012207,45,315,134.96934700012207,134.96934700012207,134.96934700012207,134.96934700012207,134.96934700012207,134.96934700012207,134.96934700012207,134.96934700012207,134.96934700012207,135.33582750009373,135.33582750009373,135.33582750009373,135.33582750009373,135.33582750009373,135.33582750009373,135.33582750009373,135.33582750009373,135.33582750009373,23,0,,,135.33582750009373,135.53602910018526,1000,135.53602910018526,1000,1000,1000,1000,0,num_3,0.3479083999991417,,35,10,2026-03-13_14h12.55.751,2026A_exp2,2022.2.4,59.93137862106978,
1000,1,3.7,0.0,1,0,35,35,48,,,,,135.90288980002515,136.55362530006096,136.55362530006096,137.05476710014045,315,45,137.05476710014045,137.05476710014045,137.05476710014045,137.05476710014045,137.05476710014045,137.05476710014045,137.05476710014045,137.05476710014045,137.05476710014045,137.4212176001165,137.4212176001165,137.4212176001165,137.4212176001165,137.4212176001165,137.4212176001165,137.4212176001165,137.4212176001165,137.4212176001165,23,0,,,137.4212176001165,137.62302330019884,1000,137.62302330019884,1000,1000,1000,1000,0,num_3,0.6294620998669416,,35,10,2026-03-13_14h12.55.751,2026A_exp2,2022.2.4,59.93137862106978,
1,0,4.9,0.0,1,0,36,36,8,,,,,138.2719545001164,138.92274440010078,138.92274440010078,139.42388110002503,45,315,139.42388110002503,139.42388110002503,139.42388110002503,139.42388110002503,139.42388110002503,139.42388110002503,139.42388110002503,139.42388110002503,139.42388110002503,139.79017230006866,139.79017230006866,139.79017230006866,139.79017230006866,139.79017230006866,139.79017230006866,139.79017230006866,139.79017230006866,139.79017230006866,23,0,,,139.79017230006866,139.99026620015502,0.0,139.99026620015502,0,0.0,0,1,1000,num_1,0.622850300045684,,35,10,2026-03-13_14h12.55.751,2026A_exp2,2022.2.4,59.93137862106978,
1000,1,0.0,0.0,0,0,37,37,81,,,,,140.64105850015767,141.29170530010015,141.29170530010015,141.77617660001852,45,45,141.77617660001852,141.77617660001852,141.77617660001852,141.77617660001852,141.77617660001852,141.77617660001852,141.77617660001852,141.77617660001852,141.77617660001852,142.14279579999857,142.14279579999857,142.14279579999857,142.14279579999857,142.14279579999857,142.14279579999857,142.14279579999857,142.14279579999857,142.14279579999857,23,0,,,142.14279579999857,142.3450468000956,1000,142.3450468000956,1000,1000,1000,1000,0,num_3,0.6188095998950303,,35,10,2026-03-13_14h12.55.751,2026A_exp2,2022.2.4,59.93137862106978,
1,0,6.1,0.0,0,0,38,38,70,,,,,142.99334910023026,143.64417020021938,143.64417020021938,144.1450917001348,315,315,144.1450917001348,144.1450917001348,144.1450917001348,144.1450917001348,144.1450917001348,144.1450917001348,144.1450917001348,144.1450917001348,144.1450917001348,144.51155070005916,144.51155070005916,144.51155070005916,144.51155070005916,144.51155070005916,144.51155070005916,144.51155070005916,144.51155070005916,144.51155070005916,21,1,[0.28363290010020137],[0.3171397999394685],144.51155070005916,144.71190190012567,6.1,144.71190190012567,1,6.1,1,1,1000,num_4,0.5482260000426322,,35,10,2026-03-13_14h12.55.751,2026A_exp2,2022.2.4,59.93137862106978,
1000,1,0.0,6.1,0,0,39,39,37,,,,,145.2789114001207,145.92975030001253,145.92975030001253,146.43087989999913,45,315,146.43087989999913,146.43087989999913,146.43087989999913,146.43087989999913,146.43087989999913,146.43087989999913,146.43087989999913,146.43087989999913,146.43087989999913,146.78059690003283,146.78059690003283,146.78059690003283,146.78059690003283,146.78059690003283,146.78059690003283,146.78059690003283,146.78059690003283,146.78059690003283,22,0,,,146.78059690003283,146.982556700008,1000,146.982556700008,1000,1000,1000,1000,1,num_2,0.549731699982658,,35,10,2026-03-13_14h12.55.751,2026A_exp2,2022.2.4,59.93137862106978,
1000,1,0.0,0.0,0,0,40,40,64,,,,,147.54797580000013,148.19867540011182,148.19867540011182,148.69979820004664,45,315,148.69979820004664,148.69979820004664,148.69979820004664,148.69979820004664,148.69979820004664,148.69979820004664,148.69979820004664,148.69979820004664,148.69979820004664,149.06607110006735,149.06607110006735,149.06607110006735,149.06607110006735,149.06607110006735,149.06607110006735,149.06607110006735,149.06607110006735,149.06607110006735,23,0,,,149.06607110006735,149.26826710021123,1000,149.26826710021123,1000,1000,1000,1000,1,num_2,0.4556380999274552,,35,10,2026-03-13_14h12.55.751,2026A_exp2,2022.2.4,59.93137862106978,
1,0,0.0,3.7,1,0,41,41,41,,,,,149.74993930011988,150.40082770003937,150.40082770003937,150.90187360020354,45,45,150.90187360020354,150.90187360020354,150.90187360020354,150.90187360020354,150.90187360020354,150.90187360020354,150.90187360020354,150.90187360020354,150.90187360020354,151.26865390012972,151.26865390012972,151.26865390012972,151.26865390012972,151.26865390012972,151.26865390012972,151.26865390012972,151.26865390012972,151.26865390012972,23,0,,,151.26865390012972,151.46860820008442,3.7,151.46860820008442,1,3.7,1,1,1000,num_4,0.6395096997730434,,35,10,2026-03-13_14h12.55.751,2026A_exp2,2022.2.4,59.93137862106978,
1,0,6.1,4.9,0,0,42,42,24,,,,,152.13582910015248,152.78653310006484,152.78653310006484,153.27106380020268,315,315,153.27106380020268,153.27106380020268,153.27106380020268,153.27106380020268,153.27106380020268,153.27106380020268,153.27106380020268,153.27106380020268,153.27106380020268,153.63744780002162,153.63744780002162,153.63744780002162,153.63744780002162,153.63744780002162,153.63744780002162,153.63744780002162,153.63744780002162,153.63744780002162,23,0,,,153.63744780002162,153.8375921000261,6.1,153.8375921000261,0,6.1,1,0,1000,num_1,0.39872759976424277,,35,10,2026-03-13_14h12.55.751,2026A_exp2,2022.2.4,59.93137862106978,
1,0,0.0,0.0,0,0,43,43,29,,,,,154.2545448001474,154.9053013001103,154.9053013001103,155.3896900000982,315,315,155.3896900000982,155.3896900000982,155.3896900000982,155.3896900000982,155.3896900000982,155.3896900000982,155.3896900000982,155.3896900000982,155.3896900000982,155.75614590011537,155.75614590011537,155.75614590011537,155.75614590011537,155.75614590011537,155.75614590011537,155.75614590011537,155.75614590011537,155.75614590011537,23,0,,,155.75614590011537,155.9564347001724,0.0,155.9564347001724,1,0.0,0,0,1000,num_4,0.6325769999530166,,35,10,2026-03-13_14h12.55.751,2026A_exp2,2022.2.4,59.93137862106978,
1000,1,3.7,0.0,0,0,44,44,45,,,,,156.6070387000218,157.2579329002183,157.2579329002183,157.74219800019637,315,45,157.74219800019637,157.74219800019637,157.74219800019637,157.74219800019637,157.74219800019637,157.74219800019637,157.74219800019637,157.74219800019637,157.74219800019637,158.10862930002622,158.10862930002622,158.10862930002622,158.10862930002622,158.10862930002622,158.10862930002622,158.10862930002622,158.10862930002622,158.10862930002622,23,0,,,158.10862930002622,158.31088500004262,1000,158.31088500004262,1000,1000,1000,1000,0,num_3,0.5583967000711709,,35,10,2026-03-13_14h12.55.751,2026A_exp2,2022.2.4,59.93137862106978,
1000,1,0.0,0.0,1,0,45,45,33,,,,,158.8926832000725,159.54454670008272,159.54454670008272,160.04439020017162,45,45,160.04439020017162,160.04439020017162,160.04439020017162,160.04439020017162,160.04439020017162,160.04439020017162,160.04439020017162,160.04439020017162,160.04439020017162,160.41067210002802,160.41067210002802,160.41067210002802,160.41067210002802,160.41067210002802,160.41067210002802,160.41067210002802,160.41067210002802,160.41067210002802,23,0,,,160.41067210002802,160.61273120017722,1000,160.61273120017722,1000,1000,1000,1000,1,num_2,0.48800010001286864,,35,10,2026-03-13_14h12.55.751,2026A_exp2,2022.2.4,59.93137862106978,
1,0,3.7,0.0,1,0,46,46,19,,,,,161.12838430004194,161.77892490010709,161.77892490010709,162.27997340005822,45,315,162.27997340005822,162.27997340005822,162.27997340005822,162.27997340005822,162.27997340005822,162.27997340005822,162.27997340005822,162.27997340005822,162.27997340005822,162.64639600017108,162.64639600017108,162.64639600017108,162.64639600017108,162.64639600017108,162.64639600017108,162.64639600017108,162.64639600017108,162.64639600017108,23,0,,,162.64639600017108,162.84668539999984,0.0,162.84668539999984,0,0.0,0,1,1000,num_1,0.6946841997560114,,35,10,2026-03-13_14h12.55.751,2026A_exp2,2022.2.4,59.93137862106978,
1,0,0.0,6.1,1,0,47,47,40,,,,,163.56407370022498,164.19787940010428,164.19787940010428,164.69916050019674,315,315,164.69916050019674,164.69916050019674,164.69916050019674,164.69916050019674,164.69916050019674,164.69916050019674,164.69916050019674,164.69916050019674,164.69916050019674,165.06555440020747,165.06555440020747,165.06555440020747,165.06555440020747,165.06555440020747,165.06555440020747,165.06555440020747,165.06555440020747,165.06555440020747,23,0,,,165.06555440020747,165.2655958000105,6.1,165.2655958000105,1,6.1,1,1,1000,num_4,0.4030419997870922,,35,10,2026-03-13_14h12.55.751,2026A_exp2,2022.2.4,59.93137862106978,
1000,1,0.0,0.0,0,0,48,48,17,,,,,165.69943910022266,166.34997120010667,166.34997120010667,166.83470800006762,315,45,166.83470800006762,166.83470800006762,166.83470800006762,166.83470800006762,166.83470800006762,166.83470800006762,166.83470800006762,166.83470800006762,166.83470800006762,167.20101380022243,167.20101380022243,167.20101380022243,167.20101380022243,167.20101380022243,167.20101380022243,167.20101380022243,167.20101380022243,167.20101380022243,23,0,,,167.20101380022243,167.40289680007845,1000,167.40289680007845,1000,1000,1000,1000,0,num_3,0.3693367997184396,,35,10,2026-03-13_14h12.55.751,2026A_exp2,2022.2.4,59.93137862106978,
1000,1,0.0,0.0,0,0,49,49,74,,,,,167.80157570005395,168.45226700021885,168.45226700021885,168.9365624000784,315,45,168.9365624000784,168.9365624000784,168.9365624000784,168.9365624000784,168.9365624000784,168.9365624000784,168.9365624000784,168.9365624000784,168.9365624000784,169.30308640003204,169.30308640003204,169.30308640003204,169.30308640003204,169.30308640003204,169.30308640003204,169.30308640003204,169.30308640003204,169.30308640003204,23,0,,,169.30308640003204,169.5049446001649,1000,169.5049446001649,1000,1000,1000,1000,1,num_2,0.5633584999013692,,35,10,2026-03-13_14h12.55.751,2026A_exp2,2022.2.4,59.93137862106978,
0,0,6.1,3.7,1,0,50,50,49,,,,,170.0870796001982,170.73788620019332,170.73788620019332,171.238863900071,315,315,171.238863900071,171.238863900071,171.238863900071,171.238863900071,171.238863900071,171.238863900071,171.238863900071,171.238863900071,171.238863900071,171.6052983000409,171.6052983000409,171.6052983000409,171.6052983000409,171.6052983000409,171.6052983000409,171.6052983000409,171.6052983000409,171.6052983000409,23,0,,,171.6052983000409,171.80565020022914,6.1,171.80565020022914,1,6.1,1,1,1000,num_4,0.5273041997570544,,35,10,2026-03-13_14h12.55.751,2026A_exp2,2022.2.4,59.93137862106978,
1,0,0.0,4.9,1,0,51,51,21,,,,,172.35590210021473,173.0068630001042,173.0068630001042,173.49128490011208,315,45,173.49128490011208,173.49128490011208,173.49128490011208,173.49128490011208,173.49128490011208,173.49128490011208,173.49128490011208,173.49128490011208,173.49128490011208,173.85748390015215,173.85748390015215,173.85748390015215,173.85748390015215,173.85748390015215,173.85748390015215,173.85748390015215,173.85748390015215,173.85748390015215,3,2,"[0.0012578999157994986, 0.2502407000865787]","[0.2168302999343723, 0.3668929000850767]",173.85748390015215,174.05779420002364,4.9,174.05779420002364,1,4.9,1,1,1000,num_4,0.4422509998548776,,35,10,2026-03-13_14h12.55.751,2026A_exp2,2022.2.4,59.93137862106978,
1000,1,4.9,6.1,1,0,52,52,28,,,,,174.52493080007844,175.17561310017481,175.17561310017481,175.65990389999934,315,315,175.65990389999934,175.65990389999934,175.65990389999934,175.65990389999934,175.65990389999934,175.65990389999934,175.65990389999934,175.65990389999934,175.65990389999934,176.02644410007633,176.02644410007633,176.02644410007633,176.02644410007633,176.02644410007633,176.02644410007633,176.02644410007633,176.02644410007633,176.02644410007633,23,0,,,176.02644410007633,176.22884120000526,1000,176.22884120000526,1000,1000,1000,1000,0,num_3,0.5275408998131752,,35,10,2026-03-13_14h12.55.751,2026A_exp2,2022.2.4,59.93137862106978,
1,0,0.0,0.0,1,0,53,53,73,,,,,176.78087680018507,177.42750300001353,177.42750300001353,177.92892130021937,45,45,177.92892130021937,177.92892130021937,177.92892130021937,177.92892130021937,177.92892130021937,177.92892130021937,177.92892130021937,177.92892130021937,177.92892130021937,178.29543070006184,178.29543070006184,178.29543070006184,178.29543070006184,178.29543070006184,178.29543070006184,178.29543070006184,178.29543070006184,178.29543070006184,23,0,,,178.29543070006184,178.49563340004534,0.0,178.49563340004534,0,0.0,0,1,1000,num_1,0.6767559999134392,,35,10,2026-03-13_14h12.55.751,2026A_exp2,2022.2.4,59.93137862106978,
1000,1,0.0,0.0,0,0,54,54,86,,,,,179.19612480001524,179.84687350015156,179.84687350015156,180.34794670017436,45,45,180.34794670017436,180.34794670017436,180.34794670017436,180.34794670017436,180.34794670017436,180.34794670017436,180.34794670017436,180.34794670017436,180.34794670017436,180.697674700059,180.697674700059,180.697674700059,180.697674700059,180.697674700059,180.697674700059,180.697674700059,180.697674700059,180.697674700059,22,0,,,180.697674700059,180.90013700001873,1000,180.90013700001873,1000,1000,1000,1000,0,num_3,0.5610509999096394,,35,10,2026-03-13_14h12.55.751,2026A_exp2,2022.2.4,59.93137862106978,
0,0,4.9,0.0,1,0,55,55,25,,,,,181.48181020002812,182.1323869000189,182.1323869000189,182.63361940020695,45,315,182.63361940020695,182.63361940020695,182.63361940020695,182.63361940020695,182.63361940020695,182.63361940020695,182.63361940020695,182.63361940020695,182.63361940020695,183.0000013001263,183.0000013001263,183.0000013001263,183.0000013001263,183.0000013001263,183.0000013001263,183.0000013001263,183.0000013001263,183.0000013001263,2,3,"[0.0013727000914514065, 0.26745279994793236, 0.30093570007011294]","[0.2507714999374002, 0.2841318000573665, 0.3676066999323666]",183.0000013001263,183.2002343002241,4.9,183.2002343002241,1,4.9,1,1,1000,num_4,0.45248689991422,,35,10,2026-03-13_14h12.55.751,2026A_exp2,2022.2.4,59.93137862106978,
1000,1,3.7,6.1,0,0,56,56,0,,,,,183.6839454001747,184.3347934000194,184.3347934000194,184.8359430001583,315,45,184.8359430001583,184.8359430001583,184.8359430001583,184.8359430001583,184.8359430001583,184.8359430001583,184.8359430001583,184.8359430001583,184.8359430001583,185.18564280006103,185.18564280006103,185.18564280006103,185.18564280006103,185.18564280006103,185.18564280006103,185.18564280006103,185.18564280006103,185.18564280006103,22,0,,,185.18564280006103,185.38768750010058,1000,185.38768750010058,1000,1000,1000,1000,1,num_2,0.5372043997049332,,35,10,2026-03-13_14h12.55.751,2026A_exp2,2022.2.4,59.93137862106978,
1000,1,0.0,3.7,1,0,57,57,47,,,,,185.95308240014128,186.61305160005577,186.61305160005577,187.10481270006858,315,45,187.10481270006858,187.10481270006858,187.10481270006858,187.10481270006858,187.10481270006858,187.10481270006858,187.10481270006858,187.10481270006858,187.10481270006858,187.47141560004093,187.47141560004093,187.47141560004093,187.47141560004093,187.47141560004093,187.47141560004093,187.47141560004093,187.47141560004093,187.47141560004093,21,2,"[0.0501176998950541, 0.13349349983036518]","[0.06667679990641773, 0.1501958998851478]",187.47141560004093,187.67671020003036,1000,187.67671020003036,1000,1000,1000,1000,1,num_2,0.7675387000199407,,35,10,2026-03-13_14h12.55.751,2026A_exp2,2022.2.4,59.93137862106978,
1,0,0.0,6.1,0,0,58,58,11,,,,,188.47221590019763,189.1229965002276,189.1229965002276,189.62393260002136,45,45,189.62393260002136,189.62393260002136,189.62393260002136,189.62393260002136,189.62393260002136,189.62393260002136,189.62393260002136,189.62393260002136,189.62393260002136,189.99046380002983,189.99046380002983,189.99046380002983,189.99046380002983,189.99046380002983,189.99046380002983,189.99046380002983,189.99046380002983,189.99046380002983,23,0,,,189.99046380002983,190.1905610000249,0.0,190.1905610000249,1,0.0,0,0,1000,num_4,0.5740058997180313,,35,10,2026-03-13_14h12.55.751,2026A_exp2,2022.2.4,59.93137862106978,
1000,1,0.0,0.0,1,0,59,59,12,,,,,190.7912519001402,191.4417669000104,191.4417669000104,191.92648980021477,45,315,191.92648980021477,191.92648980021477,191.92648980021477,191.92648980021477,191.92648980021477,191.92648980021477,191.92648980021477,191.92648980021477,191.92648980021477,192.29268270009197,192.29268270009197,192.29268270009197,192.29268270009197,192.29268270009197,192.29268270009197,192.29268270009197,192.29268270009197,192.29268270009197,23,0,,,192.29268270009197,192.4943313000258,1000,192.4943313000258,1000,1000,1000,1000,1,num_2,0.45490299980156124,,35,10,2026-03-13_14h12.55.751,2026A_exp2,2022.2.4,59.93137862106978,
1000,1,0.0,0.0,0,0,60,60,80,,,,,192.9766495001968,193.62745470018126,193.62745470018126,194.12855770019814,315,45,194.12855770019814,194.12855770019814,194.12855770019814,194.12855770019814,194.12855770019814,194.12855770019814,194.12855770019814,194.12855770019814,194.12855770019814,194.49498420022428,194.49498420022428,194.49498420022428,194.49498420022428,194.49498420022428,194.49498420022428,194.49498420022428,194.49498420022428,194.49498420022428,23,0,,,194.49498420022428,194.69683580007404,1000,194.69683580007404,1000,1000,1000,1000,1,num_2,0.5158843998797238,,35,10,2026-03-13_14h12.55.751,2026A_exp2,2022.2.4,59.93137862106978,
1000,1,0.0,4.9,1,0,61,61,59,,,,,195.22898300015368,195.87951960018836,195.87951960018836,196.38082310021855,315,315,196.38082310021855,196.38082310021855,196.38082310021855,196.38082310021855,196.38082310021855,196.38082310021855,196.38082310021855,196.38082310021855,196.38082310021855,196.74720120010898,196.74720120010898,196.74720120010898,196.74720120010898,196.74720120010898,196.74720120010898,196.74720120010898,196.74720120010898,196.74720120010898,23,0,,,196.74720120010898,196.94924660003744,1000,196.94924660003744,1000,1000,1000,1000,1,num_2,0.4957725000567734,,35,10,2026-03-13_14h12.55.751,2026A_exp2,2022.2.4,59.93137862106978,
1,0,3.7,3.7,0,0,62,62,13,,,,,197.46446690009907,198.11510110017844,198.11510110017844,198.6162691002246,45,315,198.6162691002246,198.6162691002246,198.6162691002246,198.6162691002246,198.6162691002246,198.6162691002246,198.6162691002246,198.6162691002246,198.6162691002246,198.98279620008543,198.98279620008543,198.98279620008543,198.98279620008543,198.98279620008543,198.98279620008543,198.98279620008543,198.98279620008543,198.98279620008543,23,0,,,198.98279620008543,199.1829030001536,3.7,199.1829030001536,1,3.7,1,1,1000,num_4,0.6696342998184264,,35,10,2026-03-13_14h12.55.751,2026A_exp2,2022.2.4,59.93137862106978,
1000,1,0.0,6.1,1,0,63,63,62,,,,,199.88353660004213,200.53434040001594,200.53434040001594,201.01865850016475,45,315,201.01865850016475,201.01865850016475,201.01865850016475,201.01865850016475,201.01865850016475,201.01865850016475,201.01865850016475,201.01865850016475,201.01865850016475,201.38519290019758,201.38519290019758,201.38519290019758,201.38519290019758,201.38519290019758,201.38519290019758,201.38519290019758,201.38519290019758,201.38519290019758,22,1,[0.10029000020585954],[0.11696150014176965],201.38519290019758,201.5869851000607,1000,201.5869851000607,1000,1000,1000,1000,1,num_2,0.52981419977732,,35,10,2026-03-13_14h12.55.751,2026A_exp2,2022.2.4,59.93137862106978,
1000,1,0.0,4.9,1,0,64,64,79,,,,,202.13579450012185,202.7866274002008,202.7866274002008,203.28777060005814,315,315,203.28777060005814,203.28777060005814,203.28777060005814,203.28777060005814,203.28777060005814,203.28777060005814,203.28777060005814,203.28777060005814,203.28777060005814,203.65405500005,203.65405500005,203.65405500005,203.65405500005,203.65405500005,203.65405500005,203.65405500005,203.65405500005,203.65405500005,23,0,,,203.65405500005,203.8564230001066,1000,203.8564230001066,1000,1000,1000,1000,1,num_2,0.4760278998874128,,35,10,2026-03-13_14h12.55.751,2026A_exp2,2022.2.4,59.93137862106978,
1,0,6.1,0.0,0,0,65,65,56,,,,,204.35462780017406,205.00544530013576,205.00544530013576,205.50648219999857,45,315,205.50648219999857,205.50648219999857,205.50648219999857,205.50648219999857,205.50648219999857,205.50648219999857,205.50648219999857,205.50648219999857,205.50648219999857,205.87298750015907,205.87298750015907,205.87298750015907,205.87298750015907,205.87298750015907,205.87298750015907,205.87298750015907,205.87298750015907,205.87298750015907,23,0,,,205.87298750015907,206.0732152001001,6.1,206.0732152001001,1,6.1,1,1,1000,num_4,0.4035098999738693,,35,10,2026-03-13_14h12.55.751,2026A_exp2,2022.2.4,59.93137862106978,
1000,1,4.9,0.0,0,0,66,66,26,,,,,206.50682280003093,207.1577036001254,207.1577036001254,207.6419492000714,45,315,207.6419492000714,207.6419492000714,207.6419492000714,207.6419492000714,207.6419492000714,207.6419492000714,207.6419492000714,207.6419492000714,207.6419492000714,208.00849590008147,208.00849590008147,208.00849590008147,208.00849590008147,208.00849590008147,208.00849590008147,208.00849590008147,208.00849590008147,208.00849590008147,23,0,,,208.00849590008147,208.21064190007746,1000,208.21064190007746,1000,1000,1000,1000,0,num_3,0.5452697998844087,,35,10,2026-03-13_14h12.55.751,2026A_exp2,2022.2.4,59.93137862106978,
1,0,0.0,3.7,1,0,67,67,66,,,,,208.77578270016238,209.42650720011443,209.42650720011443,209.92755700019188,45,315,209.92755700019188,209.92755700019188,209.92755700019188,209.92755700019188,209.92755700019188,209.92755700019188,209.92755700019188,209.92755700019188,209.92755700019188,210.27724480000325,210.27724480000325,210.27724480000325,210.27724480000325,210.27724480000325,210.27724480000325,210.27724480000325,210.27724480000325,210.27724480000325,22,0,,,210.27724480000325,210.4774688000325,3.7,210.4774688000325,1,3.7,1,1,1000,num_4,0.5913507998920977,,35,10,2026-03-13_14h12.55.751,2026A_exp2,2022.2.4,59.93137862106978,
1000,1,3.7,0.0,0,0,68,68,2,,,,,211.0947560002096,211.74552050000057,211.74552050000057,212.22987750009634,45,45,212.22987750009634,212.22987750009634,212.22987750009634,212.22987750009634,212.22987750009634,212.22987750009634,212.22987750009634,212.22987750009634,212.22987750009634,212.5963702001609,212.5963702001609,212.5963702001609,212.5963702001609,212.5963702001609,212.5963702001609,212.5963702001609,212.5963702001609,212.5963702001609,23,0,,,212.5963702001609,212.79847210017033,1000,212.79847210017033,1000,1000,1000,1000,0,num_3,0.5021034998353571,,35,10,2026-03-13_14h12.55.751,2026A_exp2,2022.2.4,59.93137862106978,
1000,1,6.1,6.1,1,0,69,69,77,,,,,213.33054350013845,213.98110650014132,213.98110650014132,214.48224750021473,45,45,214.48224750021473,214.48224750021473,214.48224750021473,214.48224750021473,214.48224750021473,214.48224750021473,214.48224750021473,214.48224750021473,214.48224750021473,214.8486574999988,214.8486574999988,214.8486574999988,214.8486574999988,214.8486574999988,214.8486574999988,214.8486574999988,214.8486574999988,214.8486574999988,23,0,,,214.8486574999988,215.05051100021228,1000,215.05051100021228,1000,1000,1000,1000,0,num_3,0.4896650998853147,,35,10,2026-03-13_14h12.55.751,2026A_exp2,2022.2.4,59.93137862106978,
1,0,0.0,6.1,0,0,70,70,60,,,,,215.56594250001945,216.21667960006744,216.21667960006744,216.71767580020241,315,315,216.71767580020241,216.71767580020241,216.71767580020241,216.71767580020241,216.71767580020241,216.71767580020241,216.71767580020241,216.71767580020241,216.71767580020241,217.0675659000408,217.0675659000408,217.0675659000408,217.0675659000408,217.0675659000408,217.0675659000408,217.0675659000408,217.0675659000408,217.0675659000408,22,0,,,217.0675659000408,217.26774860010482,0.0,217.28443560004234,0,0.0,0,1,1000,num_1,0.7288408000022173,,35,10,2026-03-13_14h12.55.751,2026A_exp2,2022.2.4,59.93137862106978,
1000,1,6.1,0.0,1,0,71,71,16,,,,,218.03500060015358,218.68571930006146,218.68571930006146,219.1703095000703,45,315,219.1703095000703,219.1703095000703,219.1703095000703,219.1703095000703,219.1703095000703,219.1703095000703,219.1703095000703,219.1703095000703,219.1703095000703,219.5363617001567,219.5363617001567,219.5363617001567,219.5363617001567,219.5363617001567,219.5363617001567,219.5363617001567,219.5363617001567,219.5363617001567,23,0,,,219.5363617001567,219.738709700061,1000,219.738709700061,1000,1000,1000,1000,0,num_3,0.40996889979578555,,35,10,2026-03-13_14h12.55.751,2026A_exp2,2022.2.4,59.93137862106978,
1000,1,4.9,0.0,1,0,72,72,22,,,,,220.17051990004256,220.82128080003895,220.82128080003895,221.32228080020286,45,315,221.32228080020286,221.32228080020286,221.32228080020286,221.32228080020286,221.32228080020286,221.32228080020286,221.32228080020286,221.32228080020286,221.32228080020286,221.68878300022334,221.68878300022334,221.68878300022334,221.68878300022334,221.68878300022334,221.68878300022334,221.68878300022334,221.68878300022334,221.68878300022334,23,0,,,221.68878300022334,221.89079410000704,1000,221.89079410000704,1000,1000,1000,1000,0,num_3,0.44940439984202385,,35,10,2026-03-13_14h12.55.751,2026A_exp2,2022.2.4,59.93137862106978,
1000,1,0.0,0.0,0,0,73,73,15,,,,,222.35601510014385,223.00681550009176,223.00681550009176,223.50791120016947,315,45,223.50791120016947,223.50791120016947,223.50791120016947,223.50791120016947,223.50791120016947,223.50791120016947,223.50791120016947,223.50791120016947,223.50791120016947,223.8741866000928,223.8741866000928,223.8741866000928,223.8741866000928,223.8741866000928,223.8741866000928,223.8741866000928,223.8741866000928,223.8741866000928,23,0,,,223.8741866000928,224.0760679000523,1000,224.0760679000523,1000,1000,1000,1000,1,num_2,0.7772202999331057,,35,10,2026-03-13_14h12.55.751,2026A_exp2,2022.2.4,59.93137862106978,
1,0,0.0,6.1,0,0,74,74,34,,,,,224.87515160022303,225.5261192000471,225.5261192000471,226.0271182002034,315,315,226.0271182002034,226.0271182002034,226.0271182002034,226.0271182002034,226.0271182002034,226.0271182002034,226.0271182002034,226.0271182002034,226.0271182002034,226.39349660021253,226.39349660021253,226.39349660021253,226.39349660021253,226.39349660021253,226.39349660021253,226.39349660021253,226.39349660021253,226.39349660021253,23,0,,,226.39349660021253,226.59376570000313,0.0,226.59376570000313,0,0.0,0,1,1000,num_1,0.763334299903363,,35,10,2026-03-13_14h12.55.751,2026A_exp2,2022.2.4,59.93137862106978,
1,0,3.7,0.0,0,0,75,75,42,,,,,227.37764260009862,228.02849350008182,228.02849350008182,228.51284700003453,315,45,228.51284700003453,228.51284700003453,228.51284700003453,228.51284700003453,228.51284700003453,228.51284700003453,228.51284700003453,228.51284700003453,228.51284700003453,228.87925830017775,228.87925830017775,228.87925830017775,228.87925830017775,228.87925830017775,228.87925830017775,228.87925830017775,228.87925830017775,228.87925830017775,23,0,,,228.87925830017775,229.07956550014205,3.7,229.07956550014205,1,3.7,1,1,1000,num_4,0.7170529998838902,,35,10,2026-03-13_14h12.55.751,2026A_exp2,2022.2.4,59.93137862106978,
1,0,3.7,6.1,0,0,76,76,55,,,,,229.81349160009995,230.46420620009303,230.46420620009303,230.9486030000262,45,315,230.9486030000262,230.9486030000262,230.9486030000262,230.9486030000262,230.9486030000262,230.9486030000262,230.9486030000262,230.9486030000262,230.9486030000262,231.31514130020514,231.31514130020514,231.31514130020514,231.31514130020514,231.31514130020514,231.31514130020514,231.31514130020514,231.31514130020514,231.31514130020514,23,0,,,231.31514130020514,231.51531420019455,3.7,231.51531420019455,0,3.7,1,0,1000,num_1,0.9047690997831523,,35,10,2026-03-13_14h12.55.751,2026A_exp2,2022.2.4,59.93137862106978,
1000,1,0.0,6.1,0,0,77,77,9,,,,,232.44944290001877,233.10014670016244,233.10014670016244,233.58469380019233,45,45,233.58469380019233,233.58469380019233,233.58469380019233,233.58469380019233,233.58469380019233,233.58469380019233,233.58469380019233,233.58469380019233,233.58469380019233,233.95093060005456,233.95093060005456,233.95093060005456,233.95093060005456,233.95093060005456,233.95093060005456,233.95093060005456,233.95093060005456,233.95093060005456,23,0,,,233.95093060005456,234.15302570001222,1000,234.15302570001222,1000,1000,1000,1000,1,num_2,0.6762512000277638,,35,10,2026-03-13_14h12.55.751,2026A_exp2,2022.2.4,59.93137862106978,
1,0,0.0,0.0,0,0,78,78,1,,,,,234.8518516002223,235.5025917000603,235.5025917000603,236.0039283002261,315,315,236.0039283002261,236.0039283002261,236.0039283002261,236.0039283002261,236.0039283002261,236.0039283002261,236.0039283002261,236.0039283002261,236.0039283002261,236.37009130022489,236.37009130022489,236.37009130022489,236.37009130022489,236.37009130022489,236.37009130022489,236.37009130022489,236.37009130022489,236.37009130022489,23,0,,,236.37009130022489,236.57033630018122,0.0,236.57033630018122,0,0.0,0,1,1000,num_1,0.7627458998467773,,35,10,2026-03-13_14h12.55.751,2026A_exp2,2022.2.4,59.93137862106978,
1,0,0.0,0.0,1,0,79,79,6,,,,,237.3542484000791,238.00504250009544,238.00504250009544,238.4894564000424,45,45,238.4894564000424,238.4894564000424,238.4894564000424,238.4894564000424,238.4894564000424,238.4894564000424,238.4894564000424,238.4894564000424,238.4894564000424,238.85594240017235,238.85594240017235,238.85594240017235,238.85594240017235,238.85594240017235,238.85594240017235,238.85594240017235,238.85594240017235,238.85594240017235,23,0,,,238.85594240017235,239.05608080001548,0.0,239.05608080001548,1,0.0,0,0,1000,num_4,0.6119446998927742,,35,10,2026-03-13_14h12.55.751,2026A_exp2,2022.2.4,59.93137862106978,
1000,1,0.0,3.7,0,0,80,80,78,,,,,239.68996060010977,240.34070170018822,240.34070170018822,240.8252687000204,45,315,240.8252687000204,240.8252687000204,240.8252687000204,240.8252687000204,240.8252687000204,240.8252687000204,240.8252687000204,240.8252687000204,240.8252687000204,241.1915163001977,241.1915163001977,241.1915163001977,241.1915163001977,241.1915163001977,241.1915163001977,241.1915163001977,241.1915163001977,241.1915163001977,23,0,,,241.1915163001977,241.39314850000665,1000,241.39314850000665,1000,1000,1000,1000,0,num_3,0.4834698000922799,,35,10,2026-03-13_14h12.55.751,2026A_exp2,2022.2.4,59.93137862106978,
1000,1,4.9,0.0,1,0,81,81,72,,,,,241.89263060013764,242.542905600043,242.542905600043,243.02742770011537,315,45,243.02742770011537,243.02742770011537,243.02742770011537,243.02742770011537,243.02742770011537,243.02742770011537,243.02742770011537,243.02742770011537,243.02742770011537,243.39365050010383,243.39365050010383,243.39365050010383,243.39365050010383,243.39365050010383,243.39365050010383,243.39365050010383,243.39365050010383,243.39365050010383,23,0,,,243.39365050010383,243.59576920000836,1000,243.59576920000836,1000,1000,1000,1000,0,num_3,0.5773927997797728,,35,10,2026-03-13_14h12.55.751,2026A_exp2,2022.2.4,59.93137862106978,
1,0,0.0,4.9,0,0,82,82,4,,,,,244.19450060022064,244.8453251000028,244.8453251000028,245.3463497001212,45,45,245.3463497001212,245.3463497001212,245.3463497001212,245.3463497001212,245.3463497001212,245.3463497001212,245.3463497001212,245.3463497001212,245.3463497001212,245.71279120002873,245.71279120002873,245.71279120002873,245.71279120002873,245.71279120002873,245.71279120002873,245.71279120002873,245.71279120002873,245.71279120002873,23,0,,,245.71279120002873,245.91294390009716,0.0,245.91294390009716,0,0.0,0,1,1000,num_1,0.7310873998794705,,35,10,2026-03-13_14h12.55.751,2026A_exp2,2022.2.4,59.93137862106978,
1,0,0.0,0.0,0,0,83,83,63,,,,,246.6636090001557,247.3144051001873,247.3144051001873,247.81525320000947,45,315,247.81525320000947,247.81525320000947,247.81525320000947,247.81525320000947,247.81525320000947,247.81525320000947,247.81525320000947,247.81525320000947,247.81525320000947,248.16532230004668,248.16532230004668,248.16532230004668,248.16532230004668,248.16532230004668,248.16532230004668,248.16532230004668,248.16532230004668,248.16532230004668,22,0,,,248.16532230004668,248.3654010000173,0.0,248.3654010000173,0,0.0,0,1,1000,num_1,0.6957500998396426,,35,10,2026-03-13_14h12.55.751,2026A_exp2,2022.2.4,59.93137862106978,
1000,1,6.1,0.0,1,0,84,84,68,,,,,249.08270360017195,249.7335238000378,249.7335238000378,250.21799610019661,315,45,250.21799610019661,250.21799610019661,250.21799610019661,250.21799610019661,250.21799610019661,250.21799610019661,250.21799610019661,250.21799610019661,250.21799610019661,250.58434310019948,250.58434310019948,250.58434310019948,250.58434310019948,250.58434310019948,250.58434310019948,250.58434310019948,250.58434310019948,250.58434310019948,23,0,,,250.58434310019948,250.804284500191,1000,250.804284500191,1000,1000,1000,1000,0,num_3,0.5124565998557955,,35,10,2026-03-13_14h12.55.751,2026A_exp2,2022.2.4,59.93137862106978,
1000,1,0.0,0.0,0,0,85,85,18,,,,,251.33510420005769,251.98584450013004,251.98584450013004,252.48702110000886,315,45,252.48702110000886,252.48702110000886,252.48702110000886,252.48702110000886,252.48702110000886,252.48702110000886,252.48702110000886,252.48702110000886,252.48702110000886,252.85315570002422,252.85315570002422,252.85315570002422,252.85315570002422,252.85315570002422,252.85315570002422,252.85315570002422,252.85315570002422,252.85315570002422,23,0,,,252.85315570002422,253.05549150006846,1000,253.05549150006846,1000,1000,1000,1000,1,num_2,0.5164567998144776,,35,10,2026-03-13_14h12.55.751,2026A_exp2,2022.2.4,59.93137862106978,
1000,1,3.7,6.1,0,0,86,86,84,,,,,253.5874708001502,254.2393638000358,254.2393638000358,254.7391327000223,45,45,254.7391327000223,254.7391327000223,254.7391327000223,254.7391327000223,254.7391327000223,254.7391327000223,254.7391327000223,254.7391327000223,254.7391327000223,255.10558690014295,255.10558690014295,255.10558690014295,255.10558690014295,255.10558690014295,255.10558690014295,255.10558690014295,255.10558690014295,255.10558690014295,23,0,,,255.10558690014295,255.30800940003246,1000,255.30800940003246,1000,1000,1000,1000,0,num_3,0.4565768998581916,,35,10,2026-03-13_14h12.55.751,2026A_exp2,2022.2.4,59.93137862106978,
1,0,4.9,0.0,0,0,87,87,58,,,,,255.78950680000708,256.4402391000185,256.4402391000185,256.9415299000684,45,45,256.9415299000684,256.9415299000684,256.9415299000684,256.9415299000684,256.9415299000684,256.9415299000684,256.9415299000684,256.9415299000684,256.9415299000684,257.3077589001041,257.3077589001041,257.3077589001041,257.3077589001041,257.3077589001041,257.3077589001041,257.3077589001041,257.3077589001041,257.3077589001041,23,0,,,257.3077589001041,257.50788330007344,4.9,257.50788330007344,1,4.9,1,1,1000,num_4,0.8733303998596966,,35,10,2026-03-13_14h12.55.751,2026A_exp2,2022.2.4,59.93137862106978,
1,0,0.0,3.7,0,0,88,88,35,,,,,258.40878680022433,259.05946690007113,259.05946690007113,259.5439745001495,45,315,259.5439745001495,259.5439745001495,259.5439745001495,259.5439745001495,259.5439745001495,259.5439745001495,259.5439745001495,259.5439745001495,259.5439745001495,259.9104036001954,259.9104036001954,259.9104036001954,259.9104036001954,259.9104036001954,259.9104036001954,259.9104036001954,259.9104036001954,259.9104036001954,23,0,,,259.9104036001954,260.1105435001664,0.0,260.1105435001664,0,0.0,0,1,1000,num_1,0.8616334998514503,,35,10,2026-03-13_14h12.55.751,2026A_exp2,2022.2.4,59.93137862106978,
1000,1,0.0,6.1,1,0,89,89,88,,,,,260.99477110011503,261.6454122001305,261.6454122001305,262.1298855000641,45,315,262.1298855000641,262.1298855000641,262.1298855000641,262.1298855000641,262.1298855000641,262.1298855000641,262.1298855000641,262.1298855000641,262.1298855000641,262.49630770017393,262.49630770017393,262.49630770017393,262.49630770017393,262.49630770017393,262.49630770017393,262.49630770017393,262.49630770017393,262.49630770017393,23,0,,,262.49630770017393,262.69824970001355,1000,262.69824970001355,1000,1000,1000,1000,1,num_2,0.5135772998910397,,35,10,2026-03-13_14h12.55.751,2026A_exp2,2022.2.4,59.93137862106978,
,,,,,,,,,,,,,,,,,,,,,,,,,,,,,,,,,,,,,,,,,,,,,,,,,,,,263.2399832000956,,,,,,,
