validity,detectorcomp,contrastCW,contrastCCW,precueCWorCCW,block_80trials.thisRepN,block_80trials.thisTrialN,block_80trials.thisN,block_80trials.thisIndex,etRecord.started,etRecord.stopped,text.started,text.stopped,text_4.started,text_4.stopped,text_6.started,text_6.stopped,oriCW,oriCCW,roi_2.started,grating_UR.started,grating_UL.started,grating_LR.started,grating_LL.started,noise_UR.started,noise_UL.started,noise_LR.started,noise_LL.started,roi_2.stopped,grating_UR.stopped,grating_UL.stopped,grating_LR.stopped,grating_LL.stopped,noise_UR.stopped,noise_UL.stopped,noise_LR.stopped,noise_LL.stopped,outframe,roi_2.numLooks,roi_2.timesOn,roi_2.timesOff,text_2.started,text_2.stopped,probedcontrast,key_resp.started,respdetect,relevantContrast,correctDetect,TorFdetect,respCWorCCW,key_resp.keys,key_resp.rt,feedback_display_.started,participantNo,blockNo,date,expName,psychopyVersion,frameRate,
1,0,6.1,6.1,1,0,0,0,49,3.9300008211284876e-05,3.9300008211284876e-05,93.95316829998046,95.9583157999441,95.9583157999441,96.5907743999851,96.5907743999851,97.11283749999711,315,45,97.11283749999711,97.11283749999711,97.11283749999711,97.11283749999711,97.11283749999711,97.11283749999711,97.11283749999711,97.11283749999711,97.11283749999711,97.45840529998532,97.45840529998532,97.45840529998532,97.45840529998532,97.45840529998532,97.45840529998532,97.45840529998532,97.45840529998532,97.45840529998532,23,0,,,97.45840529998532,97.65861439995933,6.1,97.65861439995933,0,6.1,1,0,1000,num_1,1.4210869999951683,,28,7,2026-03-05_16h00.13.672,2026A_exp2,2022.2.4,60.01817350157759,
1000,1,0.0,4.9,1,0,1,1,72,,,,,99.10981699998956,99.76033769996138,99.76033769996138,100.26186599995708,315,45,100.26186599995708,100.26186599995708,100.26186599995708,100.26186599995708,100.26186599995708,100.26186599995708,100.26186599995708,100.26186599995708,100.26186599995708,100.62821659998735,100.62821659998735,100.62821659998735,100.62821659998735,100.62821659998735,100.62821659998735,100.62821659998735,100.62821659998735,100.62821659998735,3,3,"[0.0010565999546088278, 0.23387909994926304, 0.36729149997700006]","[0.2006058999686502, 0.3506751999957487, 0.3672965999576263]",100.62821659998735,100.8332531999913,1000,100.8332531999913,1000,1000,1000,1000,0,num_3,0.5419941000291146,,28,7,2026-03-05_16h00.13.672,2026A_exp2,2022.2.4,60.01817350157759,
1000,1,3.7,4.9,0,0,2,2,25,,,,,101.39572709996719,102.04634009994334,102.04634009994334,102.54744779999601,45,315,102.54744779999601,102.54744779999601,102.54744779999601,102.54744779999601,102.54744779999601,102.54744779999601,102.54744779999601,102.54744779999601,102.54744779999601,102.91387449996546,102.91387449996546,102.91387449996546,102.91387449996546,102.91387449996546,102.91387449996546,102.91387449996546,102.91387449996546,102.91387449996546,0,1,[0.0010932000004686415],[0.3674641000106931],102.91387449996546,103.11588109994773,1000,103.11588109994773,1000,1000,1000,1000,0,num_3,0.6605875000241213,,28,7,2026-03-05_16h00.13.672,2026A_exp2,2022.2.4,60.01817350157759,
0,0,4.9,0.0,1,0,3,3,26,,,,,103.79813889996149,104.44868169998517,104.44868169998517,104.94971299997997,315,315,104.94971299997997,104.94971299997997,104.94971299997997,104.94971299997997,104.94971299997997,104.94971299997997,104.94971299997997,104.94971299997997,104.94971299997997,105.31626879994292,105.31626879994292,105.31626879994292,105.31626879994292,105.31626879994292,105.31626879994292,105.31626879994292,105.31626879994292,105.31626879994292,0,1,[0.0012597999884746969],[0.3671639999956824],105.31626879994292,105.51641019998351,4.9,105.51641019998351,0,4.9,1,0,1000,num_1,0.6277048000483774,,28,7,2026-03-05_16h00.13.672,2026A_exp2,2022.2.4,60.01817350157759,
1,0,3.7,0.0,0,0,4,4,7,,,,,106.16731999994954,106.81769539997913,106.81769539997913,107.30225299997255,315,315,107.30225299997255,107.30225299997255,107.30225299997255,107.30225299997255,107.30225299997255,107.30225299997255,107.30225299997255,107.30225299997255,107.30225299997255,107.66861109994352,107.66861109994352,107.66861109994352,107.66861109994352,107.66861109994352,107.66861109994352,107.66861109994352,107.66861109994352,107.66861109994352,0,1,[0.0008076000376604497],[0.36760870000580326],107.66861109994352,107.86872989998665,3.7,107.86872989998665,1,3.7,1,1,1000,num_4,0.4344797000521794,,28,7,2026-03-05_16h00.13.672,2026A_exp2,2022.2.4,60.01817350157759,
1,0,3.7,0.0,0,0,5,5,10,,,,,108.31899869994959,108.97099099995103,108.97099099995103,109.47110799996881,315,315,109.47110799996881,109.47110799996881,109.47110799996881,109.47110799996881,109.47110799996881,109.47110799996881,109.47110799996881,109.47110799996881,109.47110799996881,109.83712619997095,109.83712619997095,109.83712619997095,109.83712619997095,109.83712619997095,109.83712619997095,109.83712619997095,109.83712619997095,109.83712619997095,0,1,[0.0009281000238843262],[0.36671749997185543],109.83712619997095,110.0372402999783,3.7,110.0372402999783,0,3.7,1,0,1000,num_1,0.44222710002213717,,28,7,2026-03-05_16h00.13.672,2026A_exp2,2022.2.4,60.01817350157759,
1,0,0.0,3.7,0,0,6,6,64,,,,,110.50437260000035,111.13859049999155,111.13859049999155,111.63951639999868,45,45,111.63951639999868,111.63951639999868,111.63951639999868,111.63951639999868,111.63951639999868,111.63951639999868,111.63951639999868,111.63951639999868,111.63951639999868,112.00613669998711,112.00613669998711,112.00613669998711,112.00613669998711,112.00613669998711,112.00613669998711,112.00613669998711,112.00613669998711,112.00613669998711,2,2,"[0.0006982000195421278, 0.06711150001501665]","[0.0340550999972038, 0.3674538999912329]",112.00613669998711,112.20662259997334,0.0,112.20662259997334,0,0.0,0,1,1000,num_1,0.3443344000261277,,28,7,2026-03-05_16h00.13.672,2026A_exp2,2022.2.4,60.01817350157759,
1000,1,3.7,0.0,0,0,7,7,55,,,,,112.57338249997701,113.20771729998523,113.20771729998523,113.70880599995144,45,45,113.70880599995144,113.70880599995144,113.70880599995144,113.70880599995144,113.70880599995144,113.70880599995144,113.70880599995144,113.70880599995144,113.70880599995144,114.0748885999783,114.0748885999783,114.0748885999783,114.0748885999783,114.0748885999783,114.0748885999783,114.0748885999783,114.0748885999783,114.0748885999783,2,2,"[0.0007801000028848648, 0.36730979999992996]","[0.3345325000118464, 0.3673125000204891]",114.0748885999783,114.27723479998531,1000,114.27723479998531,1000,1000,1000,1000,1,num_2,0.5301570000010543,,28,7,2026-03-05_16h00.13.672,2026A_exp2,2022.2.4,60.01817350157759,
1000,1,6.1,4.9,1,0,8,8,15,,,,,114.82560719997855,115.47639089997392,115.47639089997392,115.9773735999479,45,45,115.9773735999479,115.9773735999479,115.9773735999479,115.9773735999479,115.9773735999479,115.9773735999479,115.9773735999479,115.9773735999479,115.9773735999479,116.34398629999487,116.34398629999487,116.34398629999487,116.34398629999487,116.34398629999487,116.34398629999487,116.34398629999487,116.34398629999487,116.34398629999487,0,1,[0.0015174000291153789],[0.36680830002296716],116.34398629999487,116.54570469999453,1000,116.54570469999453,1000,1000,1000,1000,0,num_3,0.5261282999999821,,28,7,2026-03-05_16h00.13.672,2026A_exp2,2022.2.4,60.01817350157759,
1000,1,0.0,0.0,1,0,9,9,34,,,,,117.09470319998218,117.74538519995986,117.74538519995986,118.22986199997831,45,45,118.22986199997831,118.22986199997831,118.22986199997831,118.22986199997831,118.22986199997831,118.22986199997831,118.22986199997831,118.22986199997831,118.22986199997831,118.59614329994656,118.59614329994656,118.59614329994656,118.59614329994656,118.59614329994656,118.59614329994656,118.59614329994656,118.59614329994656,118.59614329994656,1,1,[0.0008027000003494322],[0.36738379998132586],118.59614329994656,118.79853309999453,1000,118.79853309999453,1000,1000,1000,1000,0,num_3,0.313155599986203,,28,7,2026-03-05_16h00.13.672,2026A_exp2,2022.2.4,60.01817350157759,
1,0,0.0,3.7,0,0,10,10,31,,,,,119.12988029996632,119.78075329994317,119.78075329994317,120.28189849999035,45,315,120.28189849999035,120.28189849999035,120.28189849999035,120.28189849999035,120.28189849999035,120.28189849999035,120.28189849999035,120.28189849999035,120.28189849999035,120.63140419998672,120.63140419998672,120.63140419998672,120.63140419998672,120.63140419998672,120.63140419998672,120.63140419998672,120.63140419998672,120.63140419998672,20,1,[0.0012277000350877643],[0.03349810000509024],120.63140419998672,120.83181019994663,0.0,120.84847759996774,0,0.0,0,1,1000,num_1,0.3597691999748349,,28,7,2026-03-05_16h00.13.672,2026A_exp2,2022.2.4,60.01817350157759,
1000,1,3.7,6.1,1,0,11,11,43,,,,,121.23195349995513,121.88286859996151,121.88286859996151,122.36727229994722,315,45,122.36727229994722,122.36727229994722,122.36727229994722,122.36727229994722,122.36727229994722,122.36727229994722,122.36727229994722,122.36727229994722,122.36727229994722,122.73369019996608,122.73369019996608,122.73369019996608,122.73369019996608,122.73369019996608,122.73369019996608,122.73369019996608,122.73369019996608,122.73369019996608,6,5,"[0.017384200007654727, 0.06692599999951199, 0.2338368000346236, 0.28388110001105815, 0.3337170000304468]","[0.0336026000441052, 0.21703510003862903, 0.26701480004703626, 0.3170657000155188, 0.3671483000507578]",122.73369019996608,122.93359649996273,1000,122.93359649996273,1000,1000,1000,1000,0,num_3,0.5856255000107922,,28,7,2026-03-05_16h00.13.672,2026A_exp2,2022.2.4,60.01817350157759,
1,0,0.0,0.0,1,0,12,12,20,,,,,123.53451989998575,124.18855009996332,124.18855009996332,124.69442489999346,315,315,124.69442489999346,124.69442489999346,124.69442489999346,124.69442489999346,124.69442489999346,124.69442489999346,124.69442489999346,124.69442489999346,124.69442489999346,125.0525027999538,125.0525027999538,125.0525027999538,125.0525027999538,125.0525027999538,125.0525027999538,125.0525027999538,125.0525027999538,125.0525027999538,0,1,[0.0029948000446893275],[0.365190300042741],125.0525027999538,125.25290759996278,0.0,125.25290759996278,1,0.0,0,0,1000,num_4,0.5621568000060506,,28,7,2026-03-05_16h00.13.672,2026A_exp2,2022.2.4,60.01817350157759,
1,0,3.7,0.0,0,0,13,13,3,,,,,125.83641239994904,126.47069279995048,126.47069279995048,126.97156949999044,315,45,126.97156949999044,126.97156949999044,126.97156949999044,126.97156949999044,126.97156949999044,126.97156949999044,126.97156949999044,126.97156949999044,126.97156949999044,127.33834779995959,127.33834779995959,127.33834779995959,127.33834779995959,127.33834779995959,127.33834779995959,127.33834779995959,127.33834779995959,127.33834779995959,0,1,[0.0012144999927841127],[0.36729429999832064],127.33834779995959,127.53834249998908,3.7,127.53834249998908,0,3.7,1,0,1000,num_1,0.7094507999718189,,28,7,2026-03-05_16h00.13.672,2026A_exp2,2022.2.4,60.01817350157759,
1,0,0.0,0.0,0,0,14,14,11,,,,,128.27231629996095,128.9231310999603,128.9231310999603,129.40732790000038,45,45,129.40732790000038,129.40732790000038,129.40732790000038,129.40732790000038,129.40732790000038,129.40732790000038,129.40732790000038,129.40732790000038,129.40732790000038,129.7738860999816,129.7738860999816,129.7738860999816,129.7738860999816,129.7738860999816,129.7738860999816,129.7738860999816,129.7738860999816,129.7738860999816,0,1,[0.0009670000290498137],[0.3675070999888703],129.7738860999816,129.97403829998802,0.0,129.97403829998802,1,0.0,0,0,1000,num_4,0.352945200051181,,28,7,2026-03-05_16h00.13.672,2026A_exp2,2022.2.4,60.01817350157759,
0,0,6.1,4.9,1,0,15,15,42,,,,,130.35783999995328,131.0086483999621,131.0086483999621,131.49311359995045,45,45,131.49311359995045,131.49311359995045,131.49311359995045,131.49311359995045,131.49311359995045,131.49311359995045,131.49311359995045,131.49311359995045,131.49311359995045,131.85938619996887,131.85938619996887,131.85938619996887,131.85938619996887,131.85938619996887,131.85938619996887,131.85938619996887,131.85938619996887,131.85938619996887,0,1,[0.0012116000289097428],[0.36721629998646677],131.85938619996887,132.05966379999882,6.1,132.05966379999882,0,6.1,1,0,1000,num_1,0.8122992000426166,,28,7,2026-03-05_16h00.13.672,2026A_exp2,2022.2.4,60.01817350157759,
1,0,4.9,3.7,1,0,16,16,71,,,,,132.8936859999667,133.54450749995885,133.54450749995885,134.0289035999449,315,315,134.0289035999449,134.0289035999449,134.0289035999449,134.0289035999449,134.0289035999449,134.0289035999449,134.0289035999449,134.0289035999449,134.0289035999449,134.39537089999067,134.39537089999067,134.39537089999067,134.39537089999067,134.39537089999067,134.39537089999067,134.39537089999067,134.39537089999067,134.39537089999067,1,2,"[0.0012086000060662627, 0.3171235999907367]","[0.300588299985975, 0.36720059998333454]",134.39537089999067,134.5956065999926,3.7,134.5956065999926,1,3.7,1,1,1000,num_4,0.5235799999791197,,28,7,2026-03-05_16h00.13.672,2026A_exp2,2022.2.4,60.01817350157759,
1,0,0.0,0.0,0,0,17,17,6,,,,,135.14589829999022,135.7966532999999,135.7966532999999,136.28118249995168,45,315,136.28118249995168,136.28118249995168,136.28118249995168,136.28118249995168,136.28118249995168,136.28118249995168,136.28118249995168,136.28118249995168,136.28118249995168,136.64761409995845,136.64761409995845,136.64761409995845,136.64761409995845,136.64761409995845,136.64761409995845,136.64761409995845,136.64761409995845,136.64761409995845,0,1,[0.0012253999593667686],[0.36716669995803386],136.64761409995845,136.8477599999751,0.0,136.8477599999751,0,0.0,0,1,1000,num_1,0.35133570001926273,,28,7,2026-03-05_16h00.13.672,2026A_exp2,2022.2.4,60.01817350157759,
1000,1,0.0,0.0,1,0,18,18,68,,,,,137.21456409996608,137.86538169998676,137.86538169998676,138.3498346999986,315,45,138.3498346999986,138.3498346999986,138.3498346999986,138.3498346999986,138.3498346999986,138.3498346999986,138.3498346999986,138.3498346999986,138.3498346999986,138.716356799996,138.716356799996,138.716356799996,138.716356799996,138.716356799996,138.716356799996,138.716356799996,138.716356799996,138.716356799996,13,1,[0.2169506999780424],[0.3671980000217445],138.716356799996,138.9181337999762,1000,138.9181337999762,1000,1000,1000,1000,0,num_3,0.5770957000204362,,28,7,2026-03-05_16h00.13.672,2026A_exp2,2022.2.4,60.01817350157759,
1000,1,3.7,0.0,1,0,19,19,19,,,,,139.51720459997887,140.15097289998084,140.15097289998084,140.65221139998175,45,45,140.65221139998175,140.65221139998175,140.65221139998175,140.65221139998175,140.65221139998175,140.65221139998175,140.65221139998175,140.65221139998175,140.65221139998175,141.01860349997878,141.01860349997878,141.01860349997878,141.01860349997878,141.01860349997878,141.01860349997878,141.01860349997878,141.01860349997878,141.01860349997878,0,1,[0.0014262000331655145],[0.3674030000111088],141.01860349997878,141.220416199998,1000,141.220416199998,1000,1000,1000,1000,0,num_3,0.531121899955906,,28,7,2026-03-05_16h00.13.672,2026A_exp2,2022.2.4,60.01817350157759,
1000,1,4.9,0.0,1,0,20,20,74,,,,,141.76921149995178,142.4200910999789,142.4200910999789,142.92116619995795,315,315,142.92116619995795,142.92116619995795,142.92116619995795,142.92116619995795,142.92116619995795,142.92116619995795,142.92116619995795,142.92116619995795,142.92116619995795,143.28756229998544,143.28756229998544,143.28756229998544,143.28756229998544,143.28756229998544,143.28756229998544,143.28756229998544,143.28756229998544,143.28756229998544,0,1,[0.0012380999978631735],[0.36735030001727864],143.28756229998544,143.48928219999652,1000,143.48928219999652,1000,1000,1000,1000,1,num_2,0.5910545999649912,,28,7,2026-03-05_16h00.13.672,2026A_exp2,2022.2.4,60.01817350157759,
1000,1,6.1,0.0,0,0,21,21,69,,,,,144.10486259998288,144.7557374999742,144.7557374999742,145.25683249998838,315,45,145.25683249998838,145.25683249998838,145.25683249998838,145.25683249998838,145.25683249998838,145.25683249998838,145.25683249998838,145.25683249998838,145.25683249998838,145.62297759996727,145.62297759996727,145.62297759996727,145.62297759996727,145.62297759996727,145.62297759996727,145.62297759996727,145.62297759996727,145.62297759996727,0,1,[0.001206600049044937],[0.36706600000616163],145.62297759996727,145.82880859996658,1000,145.82880859996658,1000,1000,1000,1000,0,num_3,0.6036331000505015,,28,7,2026-03-05_16h00.13.672,2026A_exp2,2022.2.4,60.01817350157759,
1,0,0.0,4.9,1,0,22,22,73,,,,,146.45749559998512,147.10801489994628,147.10801489994628,147.60930699994788,45,45,147.60930699994788,147.60930699994788,147.60930699994788,147.60930699994788,147.60930699994788,147.60930699994788,147.60930699994788,147.60930699994788,147.60930699994788,147.97548189997906,147.97548189997906,147.97548189997906,147.97548189997906,147.97548189997906,147.97548189997906,147.97548189997906,147.97548189997906,147.97548189997906,8,4,"[0.0007562999962829053, 0.10095130000263453, 0.1510378000093624, 0.2677430000039749]","[0.06704990001162514, 0.13443020003614947, 0.18434440001146868, 0.36797540000407025]",147.97548189997906,148.17570289998548,4.9,148.17570289998548,0,4.9,1,0,1000,num_1,0.7198225000174716,,28,7,2026-03-05_16h00.13.672,2026A_exp2,2022.2.4,60.01817350157759,
1,0,6.1,0.0,1,0,23,23,17,,,,,148.9263366999803,149.5770540999947,149.5770540999947,150.06167429999914,315,315,150.06167429999914,150.06167429999914,150.06167429999914,150.06167429999914,150.06167429999914,150.06167429999914,150.06167429999914,150.06167429999914,150.06167429999914,150.42806789994938,150.42806789994938,150.42806789994938,150.42806789994938,150.42806789994938,150.42806789994938,150.42806789994938,150.42806789994938,150.42806789994938,0,1,[0.0012267999700270593],[0.3671029999968596],150.42806789994938,150.62829649995547,0.0,150.62829649995547,1,0.0,0,0,1000,num_4,0.5716057000099681,,28,7,2026-03-05_16h00.13.672,2026A_exp2,2022.2.4,60.01817350157759,
1,0,3.7,6.1,1,0,24,24,75,,,,,151.22860659996513,151.87960639997618,151.87960639997618,152.36383349995594,45,315,152.36383349995594,152.36383349995594,152.36383349995594,152.36383349995594,152.36383349995594,152.36383349995594,152.36383349995594,152.36383349995594,152.36383349995594,152.73066529998323,152.73066529998323,152.73066529998323,152.73066529998323,152.73066529998323,152.73066529998323,152.73066529998323,152.73066529998323,152.73066529998323,13,2,"[0.18353960005333647, 0.2336053000180982]","[0.20035009999992326, 0.36688190000131726]",152.73066529998323,152.93039289995795,6.1,152.93039289995795,1,6.1,1,1,1000,num_4,0.44515869999304414,,28,7,2026-03-05_16h00.13.672,2026A_exp2,2022.2.4,60.01817350157759,
1000,1,0.0,3.7,1,0,25,25,67,,,,,153.3974462999613,154.04837969999062,154.04837969999062,154.53261549997842,315,45,154.53261549997842,154.53261549997842,154.53261549997842,154.53261549997842,154.53261549997842,154.53261549997842,154.53261549997842,154.53261549997842,154.53261549997842,154.8990198999527,154.8990198999527,154.8990198999527,154.8990198999527,154.8990198999527,154.8990198999527,154.8990198999527,154.8990198999527,154.8990198999527,0,1,[0.0012242000084370375],[0.36722809995990247],154.8990198999527,155.0991976999794,1000,155.0991976999794,1000,1000,1000,1000,0,num_3,0.6128865000209771,,28,7,2026-03-05_16h00.13.672,2026A_exp2,2022.2.4,60.01817350157759,
1000,1,6.1,0.0,0,0,26,26,21,,,,,155.73327809997136,156.38394019997213,156.38394019997213,156.86846279999008,45,315,156.86846279999008,156.86846279999008,156.86846279999008,156.86846279999008,156.86846279999008,156.86846279999008,156.86846279999008,156.86846279999008,156.86846279999008,157.23471449996578,157.23471449996578,157.23471449996578,157.23471449996578,157.23471449996578,157.23471449996578,157.23471449996578,157.23471449996578,157.23471449996578,0,1,[0.0012165000080130994],[0.3672600999707356],157.23471449996578,157.43675709998934,1000,157.43675709998934,1000,1000,1000,1000,0,num_3,0.5705159000353888,,28,7,2026-03-05_16h00.13.672,2026A_exp2,2022.2.4,60.01817350157759,
1000,1,3.7,0.0,1,0,27,27,52,,,,,158.03542639996158,158.68623929994646,158.68623929994646,159.18742619996192,45,315,159.18742619996192,159.18742619996192,159.18742619996192,159.18742619996192,159.18742619996192,159.18742619996192,159.18742619996192,159.18742619996192,159.18742619996192,159.55384539999068,159.55384539999068,159.55384539999068,159.55384539999068,159.55384539999068,159.55384539999068,159.55384539999068,159.55384539999068,159.55384539999068,0,1,[0.0012011000071652234],[0.366892000020016],159.55384539999068,159.7540632999735,1000,159.7540632999735,1000,1000,1000,1000,0,num_3,0.5575884000281803,,28,7,2026-03-05_16h00.13.672,2026A_exp2,2022.2.4,60.01817350157759,
1,0,0.0,0.0,1,0,28,28,58,,,,,160.3377953999443,160.98866279999493,160.98866279999493,161.48974059999455,45,45,161.48974059999455,161.48974059999455,161.48974059999455,161.48974059999455,161.48974059999455,161.48974059999455,161.48974059999455,161.48974059999455,161.48974059999455,161.83943329995964,161.83943329995964,161.83943329995964,161.83943329995964,161.83943329995964,161.83943329995964,161.83943329995964,161.83943329995964,161.83943329995964,0,1,[0.0012003000010736287],[0.35053990001324564],161.83943329995964,162.0395400999696,0.0,162.0395400999696,0,0.0,0,1,1000,num_1,0.5604119999916293,,28,7,2026-03-05_16h00.13.672,2026A_exp2,2022.2.4,60.01817350157759,
1,0,4.9,6.1,0,0,29,29,29,,,,,162.62347449996741,163.27418199996464,163.27418199996464,163.75849019997986,45,45,163.75849019997986,163.75849019997986,163.75849019997986,163.75849019997986,163.75849019997986,163.75849019997986,163.75849019997986,163.75849019997986,163.75849019997986,164.12504909996642,164.12504909996642,164.12504909996642,164.12504909996642,164.12504909996642,164.12504909996642,164.12504909996642,164.12504909996642,164.12504909996642,23,0,,,164.12504909996642,164.32537389994832,4.9,164.32537389994832,1,4.9,1,1,1000,num_4,0.5382476999657229,,28,7,2026-03-05_16h00.13.672,2026A_exp2,2022.2.4,60.01817350157759,
1000,1,3.7,0.0,1,0,30,30,38,,,,,164.89235809998354,165.54314409999643,165.54314409999643,166.02744909998728,315,45,166.02744909998728,166.02744909998728,166.02744909998728,166.02744909998728,166.02744909998728,166.02744909998728,166.02744909998728,166.02744909998728,166.02744909998728,166.3937834999524,166.3937834999524,166.3937834999524,166.3937834999524,166.3937834999524,166.3937834999524,166.3937834999524,166.3937834999524,166.3937834999524,23,0,,,166.3937834999524,166.59619279997423,1000,166.59619279997423,1000,1000,1000,1000,0,num_3,0.5958188000367954,,28,7,2026-03-05_16h00.13.672,2026A_exp2,2022.2.4,60.01817350157759,
1,0,0.0,0.0,1,0,31,31,4,,,,,167.2112942999811,167.8621032999945,167.8621032999945,168.36327279999387,45,315,168.36327279999387,168.36327279999387,168.36327279999387,168.36327279999387,168.36327279999387,168.36327279999387,168.36327279999387,168.36327279999387,168.36327279999387,168.7296935999766,168.7296935999766,168.7296935999766,168.7296935999766,168.7296935999766,168.7296935999766,168.7296935999766,168.7296935999766,168.7296935999766,21,1,[0.1836506999679841],[0.20036129996879026],168.7296935999766,168.9298372999765,0.0,168.9298372999765,0,0.0,0,1,1000,num_1,0.4853652000310831,,28,7,2026-03-05_16h00.13.672,2026A_exp2,2022.2.4,60.01817350157759,
1000,1,4.9,0.0,0,0,32,32,45,,,,,169.44704279996222,170.0976978999679,170.0976978999679,170.58168419997673,45,45,170.58168419997673,170.58168419997673,170.58168419997673,170.58168419997673,170.58168419997673,170.58168419997673,170.58168419997673,170.58168419997673,170.58168419997673,170.94853629998397,170.94853629998397,170.94853629998397,170.94853629998397,170.94853629998397,170.94853629998397,170.94853629998397,170.94853629998397,170.94853629998397,0,1,[0.0012030000216327608],[0.36713139998028055],170.94853629998397,171.15020369994454,1000,171.15020369994454,1000,1000,1000,1000,0,num_3,0.6263397999573499,,28,7,2026-03-05_16h00.13.672,2026A_exp2,2022.2.4,60.01817350157759,
1000,1,0.0,0.0,0,0,33,33,79,,,,,171.79924009996466,172.45010959997308,172.45010959997308,172.95114309998462,45,315,172.95114309998462,172.95114309998462,172.95114309998462,172.95114309998462,172.95114309998462,172.95114309998462,172.95114309998462,172.95114309998462,172.95114309998462,173.31763059995137,173.31763059995137,173.31763059995137,173.31763059995137,173.31763059995137,173.31763059995137,173.31763059995137,173.31763059995137,173.31763059995137,4,3,"[0.0012279999791644514, 0.2838138000224717, 0.3507262999773957]","[0.2672080000047572, 0.31715919997077435, 0.3673071999801323]",173.31763059995137,173.5194137999788,1000,173.5194137999788,1000,1000,1000,1000,0,num_3,1.3442840999923646,,28,7,2026-03-05_16h00.13.672,2026A_exp2,2022.2.4,60.01817350157759,
1,0,6.1,6.1,0,0,34,34,89,,,,,174.88567929994315,175.5366350999684,175.5366350999684,176.0374968999531,315,45,176.0374968999531,176.0374968999531,176.0374968999531,176.0374968999531,176.0374968999531,176.0374968999531,176.0374968999531,176.0374968999531,176.0374968999531,176.40398839995032,176.40398839995032,176.40398839995032,176.40398839995032,176.40398839995032,176.40398839995032,176.40398839995032,176.40398839995032,176.40398839995032,0,1,[0.0012146999943070114],[0.36700770002789795],176.40398839995032,176.60411859996384,6.1,176.60411859996384,0,6.1,1,0,1000,num_1,0.788147300016135,,28,7,2026-03-05_16h00.13.672,2026A_exp2,2022.2.4,60.01817350157759,
1000,1,0.0,3.7,1,0,35,35,82,,,,,177.4214493999607,178.07234849996166,178.07234849996166,178.55683759995736,45,315,178.55683759995736,178.55683759995736,178.55683759995736,178.55683759995736,178.55683759995736,178.55683759995736,178.55683759995736,178.55683759995736,178.55683759995736,178.92312609998044,178.92312609998044,178.92312609998044,178.92312609998044,178.92312609998044,178.92312609998044,178.92312609998044,178.92312609998044,178.92312609998044,16,1,[0.0012128999806009233],[0.11693670001113787],178.92312609998044,179.12513079994824,1000,179.12513079994824,1000,1000,1000,1000,0,num_3,0.7866437999764457,,28,7,2026-03-05_16h00.13.672,2026A_exp2,2022.2.4,60.01817350157759,
1,0,3.7,3.7,0,0,36,36,8,,,,,179.94075049995445,180.59773769997992,180.59773769997992,181.09253699996043,315,45,181.09253699996043,181.09253699996043,181.09253699996043,181.09253699996043,181.09253699996043,181.09253699996043,181.09253699996043,181.09253699996043,181.09253699996043,181.45898839994334,181.45898839994334,181.45898839994334,181.45898839994334,181.45898839994334,181.45898839994334,181.45898839994334,181.45898839994334,181.45898839994334,18,2,"[0.06695099995704368, 0.2671206999802962]","[0.10039239999605343, 0.3171066999784671]",181.45898839994334,181.65911759994924,3.7,181.65911759994924,0,3.7,1,0,1000,num_1,0.8685278000193648,,28,7,2026-03-05_16h00.13.672,2026A_exp2,2022.2.4,60.01817350157759,
1000,1,0.0,0.0,1,0,37,37,44,,,,,182.5433073999593,183.19417169998633,183.19417169998633,183.67858509998769,45,315,183.67858509998769,183.67858509998769,183.67858509998769,183.67858509998769,183.67858509998769,183.67858509998769,183.67858509998769,183.67858509998769,183.67858509998769,184.0449844999821,184.0449844999821,184.0449844999821,184.0449844999821,184.0449844999821,184.0449844999821,184.0449844999821,184.0449844999821,184.0449844999821,0,1,[0.0009545999928377569],[0.36741730000358075],184.0449844999821,184.24708529998315,1000,184.24708529998315,1000,1000,1000,1000,0,num_3,0.5933600999996997,,28,7,2026-03-05_16h00.13.672,2026A_exp2,2022.2.4,60.01817350157759,
1,0,4.9,4.9,0,0,38,38,28,,,,,184.86228189995745,185.5130684999749,185.5130684999749,186.0139900999493,45,315,186.0139900999493,186.0139900999493,186.0139900999493,186.0139900999493,186.0139900999493,186.0139900999493,186.0139900999493,186.0139900999493,186.0139900999493,186.3806844999781,186.3806844999781,186.3806844999781,186.3806844999781,186.3806844999781,186.3806844999781,186.3806844999781,186.3806844999781,186.3806844999781,23,0,,,186.3806844999781,186.59457699995255,4.9,186.59457699995255,0,4.9,1,0,1000,num_1,0.7573684999952093,,28,7,2026-03-05_16h00.13.672,2026A_exp2,2022.2.4,60.01817350157759,
1,0,6.1,3.7,1,0,39,39,83,,,,,187.38141919998452,188.03230549994623,188.03230549994623,188.51676109997788,315,315,188.51676109997788,188.51676109997788,188.51676109997788,188.51676109997788,188.51676109997788,188.51676109997788,188.51676109997788,188.51676109997788,188.51676109997788,188.88315849995706,188.88315849995706,188.88315849995706,188.88315849995706,188.88315849995706,188.88315849995706,188.88315849995706,188.88315849995706,188.88315849995706,23,0,,,188.88315849995706,189.08322149998276,3.7,189.08322149998276,1,3.7,1,1,1000,num_4,1.0928394000511616,,28,7,2026-03-05_16h00.13.672,2026A_exp2,2022.2.4,60.01817350157759,
1000,1,4.9,0.0,1,0,40,40,56,,,,,190.2008807999664,190.8517872999655,190.8517872999655,191.33581139997113,45,315,191.33581139997113,191.33581139997113,191.33581139997113,191.33581139997113,191.33581139997113,191.33581139997113,191.33581139997113,191.33581139997113,191.33581139997113,191.70263639994664,191.70263639994664,191.70263639994664,191.70263639994664,191.70263639994664,191.70263639994664,191.70263639994664,191.70263639994664,191.70263639994664,23,0,,,191.70263639994664,191.90475419996073,1000,191.90475419996073,1000,1000,1000,1000,1,num_2,1.198842899990268,,28,7,2026-03-05_16h00.13.672,2026A_exp2,2022.2.4,60.01817350157759,
1,0,0.0,0.0,0,0,41,41,39,,,,,193.12074379995465,193.77135669998825,193.77135669998825,194.2725153999636,45,315,194.2725153999636,194.2725153999636,194.2725153999636,194.2725153999636,194.2725153999636,194.2725153999636,194.2725153999636,194.2725153999636,194.2725153999636,194.63874339999165,194.63874339999165,194.63874339999165,194.63874339999165,194.63874339999165,194.63874339999165,194.63874339999165,194.63874339999165,194.63874339999165,23,0,,,194.63874339999165,194.839078399993,0.0,194.839078399993,1,0.0,0,0,1000,num_4,1.1121566999936476,,28,7,2026-03-05_16h00.13.672,2026A_exp2,2022.2.4,60.01817350157759,
1000,1,0.0,4.9,0,0,42,42,23,,,,,195.9733930999646,196.62418019998586,196.62418019998586,197.10840379999718,45,45,197.10840379999718,197.10840379999718,197.10840379999718,197.10840379999718,197.10840379999718,197.10840379999718,197.10840379999718,197.10840379999718,197.10840379999718,197.47501069999998,197.47501069999998,197.47501069999998,197.47501069999998,197.47501069999998,197.47501069999998,197.47501069999998,197.47501069999998,197.47501069999998,23,0,,,197.47501069999998,197.67715939995833,1000,197.67715939995833,1000,1000,1000,1000,0,num_3,0.5624613999971189,,28,7,2026-03-05_16h00.13.672,2026A_exp2,2022.2.4,60.01817350157759,
1000,1,4.9,0.0,1,0,43,43,84,,,,,198.25913449999643,198.90982760000043,198.90982760000043,199.41104099998483,315,315,199.41104099998483,199.41104099998483,199.41104099998483,199.41104099998483,199.41104099998483,199.41104099998483,199.41104099998483,199.41104099998483,199.41104099998483,199.7773700999678,199.7773700999678,199.7773700999678,199.7773700999678,199.7773700999678,199.7773700999678,199.7773700999678,199.7773700999678,199.7773700999678,23,0,,,199.7773700999678,199.97945779998554,1000,199.97945779998554,1000,1000,1000,1000,0,num_3,0.507688700046856,,28,7,2026-03-05_16h00.13.672,2026A_exp2,2022.2.4,60.01817350157759,
1000,1,0.0,3.7,1,0,44,44,1,,,,,200.5115127999452,201.16200629994273,201.16200629994273,201.6632805999834,315,315,201.6632805999834,201.6632805999834,201.6632805999834,201.6632805999834,201.6632805999834,201.6632805999834,201.6632805999834,201.6632805999834,201.6632805999834,202.02964839997003,202.02964839997003,202.02964839997003,202.02964839997003,202.02964839997003,202.02964839997003,202.02964839997003,202.02964839997003,202.02964839997003,19,2,"[0.06726089998846874, 0.23418669996317476]","[0.08363840001402423, 0.28401110001141205]",202.02964839997003,202.23143139999593,1000,202.23143139999593,1000,1000,1000,1000,0,num_3,4.040500500006601,,28,7,2026-03-05_16h00.13.672,2026A_exp2,2022.2.4,60.01817350157759,
1000,1,0.0,0.0,1,0,45,45,88,,,,,206.30069409997668,206.9512711999705,206.9512711999705,207.45237669994822,315,45,207.45237669994822,207.45237669994822,207.45237669994822,207.45237669994822,207.45237669994822,207.45237669994822,207.45237669994822,207.45237669994822,207.45237669994822,207.80164959997637,207.80164959997637,207.80164959997637,207.80164959997637,207.80164959997637,207.80164959997637,207.80164959997637,207.80164959997637,207.80164959997637,0,1,[0.0013212999911047518],[0.35067940002772957],207.80164959997637,208.0020102999988,1000,208.0189340999932,1000,1000,1000,1000,1,num_2,0.5966065000393428,,28,7,2026-03-05_16h00.13.672,2026A_exp2,2022.2.4,60.01817350157759,
1,0,3.7,0.0,0,0,46,46,9,,,,,208.6363471999648,209.28680389997317,209.28680389997317,209.7879390999442,45,45,209.7879390999442,209.7879390999442,209.7879390999442,209.7879390999442,209.7879390999442,209.7879390999442,209.7879390999442,209.7879390999442,209.7879390999442,210.15442819998134,210.15442819998134,210.15442819998134,210.15442819998134,210.15442819998134,210.15442819998134,210.15442819998134,210.15442819998134,210.15442819998134,0,1,[0.0012745000422000885],[0.3671087000402622],210.15442819998134,210.3545786999748,3.7,210.3545786999748,1,3.7,1,1,1000,num_4,0.5972372000105679,,28,7,2026-03-05_16h00.13.672,2026A_exp2,2022.2.4,60.01817350157759,
1000,1,6.1,6.1,0,0,47,47,87,,,,,210.97195319994353,211.62255869997898,211.62255869997898,212.1224742999766,315,315,212.1224742999766,212.1224742999766,212.1224742999766,212.1224742999766,212.1224742999766,212.1224742999766,212.1224742999766,212.1224742999766,212.1224742999766,212.4732874999754,212.4732874999754,212.4732874999754,212.4732874999754,212.4732874999754,212.4732874999754,212.4732874999754,212.4732874999754,212.4732874999754,23,0,,,212.4732874999754,212.67674089997308,1000,212.67674089997308,1000,1000,1000,1000,0,num_3,0.49923700001090765,,28,7,2026-03-05_16h00.13.672,2026A_exp2,2022.2.4,60.01817350157759,
1000,1,4.9,3.7,0,0,48,48,40,,,,,213.19090059999144,213.84145489998627,213.84145489998627,214.34244319994468,45,315,214.34244319994468,214.34244319994468,214.34244319994468,214.34244319994468,214.34244319994468,214.34244319994468,214.34244319994468,214.34244319994468,214.34244319994468,214.70877359999577,214.70877359999577,214.70877359999577,214.70877359999577,214.70877359999577,214.70877359999577,214.70877359999577,214.70877359999577,214.70877359999577,18,3,"[0.033555899979546666, 0.31718349998118356, 0.36716909997630864]","[0.08348849997855723, 0.3338380999630317, 0.36717380001209676]",214.70877359999577,214.91068829997675,1000,214.91068829997675,1000,1000,1000,1000,1,num_2,0.561767500010319,,28,7,2026-03-05_16h00.13.672,2026A_exp2,2022.2.4,60.01817350157759,
0,0,3.7,3.7,1,0,49,49,62,,,,,215.49318419996416,216.14349669998046,216.14349669998046,216.64486089994898,315,45,216.64486089994898,216.64486089994898,216.64486089994898,216.64486089994898,216.64486089994898,216.64486089994898,216.64486089994898,216.64486089994898,216.64486089994898,217.01129689998925,217.01129689998925,217.01129689998925,217.01129689998925,217.01129689998925,217.01129689998925,217.01129689998925,217.01129689998925,217.01129689998925,0,1,[0.0012302999966777861],[0.3672064999700524],217.01129689998925,217.21151979995193,3.7,217.21151979995193,0,3.7,1,0,1000,num_1,0.9163451000349596,,28,7,2026-03-05_16h00.13.672,2026A_exp2,2022.2.4,60.01817350157759,
0,0,0.0,0.0,1,0,50,50,14,,,,,218.14558179996675,218.77966079994803,218.77966079994803,219.2808628999628,45,315,219.2808628999628,219.2808628999628,219.2808628999628,219.2808628999628,219.2808628999628,219.2808628999628,219.2808628999628,219.2808628999628,219.2808628999628,219.64709019998554,219.64709019998554,219.64709019998554,219.64709019998554,219.64709019998554,219.64709019998554,219.64709019998554,219.64709019998554,219.64709019998554,6,1,[0.0012417000252753496],[0.28385479998541996],219.64709019998554,219.8472054999438,0.0,219.8472054999438,0,0.0,0,1,1000,num_1,0.7607804999570362,,28,7,2026-03-05_16h00.13.672,2026A_exp2,2022.2.4,60.01817350157759,
1000,1,0.0,4.9,1,0,51,51,57,,,,,220.63159239996457,221.28216289996635,221.28216289996635,221.76653709996026,315,315,221.76653709996026,221.76653709996026,221.76653709996026,221.76653709996026,221.76653709996026,221.76653709996026,221.76653709996026,221.76653709996026,221.76653709996026,222.13291479996406,222.13291479996406,222.13291479996406,222.13291479996406,222.13291479996406,222.13291479996406,222.13291479996406,222.13291479996406,222.13291479996406,23,0,,,222.13291479996406,222.33487629995216,1000,222.33487629995216,1000,1000,1000,1000,0,num_3,0.5842094999970868,,28,7,2026-03-05_16h00.13.672,2026A_exp2,2022.2.4,60.01817350157759,
1,0,0.0,6.1,1,0,52,52,5,,,,,222.95064269995783,223.60103809996508,223.60103809996508,224.10234990000026,45,45,224.10234990000026,224.10234990000026,224.10234990000026,224.10234990000026,224.10234990000026,224.10234990000026,224.10234990000026,224.10234990000026,224.10234990000026,224.46882339997683,224.46882339997683,224.46882339997683,224.46882339997683,224.46882339997683,224.46882339997683,224.46882339997683,224.46882339997683,224.46882339997683,23,0,,,224.46882339997683,224.6689782999456,6.1,224.6689782999456,1,6.1,1,1,1000,num_4,1.1309220000403002,,28,7,2026-03-05_16h00.13.672,2026A_exp2,2022.2.4,60.01817350157759,
0,0,4.9,6.1,1,0,53,53,70,,,,,225.81994479999412,226.45401329995366,226.45401329995366,226.95510379999178,315,315,226.95510379999178,226.95510379999178,226.95510379999178,226.95510379999178,226.95510379999178,226.95510379999178,226.95510379999178,226.95510379999178,226.95510379999178,227.32142299995758,227.32142299995758,227.32142299995758,227.32142299995758,227.32142299995758,227.32142299995758,227.32142299995758,227.32142299995758,227.32142299995758,23,0,,,227.32142299995758,227.52173619996756,4.9,227.52173619996756,0,4.9,1,0,1000,num_1,1.0856622999999672,,28,7,2026-03-05_16h00.13.672,2026A_exp2,2022.2.4,60.01817350157759,
1,0,6.1,3.7,1,0,54,54,16,,,,,228.639641799964,229.29003639996517,229.29003639996517,229.77453729999252,315,315,229.77453729999252,229.77453729999252,229.77453729999252,229.77453729999252,229.77453729999252,229.77453729999252,229.77453729999252,229.77453729999252,229.77453729999252,230.1410655999789,230.1410655999789,230.1410655999789,230.1410655999789,230.1410655999789,230.1410655999789,230.1410655999789,230.1410655999789,230.1410655999789,23,0,,,230.1410655999789,230.34132069995394,3.7,230.34132069995394,1,3.7,1,1,1000,num_4,0.8905387000413612,,28,7,2026-03-05_16h00.13.672,2026A_exp2,2022.2.4,60.01817350157759,
1000,1,0.0,0.0,1,0,55,55,35,,,,,231.25888339994708,231.90943689999403,231.90943689999403,232.41046559996903,45,315,232.41046559996903,232.41046559996903,232.41046559996903,232.41046559996903,232.41046559996903,232.41046559996903,232.41046559996903,232.41046559996903,232.41046559996903,232.76036089996342,232.76036089996342,232.76036089996342,232.76036089996342,232.76036089996342,232.76036089996342,232.76036089996342,232.76036089996342,232.76036089996342,22,0,,,232.76036089996342,232.9622427999857,1000,232.9622427999857,1000,1000,1000,1000,0,num_3,0.6138855000026524,,28,7,2026-03-05_16h00.13.672,2026A_exp2,2022.2.4,60.01817350157759,
0,0,0.0,4.9,1,0,56,56,0,,,,,233.59463189996313,234.24533209996298,234.24533209996298,234.746015599987,315,315,234.746015599987,234.746015599987,234.746015599987,234.746015599987,234.746015599987,234.746015599987,234.746015599987,234.746015599987,234.746015599987,235.11267979996046,235.11267979996046,235.11267979996046,235.11267979996046,235.11267979996046,235.11267979996046,235.11267979996046,235.11267979996046,235.11267979996046,23,0,,,235.11267979996046,235.31278599996585,0.0,235.31278599996585,0,0.0,0,1,1000,num_1,0.82348959997762,,28,7,2026-03-05_16h00.13.672,2026A_exp2,2022.2.4,60.01817350157759,
0,0,6.1,6.1,1,0,57,57,48,,,,,236.16357849998167,236.81399599998258,236.81399599998258,237.29882529994939,45,315,237.29882529994939,237.29882529994939,237.29882529994939,237.29882529994939,237.29882529994939,237.29882529994939,237.29882529994939,237.29882529994939,237.29882529994939,237.66524629999185,237.66524629999185,237.66524629999185,237.66524629999185,237.66524629999185,237.66524629999185,237.66524629999185,237.66524629999185,237.66524629999185,23,0,,,237.66524629999185,237.86537439998938,6.1,237.86537439998938,0,6.1,1,0,1000,num_1,0.749714900040999,,28,7,2026-03-05_16h00.13.672,2026A_exp2,2022.2.4,60.01817350157759,
1,0,0.0,0.0,1,0,58,58,59,,,,,238.6329076999682,239.28347639995627,239.28347639995627,239.7678649999434,315,315,239.7678649999434,239.7678649999434,239.7678649999434,239.7678649999434,239.7678649999434,239.7678649999434,239.7678649999434,239.7678649999434,239.7678649999434,240.1343935999903,240.1343935999903,240.1343935999903,240.1343935999903,240.1343935999903,240.1343935999903,240.1343935999903,240.1343935999903,240.1343935999903,23,0,,,240.1343935999903,240.33464379998622,0.0,240.33464379998622,1,0.0,0,0,1000,num_4,0.49639500002376735,,28,7,2026-03-05_16h00.13.672,2026A_exp2,2022.2.4,60.01817350157759,
1000,1,6.1,4.9,1,0,59,59,86,,,,,240.85177159996238,241.50245819997508,241.50245819997508,241.98678979999386,45,315,241.98678979999386,241.98678979999386,241.98678979999386,241.98678979999386,241.98678979999386,241.98678979999386,241.98678979999386,241.98678979999386,241.98678979999386,242.35314839996863,242.35314839996863,242.35314839996863,242.35314839996863,242.35314839996863,242.35314839996863,242.35314839996863,242.35314839996863,242.35314839996863,23,0,,,242.35314839996863,242.555674299947,1000,242.555674299947,1000,1000,1000,1000,0,num_3,0.6769791999831796,,28,7,2026-03-05_16h00.13.672,2026A_exp2,2022.2.4,60.01817350157759,
1,0,4.9,6.1,1,0,60,60,36,,,,,243.25426319998223,243.9047361999983,243.9047361999983,244.4060481999768,45,315,244.4060481999768,244.4060481999768,244.4060481999768,244.4060481999768,244.4060481999768,244.4060481999768,244.4060481999768,244.4060481999768,244.4060481999768,244.77235429995926,244.77235429995926,244.77235429995926,244.77235429995926,244.77235429995926,244.77235429995926,244.77235429995926,244.77235429995926,244.77235429995926,23,0,,,244.77235429995926,244.97258179995697,6.1,244.97258179995697,1,6.1,1,1,1000,num_4,0.49899439996806905,,28,7,2026-03-05_16h00.13.672,2026A_exp2,2022.2.4,60.01817350157759,
1,0,0.0,0.0,0,0,61,61,22,,,,,245.48983889998635,246.14002519997302,246.14002519997302,246.6247660999652,315,315,246.6247660999652,246.6247660999652,246.6247660999652,246.6247660999652,246.6247660999652,246.6247660999652,246.6247660999652,246.6247660999652,246.6247660999652,246.99123159999726,246.99123159999726,246.99123159999726,246.99123159999726,246.99123159999726,246.99123159999726,246.99123159999726,246.99123159999726,246.99123159999726,23,0,,,246.99123159999726,247.19125289999647,0.0,247.19125289999647,0,0.0,0,1,1000,num_1,0.6800580000272021,,28,7,2026-03-05_16h00.13.672,2026A_exp2,2022.2.4,60.01817350157759,
1,0,4.9,4.9,1,0,62,62,18,,,,,247.89212549995864,248.54269519995432,248.54269519995432,249.02731989999302,45,315,249.02731989999302,249.02731989999302,249.02731989999302,249.02731989999302,249.02731989999302,249.02731989999302,249.02731989999302,249.02731989999302,249.02731989999302,249.39365859999089,249.39365859999089,249.39365859999089,249.39365859999089,249.39365859999089,249.39365859999089,249.39365859999089,249.39365859999089,249.39365859999089,23,0,,,249.39365859999089,249.5937248999835,4.9,249.5937248999835,1,4.9,1,1,1000,num_4,0.39765439997427166,,28,7,2026-03-05_16h00.13.672,2026A_exp2,2022.2.4,60.01817350157759,
1000,1,4.9,0.0,0,0,63,63,12,,,,,250.01095259998692,250.6614627999952,250.6614627999952,251.14604029996553,45,315,251.14604029996553,251.14604029996553,251.14604029996553,251.14604029996553,251.14604029996553,251.14604029996553,251.14604029996553,251.14604029996553,251.14604029996553,251.5124614999513,251.5124614999513,251.5124614999513,251.5124614999513,251.5124614999513,251.5124614999513,251.5124614999513,251.5124614999513,251.5124614999513,23,0,,,251.5124614999513,251.71495709999,1000,251.71495709999,1000,1000,1000,1000,0,num_3,0.6214990000007674,,28,7,2026-03-05_16h00.13.672,2026A_exp2,2022.2.4,60.01817350157759,
1000,1,0.0,0.0,0,0,64,64,13,,,,,252.3634170999867,253.01394319999963,253.01394319999963,253.51501679996727,45,315,253.51501679996727,253.51501679996727,253.51501679996727,253.51501679996727,253.51501679996727,253.51501679996727,253.51501679996727,253.51501679996727,253.51501679996727,253.88140719995135,253.88140719995135,253.88140719995135,253.88140719995135,253.88140719995135,253.88140719995135,253.88140719995135,253.88140719995135,253.88140719995135,23,0,,,253.88140719995135,254.08376889995998,1000,254.08376889995998,1000,1000,1000,1000,0,num_3,0.5245219000498764,,28,7,2026-03-05_16h00.13.672,2026A_exp2,2022.2.4,60.01817350157759,
1,0,6.1,0.0,0,0,65,65,77,,,,,254.63227239996195,255.28283679997548,255.28283679997548,255.78390260000015,315,315,255.78390260000015,255.78390260000015,255.78390260000015,255.78390260000015,255.78390260000015,255.78390260000015,255.78390260000015,255.78390260000015,255.78390260000015,256.1502389999805,256.1502389999805,256.1502389999805,256.1502389999805,256.1502389999805,256.1502389999805,256.1502389999805,256.1502389999805,256.1502389999805,23,0,,,256.1502389999805,256.35068369994406,6.1,256.35068369994406,1,6.1,1,1,1000,num_4,0.513067800027784,,28,7,2026-03-05_16h00.13.672,2026A_exp2,2022.2.4,60.01817350157759,
1,0,0.0,3.7,0,0,66,66,76,,,,,256.88442219997523,257.53503679996356,257.53503679996356,258.0197674999945,45,45,258.0197674999945,258.0197674999945,258.0197674999945,258.0197674999945,258.0197674999945,258.0197674999945,258.0197674999945,258.0197674999945,258.0197674999945,258.3858346999623,258.3858346999623,258.3858346999623,258.3858346999623,258.3858346999623,258.3858346999623,258.3858346999623,258.3858346999623,258.3858346999623,23,0,,,258.3858346999623,258.5862280999427,0.0,258.5862280999427,1,0.0,0,0,1000,num_4,0.42984850000357255,,28,7,2026-03-05_16h00.13.672,2026A_exp2,2022.2.4,60.01817350157759,
1,0,0.0,0.0,0,0,67,67,32,,,,,259.0366614999948,259.6704587999848,259.6704587999848,260.1715922000003,315,315,260.1715922000003,260.1715922000003,260.1715922000003,260.1715922000003,260.1715922000003,260.1715922000003,260.1715922000003,260.1715922000003,260.1715922000003,260.53812789998483,260.53812789998483,260.53812789998483,260.53812789998483,260.53812789998483,260.53812789998483,260.53812789998483,260.53812789998483,260.53812789998483,23,0,,,260.53812789998483,260.75195939996047,0.0,260.75195939996047,1,0.0,0,0,1000,num_4,0.2953643999644555,,28,7,2026-03-05_16h00.13.672,2026A_exp2,2022.2.4,60.01817350157759,
0,0,0.0,6.1,1,0,68,68,46,,,,,261.07215859997086,261.72276939998847,261.72276939998847,262.2069062999799,315,315,262.2069062999799,262.2069062999799,262.2069062999799,262.2069062999799,262.2069062999799,262.2069062999799,262.2069062999799,262.2069062999799,262.2069062999799,262.57335699995747,262.57335699995747,262.57335699995747,262.57335699995747,262.57335699995747,262.57335699995747,262.57335699995747,262.57335699995747,262.57335699995747,23,0,,,262.57335699995747,262.773572599981,0.0,262.773572599981,1,0.0,0,0,1000,num_4,0.3137733999756165,,28,7,2026-03-05_16h00.13.672,2026A_exp2,2022.2.4,60.01817350157759,
1,0,3.7,3.7,0,0,69,69,60,,,,,263.1073258999968,263.7580158999772,263.7580158999772,264.24236039997777,315,315,264.24236039997777,264.24236039997777,264.24236039997777,264.24236039997777,264.24236039997777,264.24236039997777,264.24236039997777,264.24236039997777,264.24236039997777,264.6087806999567,264.6087806999567,264.6087806999567,264.6087806999567,264.6087806999567,264.6087806999567,264.6087806999567,264.6087806999567,264.6087806999567,23,0,,,264.6087806999567,264.8090161999571,3.7,264.8090161999571,0,3.7,1,0,1000,num_1,0.5266730000148527,,28,7,2026-03-05_16h00.13.672,2026A_exp2,2022.2.4,60.01817350157759,
1000,1,0.0,0.0,0,0,70,70,24,,,,,265.3595035999897,266.01026609999826,266.01026609999826,266.49466229998507,45,315,266.49466229998507,266.49466229998507,266.49466229998507,266.49466229998507,266.49466229998507,266.49466229998507,266.49466229998507,266.49466229998507,266.49466229998507,266.8610866999952,266.8610866999952,266.8610866999952,266.8610866999952,266.8610866999952,266.8610866999952,266.8610866999952,266.8610866999952,266.8610866999952,17,4,"[0.06706919998396188, 0.10032319999299943, 0.1839304000022821, 0.2839017999940552]","[0.08389750000787899, 0.11711619998095557, 0.23390140000265092, 0.3006279999972321]",266.8610866999952,267.06315369997174,1000,267.06315369997174,1000,1000,1000,1000,1,num_2,0.8489788000006229,,28,7,2026-03-05_16h00.13.672,2026A_exp2,2022.2.4,60.01817350157759,
1000,1,3.7,0.0,1,0,71,71,78,,,,,267.9290155999479,268.5628142999485,268.5628142999485,269.0638409999665,315,45,269.0638409999665,269.0638409999665,269.0638409999665,269.0638409999665,269.0638409999665,269.0638409999665,269.0638409999665,269.0638409999665,269.0638409999665,269.4302931999555,269.4302931999555,269.4302931999555,269.4302931999555,269.4302931999555,269.4302931999555,269.4302931999555,269.4302931999555,269.4302931999555,23,0,,,269.4302931999555,269.6323601999902,1000,269.6323601999902,1000,1000,1000,1000,1,num_2,0.9989240000140853,,28,7,2026-03-05_16h00.13.672,2026A_exp2,2022.2.4,60.01817350157759,
1,0,4.9,0.0,0,0,72,72,47,,,,,270.64830179995624,271.2987581999623,271.2987581999623,271.8000430999673,315,315,271.8000430999673,271.8000430999673,271.8000430999673,271.8000430999673,271.8000430999673,271.8000430999673,271.8000430999673,271.8000430999673,271.8000430999673,272.1496552999597,272.1496552999597,272.1496552999597,272.1496552999597,272.1496552999597,272.1496552999597,272.1496552999597,272.1496552999597,272.1496552999597,22,0,,,272.1496552999597,272.34988269995665,4.9,272.34988269995665,0,4.9,1,0,1000,num_1,4.649289100023452,,28,7,2026-03-05_16h00.13.672,2026A_exp2,2022.2.4,60.01817350157759,
1000,1,6.1,6.1,1,0,73,73,53,,,,,277.0212261999841,277.6718801999814,277.6718801999814,278.1562517999555,45,315,278.1562517999555,278.1562517999555,278.1562517999555,278.1562517999555,278.1562517999555,278.1562517999555,278.1562517999555,278.1562517999555,278.1562517999555,278.52272739994805,278.52272739994805,278.52272739994805,278.52272739994805,278.52272739994805,278.52272739994805,278.52272739994805,278.52272739994805,278.52272739994805,23,0,,,278.52272739994805,278.72463429998606,1000,278.72463429998606,1000,1000,1000,1000,0,num_3,0.6031203999882564,,28,7,2026-03-05_16h00.13.672,2026A_exp2,2022.2.4,60.01817350157759,
0,0,0.0,4.9,0,0,74,74,65,,,,,279.35702329996275,280.00763979996555,280.00763979996555,280.5087203999865,45,315,280.5087203999865,280.5087203999865,280.5087203999865,280.5087203999865,280.5087203999865,280.5087203999865,280.5087203999865,280.5087203999865,280.5087203999865,280.87506120000035,280.87506120000035,280.87506120000035,280.87506120000035,280.87506120000035,280.87506120000035,280.87506120000035,280.87506120000035,280.87506120000035,23,0,,,280.87506120000035,281.07531949999975,4.9,281.07531949999975,1,4.9,1,1,1000,num_4,1.1241650999872945,,28,7,2026-03-05_16h00.13.672,2026A_exp2,2022.2.4,60.01817350157759,
1000,1,0.0,3.7,0,0,75,75,50,,,,,282.22648989997106,282.87699929997325,282.87699929997325,283.3614817999769,45,45,283.3614817999769,283.3614817999769,283.3614817999769,283.3614817999769,283.3614817999769,283.3614817999769,283.3614817999769,283.3614817999769,283.3614817999769,283.72798379999585,283.72798379999585,283.72798379999585,283.72798379999585,283.72798379999585,283.72798379999585,283.72798379999585,283.72798379999585,283.72798379999585,13,2,"[0.017409199965186417, 0.1170002999715507]","[0.09999219997553155, 0.21712679998017848]",283.72798379999585,283.92979109997395,1000,283.92979109997395,1000,1000,1000,1000,0,num_3,0.6931434000143781,,28,7,2026-03-05_16h00.13.672,2026A_exp2,2022.2.4,60.01817350157759,
1000,1,4.9,0.0,0,0,76,76,37,,,,,284.64568169997074,285.2962262999499,285.2962262999499,285.7803668999695,45,315,285.7803668999695,285.7803668999695,285.7803668999695,285.7803668999695,285.7803668999695,285.7803668999695,285.7803668999695,285.7803668999695,285.7803668999695,286.14715459995205,286.14715459995205,286.14715459995205,286.14715459995205,286.14715459995205,286.14715459995205,286.14715459995205,286.14715459995205,286.14715459995205,23,0,,,286.14715459995205,286.34910239995224,1000,286.34910239995224,1000,1000,1000,1000,1,num_2,2.0666937000351027,,28,7,2026-03-05_16h00.13.672,2026A_exp2,2022.2.4,60.01817350157759,
1,0,0.0,0.0,0,0,77,77,61,,,,,288.43282599997474,289.0833186999662,289.0833186999662,289.58939319994533,315,315,289.58939319994533,289.58939319994533,289.58939319994533,289.58939319994533,289.58939319994533,289.58939319994533,289.58939319994533,289.58939319994533,289.58939319994533,289.9343615999678,289.9343615999678,289.9343615999678,289.9343615999678,289.9343615999678,289.9343615999678,289.9343615999678,289.9343615999678,289.9343615999678,22,0,,,289.9343615999678,290.13739729998633,0.0,290.13739729998633,0,0.0,0,1,1000,num_1,0.8224921999499202,,28,7,2026-03-05_16h00.13.672,2026A_exp2,2022.2.4,60.01817350157759,
1,0,0.0,3.7,1,0,78,78,30,,,,,290.9852057999815,291.6359344999655,291.6359344999655,292.13692089996766,45,45,292.13692089996766,292.13692089996766,292.13692089996766,292.13692089996766,292.13692089996766,292.13692089996766,292.13692089996766,292.13692089996766,292.13692089996766,292.5034032999538,292.5034032999538,292.5034032999538,292.5034032999538,292.5034032999538,292.5034032999538,292.5034032999538,292.5034032999538,292.5034032999538,23,0,,,292.5034032999538,292.7034833999933,3.7,292.7034833999933,1,3.7,1,1,1000,num_4,0.8796642000088468,,28,7,2026-03-05_16h00.13.672,2026A_exp2,2022.2.4,60.01817350157759,
0,0,0.0,0.0,1,0,79,79,80,,,,,293.6045621999656,294.2552076999564,294.2552076999564,294.7395311999717,45,45,294.7395311999717,294.7395311999717,294.7395311999717,294.7395311999717,294.7395311999717,294.7395311999717,294.7395311999717,294.7395311999717,294.7395311999717,295.10589159996016,295.10589159996016,295.10589159996016,295.10589159996016,295.10589159996016,295.10589159996016,295.10589159996016,295.10589159996016,295.10589159996016,23,0,,,295.10589159996016,295.3062565999571,0.0,295.3062565999571,0,0.0,0,1,1000,num_1,0.7730403000023216,,28,7,2026-03-05_16h00.13.672,2026A_exp2,2022.2.4,60.01817350157759,
1,0,0.0,0.0,1,0,80,80,66,,,,,296.10709909995785,296.757787199982,296.757787199982,297.258778599964,315,45,297.258778599964,297.258778599964,297.258778599964,297.258778599964,297.258778599964,297.258778599964,297.258778599964,297.258778599964,297.258778599964,297.60860669997055,297.60860669997055,297.60860669997055,297.60860669997055,297.60860669997055,297.60860669997055,297.60860669997055,297.60860669997055,297.60860669997055,22,0,,,297.60860669997055,297.8087316999445,0.0,297.8087316999445,0,0.0,0,1,1000,num_1,1.2552334000356495,,28,7,2026-03-05_16h00.13.672,2026A_exp2,2022.2.4,60.01817350157759,
0,0,0.0,4.9,1,0,81,81,33,,,,,299.09338499995647,299.74402769998414,299.74402769998414,300.2284839999629,45,45,300.2284839999629,300.2284839999629,300.2284839999629,300.2284839999629,300.2284839999629,300.2284839999629,300.2284839999629,300.2284839999629,300.2284839999629,300.59478169999784,300.59478169999784,300.59478169999784,300.59478169999784,300.59478169999784,300.59478169999784,300.59478169999784,300.59478169999784,300.59478169999784,4,1,[0.017372500034980476],[0.333734399988316],300.59478169999784,300.7949013999896,0.0,300.7949013999896,1,0.0,0,0,1000,num_4,0.7805929000023752,,28,7,2026-03-05_16h00.13.672,2026A_exp2,2022.2.4,60.01817350157759,
1,0,6.1,0.0,0,0,82,82,51,,,,,301.59590299997944,302.2465541999554,302.2465541999554,302.73093459999654,315,45,302.73093459999654,302.73093459999654,302.73093459999654,302.73093459999654,302.73093459999654,302.73093459999654,302.73093459999654,302.73093459999654,302.73093459999654,303.09711589996004,303.09711589996004,303.09711589996004,303.09711589996004,303.09711589996004,303.09711589996004,303.09711589996004,303.09711589996004,303.09711589996004,23,0,,,303.09711589996004,303.2974428999587,6.1,303.2974428999587,0,6.1,1,0,1000,num_1,0.6301309000118636,,28,7,2026-03-05_16h00.13.672,2026A_exp2,2022.2.4,60.01817350157759,
1000,1,0.0,6.1,0,0,83,83,27,,,,,303.94810429995414,304.5988339999458,304.5988339999458,305.0831734999665,45,45,305.0831734999665,305.0831734999665,305.0831734999665,305.0831734999665,305.0831734999665,305.0831734999665,305.0831734999665,305.0831734999665,305.0831734999665,305.449744499987,305.449744499987,305.449744499987,305.449744499987,305.449744499987,305.449744499987,305.449744499987,305.449744499987,305.449744499987,23,0,,,305.449744499987,305.6522124999901,1000,305.6522124999901,1000,1000,1000,1000,0,num_3,0.7882216000580229,,28,7,2026-03-05_16h00.13.672,2026A_exp2,2022.2.4,60.01817350157759,
1000,1,0.0,0.0,1,0,84,84,63,,,,,306.4674211999518,307.11805199994706,307.11805199994706,307.6192060999456,315,45,307.6192060999456,307.6192060999456,307.6192060999456,307.6192060999456,307.6192060999456,307.6192060999456,307.6192060999456,307.6192060999456,307.6192060999456,307.98549769999227,307.98549769999227,307.98549769999227,307.98549769999227,307.98549769999227,307.98549769999227,307.98549769999227,307.98549769999227,307.98549769999227,23,0,,,307.98549769999227,308.1875791999628,1000,308.1875791999628,1000,1000,1000,1000,0,num_3,0.42792030004784465,,28,7,2026-03-05_16h00.13.672,2026A_exp2,2022.2.4,60.01817350157759,
1000,1,0.0,0.0,0,0,85,85,2,,,,,308.6359794999589,309.28681349998806,309.28681349998806,309.78796739998506,315,45,309.78796739998506,309.78796739998506,309.78796739998506,309.78796739998506,309.78796739998506,309.78796739998506,309.78796739998506,309.78796739998506,309.78796739998506,310.13773149996996,310.13773149996996,310.13773149996996,310.13773149996996,310.13773149996996,310.13773149996996,310.13773149996996,310.13773149996996,310.13773149996996,22,0,,,310.13773149996996,310.3417147999862,1000,310.354659399949,1000,1000,1000,1000,1,num_2,0.31727180001325905,,28,7,2026-03-05_16h00.13.672,2026A_exp2,2022.2.4,60.01817350157759,
1,0,0.0,4.9,1,0,86,86,41,,,,,310.68834799999604,311.33885579998605,311.33885579998605,311.84005519998027,45,45,311.84005519998027,311.84005519998027,311.84005519998027,311.84005519998027,311.84005519998027,311.84005519998027,311.84005519998027,311.84005519998027,311.84005519998027,312.2064778999775,312.2064778999775,312.2064778999775,312.2064778999775,312.2064778999775,312.2064778999775,312.2064778999775,312.2064778999775,312.2064778999775,23,0,,,312.2064778999775,312.40666280000005,4.9,312.40666280000005,0,4.9,1,0,1000,num_1,1.0652513000532053,,28,7,2026-03-05_16h00.13.672,2026A_exp2,2022.2.4,60.01817350157759,
1000,1,3.7,0.0,0,0,87,87,81,,,,,313.49084119999316,314.1417283999617,314.1417283999617,314.62619389995234,315,315,314.62619389995234,314.62619389995234,314.62619389995234,314.62619389995234,314.62619389995234,314.62619389995234,314.62619389995234,314.62619389995234,314.62619389995234,314.992622699996,314.992622699996,314.992622699996,314.992622699996,314.992622699996,314.992622699996,314.992622699996,314.992622699996,314.992622699996,23,0,,,314.992622699996,315.19462319999,1000,315.19462319999,1000,1000,1000,1000,0,num_3,0.7577217000070959,,28,7,2026-03-05_16h00.13.672,2026A_exp2,2022.2.4,60.01817350157759,
1000,1,3.7,3.7,1,0,88,88,54,,,,,315.97680919995764,316.62752189999446,316.62752189999446,317.12855399999535,315,45,317.12855399999535,317.12855399999535,317.12855399999535,317.12855399999535,317.12855399999535,317.12855399999535,317.12855399999535,317.12855399999535,317.12855399999535,317.47843609994743,317.47843609994743,317.47843609994743,317.47843609994743,317.47843609994743,317.47843609994743,317.47843609994743,317.47843609994743,317.47843609994743,22,0,,,317.47843609994743,317.68600489996606,1000,317.68600489996606,1000,1000,1000,1000,1,num_2,0.4815472000045702,,28,7,2026-03-05_16h00.13.672,2026A_exp2,2022.2.4,60.01817350157759,
1,0,0.0,0.0,0,0,89,89,85,,,,,318.1959131999756,318.84631249995437,318.84631249995437,319.34751999995206,45,45,319.34751999995206,319.34751999995206,319.34751999995206,319.34751999995206,319.34751999995206,319.34751999995206,319.34751999995206,319.34751999995206,319.34751999995206,319.7138046999462,319.7138046999462,319.7138046999462,319.7138046999462,319.7138046999462,319.7138046999462,319.7138046999462,319.7138046999462,319.7138046999462,23,0,,,319.7138046999462,319.9142254999606,0.0,319.9142254999606,0,0.0,0,1,1000,num_1,0.6049572000047192,,28,7,2026-03-05_16h00.13.672,2026A_exp2,2022.2.4,60.01817350157759,
,,,,,,,,,,,,,,,,,,,,,,,,,,,,,,,,,,,,,,,,,,,,,,,,,,,,320.55580969998846,,,,,,,
