validity,detectorcomp,contrastCW,contrastCCW,precueCWorCCW,block_80trials.thisRepN,block_80trials.thisTrialN,block_80trials.thisN,block_80trials.thisIndex,etRecord.started,etRecord.stopped,text.started,text.stopped,text_4.started,text_4.stopped,text_6.started,text_6.stopped,oriCW,oriCCW,roi_2.started,grating_UR.started,grating_UL.started,grating_LR.started,grating_LL.started,noise_UR.started,noise_UL.started,noise_LR.started,noise_LL.started,roi_2.stopped,grating_UR.stopped,grating_UL.stopped,grating_LR.stopped,grating_LL.stopped,noise_UR.stopped,noise_UL.stopped,noise_LR.stopped,noise_LL.stopped,outframe,roi_2.numLooks,roi_2.timesOn,roi_2.timesOff,text_2.started,text_2.stopped,probedcontrast,key_resp.started,respdetect,relevantContrast,correctDetect,TorFdetect,respCWorCCW,key_resp.keys,key_resp.rt,feedback_display_.started,participantNo,blockNo,date,expName,psychopyVersion,frameRate,
1,0,3.7,3.7,1,0,0,0,64,3.3800024539232254e-05,3.3800024539232254e-05,78.45195020001847,80.4578865999938,80.4578865999938,81.08969930000603,81.08969930000603,81.60695290000876,45,315,81.60695290000876,81.60695290000876,81.60695290000876,81.60695290000876,81.60695290000876,81.60695290000876,81.60695290000876,81.60695290000876,81.60695290000876,81.95623020001221,81.95623020001221,81.95623020001221,81.95623020001221,81.95623020001221,81.95623020001221,81.95623020001221,81.95623020001221,81.95623020001221,23,0,,,81.95623020001221,82.15638629999012,3.7,82.15638629999012,1,3.7,1,1,1000,num_4,0.7237665000138804,,22,1,2026-03-04_10h21.43.128,2026A_exp2,2022.2.4,59.95394337200213,
1000,1,0.0,0.0,1,0,1,1,71,,,,,82.90708680002717,83.55788310000207,83.55788310000207,84.05896769999526,45,45,84.05896769999526,84.05896769999526,84.05896769999526,84.05896769999526,84.05896769999526,84.05896769999526,84.05896769999526,84.05896769999526,84.05896769999526,84.40878230001545,84.40878230001545,84.40878230001545,84.40878230001545,84.40878230001545,84.40878230001545,84.40878230001545,84.40878230001545,84.40878230001545,11,2,"[0.0012208999833092093, 0.1669613000121899]","[0.15013309998903424, 0.20041849999688566]",84.40878230001545,84.61314339999808,1000,84.61314339999808,1000,1000,1000,1000,1,num_2,0.5081353000132367,,22,1,2026-03-04_10h21.43.128,2026A_exp2,2022.2.4,59.95394337200213,
1000,1,3.7,3.7,1,0,2,2,88,,,,,85.14277610002318,85.79348729999037,85.79348729999037,86.2778589000227,45,45,86.2778589000227,86.2778589000227,86.2778589000227,86.2778589000227,86.2778589000227,86.2778589000227,86.2778589000227,86.2778589000227,86.2778589000227,86.64415060001193,86.64415060001193,86.64415060001193,86.64415060001193,86.64415060001193,86.64415060001193,86.64415060001193,86.64415060001193,86.64415060001193,6,1,[0.0008631999953649938],[0.28416999999899417],86.64415060001193,86.84660490002716,1000,86.84660490002716,1000,1000,1000,1000,1,num_2,0.5781110999523662,,22,1,2026-03-04_10h21.43.128,2026A_exp2,2022.2.4,59.95394337200213,
1,0,0.0,0.0,1,0,3,3,82,,,,,87.44513300003018,88.0955818000366,88.0955818000366,88.59678700001677,45,315,88.59678700001677,88.59678700001677,88.59678700001677,88.59678700001677,88.59678700001677,88.59678700001677,88.59678700001677,88.59678700001677,88.59678700001677,88.96326789999148,88.96326789999148,88.96326789999148,88.96326789999148,88.96326789999148,88.96326789999148,88.96326789999148,88.96326789999148,88.96326789999148,23,0,,,88.96326789999148,89.16332310001599,0.0,89.16332310001599,1,0.0,0,0,1000,num_4,0.4853269000304863,,22,1,2026-03-04_10h21.43.128,2026A_exp2,2022.2.4,59.95394337200213,
1,0,0.0,4.9,1,0,4,4,65,,,,,89.68064640002558,90.33131849998608,90.33131849998608,90.81538370001363,45,45,90.81538370001363,90.81538370001363,90.81538370001363,90.81538370001363,90.81538370001363,90.81538370001363,90.81538370001363,90.81538370001363,90.81538370001363,91.18206690001534,91.18206690001534,91.18206690001534,91.18206690001534,91.18206690001534,91.18206690001534,91.18206690001534,91.18206690001534,91.18206690001534,22,1,[0.16711150004994124],[0.18392570002470165],91.18206690001534,91.38222410000162,4.9,91.38222410000162,1,4.9,1,1,1000,num_4,0.5541597999981605,,22,1,2026-03-04_10h21.43.128,2026A_exp2,2022.2.4,59.95394337200213,
1,0,0.0,3.7,1,0,5,5,12,,,,,91.96628390002297,92.61675039998954,92.61675039998954,93.10136289999355,45,315,93.10136289999355,93.10136289999355,93.10136289999355,93.10136289999355,93.10136289999355,93.10136289999355,93.10136289999355,93.10136289999355,93.10136289999355,93.46772429998964,93.46772429998964,93.46772429998964,93.46772429998964,93.46772429998964,93.46772429998964,93.46772429998964,93.46772429998964,93.46772429998964,23,0,,,93.46772429998964,93.66801650001435,3.7,93.66801650001435,1,3.7,1,1,1000,num_4,0.509349400002975,,22,1,2026-03-04_10h21.43.128,2026A_exp2,2022.2.4,59.95394337200213,
1000,1,4.9,3.7,1,0,6,6,14,,,,,94.20188900001813,94.85235350002768,94.85235350002768,95.35357340000337,45,45,95.35357340000337,95.35357340000337,95.35357340000337,95.35357340000337,95.35357340000337,95.35357340000337,95.35357340000337,95.35357340000337,95.35357340000337,95.70333450002363,95.70333450002363,95.70333450002363,95.70333450002363,95.70333450002363,95.70333450002363,95.70333450002363,95.70333450002363,95.70333450002363,22,0,,,95.70333450002363,95.90592920000199,1000,95.90592920000199,1000,1000,1000,1000,1,num_2,0.5744512000237592,,22,1,2026-03-04_10h21.43.128,2026A_exp2,2022.2.4,59.95394337200213,
1,0,6.1,4.9,0,0,7,7,30,,,,,96.50420199998189,97.15481410000939,97.15481410000939,97.65590220002923,315,45,97.65590220002923,97.65590220002923,97.65590220002923,97.65590220002923,97.65590220002923,97.65590220002923,97.65590220002923,97.65590220002923,97.65590220002923,98.02232930000173,98.02232930000173,98.02232930000173,98.02232930000173,98.02232930000173,98.02232930000173,98.02232930000173,98.02232930000173,98.02232930000173,19,1,[0.001240900019183755],[0.05029899999499321],98.02232930000173,98.22257310000714,6.1,98.22257310000714,1,6.1,1,1,1000,num_4,0.866010700003244,,22,1,2026-03-04_10h21.43.128,2026A_exp2,2022.2.4,59.95394337200213,
1000,1,3.7,6.1,0,0,8,8,81,,,,,99.10670150001533,99.75730579998344,99.75730579998344,100.24188540002797,45,315,100.24188540002797,100.24188540002797,100.24188540002797,100.24188540002797,100.24188540002797,100.24188540002797,100.24188540002797,100.24188540002797,100.24188540002797,100.60818420001306,100.60818420001306,100.60818420001306,100.60818420001306,100.60818420001306,100.60818420001306,100.60818420001306,100.60818420001306,100.60818420001306,23,0,,,100.60818420001306,100.81039980001515,1000,100.81039980001515,1000,1000,1000,1000,0,num_3,0.7588241000194103,,22,1,2026-03-04_10h21.43.128,2026A_exp2,2022.2.4,59.95394337200213,
1,0,3.7,6.1,1,0,9,9,6,,,,,101.59251620003488,102.24302140000509,102.24302140000509,102.74428430001717,45,45,102.74428430001717,102.74428430001717,102.74428430001717,102.74428430001717,102.74428430001717,102.74428430001717,102.74428430001717,102.74428430001717,102.74428430001717,103.11068740003975,103.11068740003975,103.11068740003975,103.11068740003975,103.11068740003975,103.11068740003975,103.11068740003975,103.11068740003975,103.11068740003975,4,3,"[0.001261299999896437, 0.1670301000121981, 0.28390709997620434]","[0.1502572000026703, 0.2671627000090666, 0.3673177000018768]",103.11068740003975,103.31092970003374,6.1,103.31092970003374,1,6.1,1,1,1000,num_4,0.5785135999904014,,22,1,2026-03-04_10h21.43.128,2026A_exp2,2022.2.4,59.95394337200213,
1000,1,0.0,0.0,1,0,10,10,40,,,,,103.91162319999421,104.56216620001942,104.56216620001942,105.04648429999361,45,315,105.04648429999361,105.04648429999361,105.04648429999361,105.04648429999361,105.04648429999361,105.04648429999361,105.04648429999361,105.04648429999361,105.04648429999361,105.41301230003592,105.41301230003592,105.41301230003592,105.41301230003592,105.41301230003592,105.41301230003592,105.41301230003592,105.41301230003592,105.41301230003592,23,0,,,105.41301230003592,105.61490869999398,1000,105.61490869999398,1000,1000,1000,1000,1,num_2,0.6975155000109226,,22,1,2026-03-04_10h21.43.128,2026A_exp2,2022.2.4,59.95394337200213,
1000,1,0.0,6.1,0,0,11,11,83,,,,,106.33055700000841,106.98122519999743,106.98122519999743,107.4825272000162,45,45,107.4825272000162,107.4825272000162,107.4825272000162,107.4825272000162,107.4825272000162,107.4825272000162,107.4825272000162,107.4825272000162,107.4825272000162,107.83223110000836,107.83223110000836,107.83223110000836,107.83223110000836,107.83223110000836,107.83223110000836,107.83223110000836,107.83223110000836,107.83223110000836,22,0,,,107.83223110000836,108.03818760003196,1000,108.04905590001727,1000,1000,1000,1000,0,num_3,0.6632009000168182,,22,1,2026-03-04_10h21.43.128,2026A_exp2,2022.2.4,59.95394337200213,
1,0,0.0,0.0,0,0,12,12,49,,,,,108.73299530002987,109.38368090003496,109.38368090003496,109.88491960003739,45,315,109.88491960003739,109.88491960003739,109.88491960003739,109.88491960003739,109.88491960003739,109.88491960003739,109.88491960003739,109.88491960003739,109.88491960003739,110.25118640001165,110.25118640001165,110.25118640001165,110.25118640001165,110.25118640001165,110.25118640001165,110.25118640001165,110.25118640001165,110.25118640001165,23,0,,,110.25118640001165,110.45126519998303,0.0,110.45126519998303,1,0.0,0,0,1000,num_4,0.8140099999727681,,22,1,2026-03-04_10h21.43.128,2026A_exp2,2022.2.4,59.95394337200213,
1,0,6.1,6.1,0,0,13,13,51,,,,,111.28535630000988,111.9361447999836,111.9361447999836,112.42055480001727,45,315,112.42055480001727,112.42055480001727,112.42055480001727,112.42055480001727,112.42055480001727,112.42055480001727,112.42055480001727,112.42055480001727,112.42055480001727,112.78709689999232,112.78709689999232,112.78709689999232,112.78709689999232,112.78709689999232,112.78709689999232,112.78709689999232,112.78709689999232,112.78709689999232,0,1,[0.001268399995751679],[0.3670276000048034],112.78709689999232,112.98730450001312,6.1,112.98730450001312,1,6.1,1,1,1000,num_4,0.41323910001665354,,22,1,2026-03-04_10h21.43.128,2026A_exp2,2022.2.4,59.95394337200213,
1,0,4.9,0.0,0,0,14,14,87,,,,,113.42128190002404,114.0550923999981,114.0550923999981,114.556074800028,45,45,114.556074800028,114.556074800028,114.556074800028,114.556074800028,114.556074800028,114.556074800028,114.556074800028,114.556074800028,114.556074800028,114.92237260000547,114.92237260000547,114.92237260000547,114.92237260000547,114.92237260000547,114.92237260000547,114.92237260000547,114.92237260000547,114.92237260000547,13,2,"[0.0012378999963402748, 0.3504425000282936]","[0.13365099998191, 0.3671209000167437]",114.92237260000547,115.12294640002074,4.9,115.12294640002074,1,4.9,1,1,1000,num_4,0.5571215999661945,,22,1,2026-03-04_10h21.43.128,2026A_exp2,2022.2.4,59.95394337200213,
1000,1,3.7,0.0,1,0,15,15,33,,,,,115.7065719999955,116.3572361000115,116.3572361000115,116.84175459999824,315,315,116.84175459999824,116.84175459999824,116.84175459999824,116.84175459999824,116.84175459999824,116.84175459999824,116.84175459999824,116.84175459999824,116.84175459999824,117.20805210003164,117.20805210003164,117.20805210003164,117.20805210003164,117.20805210003164,117.20805210003164,117.20805210003164,117.20805210003164,117.20805210003164,22,1,[0.3504875000216998],[0.36758060002466664],117.20805210003164,117.410988299991,1000,117.410988299991,1000,1000,1000,1000,1,num_2,0.677142400003504,,22,1,2026-03-04_10h21.43.128,2026A_exp2,2022.2.4,59.95394337200213,
1000,1,6.1,6.1,0,0,16,16,50,,,,,118.10899330000393,118.75968580000335,118.75968580000335,119.260780600016,315,45,119.260780600016,119.260780600016,119.260780600016,119.260780600016,119.260780600016,119.260780600016,119.260780600016,119.260780600016,119.260780600016,119.62724150001304,119.62724150001304,119.62724150001304,119.62724150001304,119.62724150001304,119.62724150001304,119.62724150001304,119.62724150001304,119.62724150001304,14,1,[0.0012053000391460955],[0.1504914000397548],119.62724150001304,119.82721910002874,1000,119.82721910002874,1000,1000,1000,1000,0,num_3,0.6052030999562703,,22,1,2026-03-04_10h21.43.128,2026A_exp2,2022.2.4,59.95394337200213,
1000,1,4.9,4.9,0,0,17,17,34,,,,,120.46132470003795,121.11206320003839,121.11206320003839,121.6131299000117,45,45,121.6131299000117,121.6131299000117,121.6131299000117,121.6131299000117,121.6131299000117,121.6131299000117,121.6131299000117,121.6131299000117,121.6131299000117,121.96304519998375,121.96304519998375,121.96304519998375,121.96304519998375,121.96304519998375,121.96304519998375,121.96304519998375,121.96304519998375,121.96304519998375,22,0,,,121.96304519998375,122.16343830002006,1000,122.1799236999941,1000,1000,1000,1000,0,num_3,0.45254369999747723,,22,1,2026-03-04_10h21.43.128,2026A_exp2,2022.2.4,59.95394337200213,
1000,1,0.0,0.0,1,0,18,18,62,,,,,122.6636061000172,123.31427179998718,123.31427179998718,123.8154148000176,315,315,123.8154148000176,123.8154148000176,123.8154148000176,123.8154148000176,123.8154148000176,123.8154148000176,123.8154148000176,123.8154148000176,123.8154148000176,124.16515760001494,124.16515760001494,124.16515760001494,124.16515760001494,124.16515760001494,124.16515760001494,124.16515760001494,124.16515760001494,124.16515760001494,21,1,[0.033476100012194365],[0.050338300003204495],124.16515760001494,124.3677236000076,1000,124.3677236000076,1000,1000,1000,1000,1,num_2,0.4330961999949068,,22,1,2026-03-04_10h21.43.128,2026A_exp2,2022.2.4,59.95394337200213,
1,0,0.0,3.7,1,0,19,19,10,,,,,124.83241100003943,125.48308149998775,125.48308149998775,125.98412350000581,45,315,125.98412350000581,125.98412350000581,125.98412350000581,125.98412350000581,125.98412350000581,125.98412350000581,125.98412350000581,125.98412350000581,125.98412350000581,126.33395340002608,126.33395340002608,126.33395340002608,126.33395340002608,126.33395340002608,126.33395340002608,126.33395340002608,126.33395340002608,126.33395340002608,14,1,[0.0012614000006578863],[0.13363560003926978],126.33395340002608,126.53406989999348,3.7,126.53406989999348,1,3.7,1,1,1000,num_4,0.40212529996642843,,22,1,2026-03-04_10h21.43.128,2026A_exp2,2022.2.4,59.95394337200213,
1,0,4.9,0.0,0,0,20,20,23,,,,,126.96812279999722,127.61860079999315,127.61860079999315,128.11972660000902,45,45,128.11972660000902,128.11972660000902,128.11972660000902,128.11972660000902,128.11972660000902,128.11972660000902,128.11972660000902,128.11972660000902,128.11972660000902,128.46927430003416,128.46927430003416,128.46927430003416,128.46927430003416,128.46927430003416,128.46927430003416,128.46927430003416,128.46927430003416,128.46927430003416,13,1,[0.0007493000011891127],[0.1508064999943599],128.46927430003416,128.66965090000303,4.9,128.66965090000303,1,4.9,1,1,1000,num_4,0.795333199959714,,22,1,2026-03-04_10h21.43.128,2026A_exp2,2022.2.4,59.95394337200213,
1,0,0.0,0.0,0,0,21,21,19,,,,,129.48691839998355,130.1375895999954,130.1375895999954,130.6221672000247,45,315,130.6221672000247,130.6221672000247,130.6221672000247,130.6221672000247,130.6221672000247,130.6221672000247,130.6221672000247,130.6221672000247,130.6221672000247,130.98854059999576,130.98854059999576,130.98854059999576,130.98854059999576,130.98854059999576,130.98854059999576,130.98854059999576,130.98854059999576,130.98854059999576,23,0,,,130.98854059999576,131.18877910001902,0.0,131.18877910001902,1,0.0,0,0,1000,num_4,0.4033581000403501,,22,1,2026-03-04_10h21.43.128,2026A_exp2,2022.2.4,59.95394337200213,
1000,1,0.0,6.1,1,0,22,22,3,,,,,131.6226059999899,132.2733590999851,132.2733590999851,132.75746250001248,315,315,132.75746250001248,132.75746250001248,132.75746250001248,132.75746250001248,132.75746250001248,132.75746250001248,132.75746250001248,132.75746250001248,132.75746250001248,133.12406920001376,133.12406920001376,133.12406920001376,133.12406920001376,133.12406920001376,133.12406920001376,133.12406920001376,133.12406920001376,133.12406920001376,21,1,[0.001196600031107664],[0.03348240000195801],133.12406920001376,133.3264186999877,1000,133.3264186999877,1000,1000,1000,1000,1,num_2,0.5623308999929577,,22,1,2026-03-04_10h21.43.128,2026A_exp2,2022.2.4,59.95394337200213,
1000,1,6.1,0.0,0,0,23,23,68,,,,,133.90822470001876,134.55891490000067,134.55891490000067,135.059852699982,315,315,135.059852699982,135.059852699982,135.059852699982,135.059852699982,135.059852699982,135.059852699982,135.059852699982,135.059852699982,135.059852699982,135.42647910001688,135.42647910001688,135.42647910001688,135.42647910001688,135.42647910001688,135.42647910001688,135.42647910001688,135.42647910001688,135.42647910001688,0,1,[0.0012021000147797167],[0.3665929000126198],135.42647910001688,135.62861020001583,1000,135.62861020001583,1000,1000,1000,1000,0,num_3,0.4359351000166498,,22,1,2026-03-04_10h21.43.128,2026A_exp2,2022.2.4,59.95394337200213,
1000,1,4.9,6.1,1,0,24,24,18,,,,,136.09360269998433,136.74432110000635,136.74432110000635,137.24547960003838,315,45,137.24547960003838,137.24547960003838,137.24547960003838,137.24547960003838,137.24547960003838,137.24547960003838,137.24547960003838,137.24547960003838,137.24547960003838,137.61185420001857,137.61185420001857,137.61185420001857,137.61185420001857,137.61185420001857,137.61185420001857,137.61185420001857,137.61185420001857,137.61185420001857,23,0,,,137.61185420001857,137.8139869000297,1000,137.8139869000297,1000,1000,1000,1000,1,num_2,0.5628951000398956,,22,1,2026-03-04_10h21.43.128,2026A_exp2,2022.2.4,59.95394337200213,
1,0,0.0,4.9,0,0,25,25,35,,,,,138.3959451999981,139.04663940001046,139.04663940001046,139.54763270000694,315,45,139.54763270000694,139.54763270000694,139.54763270000694,139.54763270000694,139.54763270000694,139.54763270000694,139.54763270000694,139.54763270000694,139.54763270000694,139.89755839999998,139.89755839999998,139.89755839999998,139.89755839999998,139.89755839999998,139.89755839999998,139.89755839999998,139.89755839999998,139.89755839999998,1,2,"[0.0011898999800905585, 0.26714929996524006]","[0.25056339998263866, 0.350705899996683]",139.89755839999998,140.0976867999998,0.0,140.1143935000291,1,0.0,0,0,1000,num_4,0.36562259995844215,,22,1,2026-03-04_10h21.43.128,2026A_exp2,2022.2.4,59.95394337200213,
1,0,4.9,0.0,1,0,26,26,15,,,,,140.4980456000194,141.14120650000405,141.14120650000405,141.63524820003659,315,315,141.63524820003659,141.63524820003659,141.63524820003659,141.63524820003659,141.63524820003659,141.63524820003659,141.63524820003659,141.63524820003659,141.63524820003659,141.99959230003878,141.99959230003878,141.99959230003878,141.99959230003878,141.99959230003878,141.99959230003878,141.99959230003878,141.99959230003878,141.99959230003878,5,5,"[0.002098300028592348, 0.03351370000746101, 0.1672145000193268, 0.2837848999770358, 0.36659320001490414]","[0.0193794000078924, 0.13387910003075376, 0.267282199987676, 0.34972639998886734, 0.36660060001304373]",141.99959230003878,142.19958570000017,0.0,142.19958570000017,1,0.0,0,0,1000,num_4,0.6805237999651581,,22,1,2026-03-04_10h21.43.128,2026A_exp2,2022.2.4,59.95394337200213,
1000,1,4.9,0.0,1,0,27,27,7,,,,,142.90043550002156,143.55119309999282,143.55119309999282,144.03562460001558,45,45,144.03562460001558,144.03562460001558,144.03562460001558,144.03562460001558,144.03562460001558,144.03562460001558,144.03562460001558,144.03562460001558,144.03562460001558,144.40200060000643,144.40200060000643,144.40200060000643,144.40200060000643,144.40200060000643,144.40200060000643,144.40200060000643,144.40200060000643,144.40200060000643,22,1,[0.28350660001160577],[0.30026460002409294],144.40200060000643,144.60422290000133,1000,144.60422290000133,1000,1000,1000,1000,1,num_2,0.5410449000191875,,22,1,2026-03-04_10h21.43.128,2026A_exp2,2022.2.4,59.95394337200213,
1000,1,6.1,3.7,1,0,28,28,45,,,,,145.16934740002034,145.8200288999942,145.8200288999942,146.32115869998233,45,315,146.32115869998233,146.32115869998233,146.32115869998233,146.32115869998233,146.32115869998233,146.32115869998233,146.32115869998233,146.32115869998233,146.32115869998233,146.68767240003217,146.68767240003217,146.68767240003217,146.68767240003217,146.68767240003217,146.68767240003217,146.68767240003217,146.68767240003217,146.68767240003217,23,0,,,146.68767240003217,146.89006430003792,1000,146.89006430003792,1000,1000,1000,1000,1,num_2,0.47857949999161065,,22,1,2026-03-04_10h21.43.128,2026A_exp2,2022.2.4,59.95394337200213,
1000,1,0.0,4.9,1,0,29,29,73,,,,,147.3882670000312,148.04085839999607,148.04085839999607,148.54001560003962,45,45,148.54001560003962,148.54001560003962,148.54001560003962,148.54001560003962,148.54001560003962,148.54001560003962,148.54001560003962,148.54001560003962,148.54001560003962,148.90657120000105,148.90657120000105,148.90657120000105,148.90657120000105,148.90657120000105,148.90657120000105,148.90657120000105,148.90657120000105,148.90657120000105,8,1,[0.1335675999871455],[0.3671157999779098],148.90657120000105,149.109102300019,1000,149.109102300019,1000,1000,1000,1000,1,num_2,0.4511163999559358,,22,1,2026-03-04_10h21.43.128,2026A_exp2,2022.2.4,59.95394337200213,
1000,1,0.0,4.9,0,0,30,30,9,,,,,149.5906157999998,150.24120669998229,150.24120669998229,150.7255906999926,315,315,150.7255906999926,150.7255906999926,150.7255906999926,150.7255906999926,150.7255906999926,150.7255906999926,150.7255906999926,150.7255906999926,150.7255906999926,151.09204700001283,151.09204700001283,151.09204700001283,151.09204700001283,151.09204700001283,151.09204700001283,151.09204700001283,151.09204700001283,151.09204700001283,23,0,,,151.09204700001283,151.29416839999612,1000,151.29416839999612,1000,1000,1000,1000,0,num_3,0.5540114999748766,,22,1,2026-03-04_10h21.43.128,2026A_exp2,2022.2.4,59.95394337200213,
1000,1,0.0,0.0,1,0,31,31,70,,,,,151.87614700000267,152.52683390001766,152.52683390001766,153.02777520002564,315,315,153.02777520002564,153.02777520002564,153.02777520002564,153.02777520002564,153.02777520002564,153.02777520002564,153.02777520002564,153.02777520002564,153.02777520002564,153.39428040001076,153.39428040001076,153.39428040001076,153.39428040001076,153.39428040001076,153.39428040001076,153.39428040001076,153.39428040001076,153.39428040001076,20,2,"[0.0009803999564610422, 0.10045009996974841]","[0.017312199983280152, 0.11708499997621402]",153.39428040001076,153.59650919999694,1000,153.59650919999694,1000,1000,1000,1000,1,num_2,0.32406559999799356,,22,1,2026-03-04_10h21.43.128,2026A_exp2,2022.2.4,59.95394337200213,
1,0,0.0,0.0,0,0,32,32,29,,,,,153.9448274000315,154.59554900001967,154.59554900001967,155.0965232999879,315,315,155.0965232999879,155.0965232999879,155.0965232999879,155.0965232999879,155.0965232999879,155.0965232999879,155.0965232999879,155.0965232999879,155.0965232999879,155.46302219998324,155.46302219998324,155.46302219998324,155.46302219998324,155.46302219998324,155.46302219998324,155.46302219998324,155.46302219998324,155.46302219998324,16,3,"[0.017282599990721792, 0.11700239998754114, 0.1671160999685526]","[0.1003400000045076, 0.133724799961783, 0.18379659997299314]",155.46302219998324,155.66334000002826,0.0,155.66334000002826,1,0.0,0,0,1000,num_4,0.42612899997038767,,22,1,2026-03-04_10h21.43.128,2026A_exp2,2022.2.4,59.95394337200213,
1,0,0.0,0.0,0,0,33,33,0,,,,,156.11366410000483,156.76432640000712,156.76432640000712,157.24870230001397,315,315,157.24870230001397,157.24870230001397,157.24870230001397,157.24870230001397,157.24870230001397,157.24870230001397,157.24870230001397,157.24870230001397,157.24870230001397,157.61525129998336,157.61525129998336,157.61525129998336,157.61525129998336,157.61525129998336,157.61525129998336,157.61525129998336,157.61525129998336,157.61525129998336,23,0,,,157.61525129998336,157.81538729998283,0.0,157.81538729998283,1,0.0,0,0,1000,num_4,0.496654300019145,,22,1,2026-03-04_10h21.43.128,2026A_exp2,2022.2.4,59.95394337200213,
1000,1,0.0,3.7,0,0,34,34,32,,,,,158.3325579999946,158.9847921000328,158.9847921000328,159.48350119998213,45,45,159.48350119998213,159.48350119998213,159.48350119998213,159.48350119998213,159.48350119998213,159.48350119998213,159.48350119998213,159.48350119998213,159.48350119998213,159.83421960001579,159.83421960001579,159.83421960001579,159.83421960001579,159.83421960001579,159.83421960001579,159.83421960001579,159.83421960001579,159.83421960001579,23,0,,,159.83421960001579,160.04966399999103,1000,160.04966399999103,1000,1000,1000,1000,0,num_3,1.2472730000154115,,22,1,2026-03-04_10h21.43.128,2026A_exp2,2022.2.4,59.95394337200213,
1000,1,0.0,0.0,0,0,35,35,41,,,,,161.31903170002624,161.96958740003174,161.96958740003174,162.470633000019,45,315,162.470633000019,162.470633000019,162.470633000019,162.470633000019,162.470633000019,162.470633000019,162.470633000019,162.470633000019,162.470633000019,162.8371654000366,162.8371654000366,162.8371654000366,162.8371654000366,162.8371654000366,162.8371654000366,162.8371654000366,162.8371654000366,162.8371654000366,23,0,,,162.8371654000366,163.0390964000253,1000,163.0390964000253,1000,1000,1000,1000,0,num_3,0.44120520004071295,,22,1,2026-03-04_10h21.43.128,2026A_exp2,2022.2.4,59.95394337200213,
1000,1,3.7,3.7,1,0,36,36,46,,,,,163.5043841000297,164.15517690003617,164.15517690003617,164.65624500002014,315,45,164.65624500002014,164.65624500002014,164.65624500002014,164.65624500002014,164.65624500002014,164.65624500002014,164.65624500002014,164.65624500002014,164.65624500002014,165.0225788000389,165.0225788000389,165.0225788000389,165.0225788000389,165.0225788000389,165.0225788000389,165.0225788000389,165.0225788000389,165.0225788000389,23,0,,,165.0225788000389,165.22509429999627,1000,165.22509429999627,1000,1000,1000,1000,1,num_2,0.44766569999046624,,22,1,2026-03-04_10h21.43.128,2026A_exp2,2022.2.4,59.95394337200213,
1000,1,4.9,4.9,1,0,37,37,26,,,,,165.68992390000494,166.3405383999925,166.3405383999925,166.84175920003327,315,315,166.84175920003327,166.84175920003327,166.84175920003327,166.84175920003327,166.84175920003327,166.84175920003327,166.84175920003327,166.84175920003327,166.84175920003327,167.20816720003495,167.20816720003495,167.20816720003495,167.20816720003495,167.20816720003495,167.20816720003495,167.20816720003495,167.20816720003495,167.20816720003495,23,0,,,167.20816720003495,167.40994209999917,1000,167.40994209999917,1000,1000,1000,1000,1,num_2,0.3830944999936037,,22,1,2026-03-04_10h21.43.128,2026A_exp2,2022.2.4,59.95394337200213,
1000,1,6.1,0.0,0,0,38,38,80,,,,,167.80875359999482,168.45936229999643,168.45936229999643,168.96044450002955,315,315,168.96044450002955,168.96044450002955,168.96044450002955,168.96044450002955,168.96044450002955,168.96044450002955,168.96044450002955,168.96044450002955,168.96044450002955,169.32692850002786,169.32692850002786,169.32692850002786,169.32692850002786,169.32692850002786,169.32692850002786,169.32692850002786,169.32692850002786,169.32692850002786,19,2,"[0.017410000029485673, 0.16697030002251267]","[0.050053699989803135, 0.18355690001044422]",169.32692850002786,169.52722650003852,1000,169.52722650003852,1000,1000,1000,1000,0,num_3,0.33785179996630177,,22,1,2026-03-04_10h21.43.128,2026A_exp2,2022.2.4,59.95394337200213,
1,0,0.0,4.9,1,0,39,39,36,,,,,169.8941300000297,170.5449188000057,170.5449188000057,171.0458423999953,315,45,171.0458423999953,171.0458423999953,171.0458423999953,171.0458423999953,171.0458423999953,171.0458423999953,171.0458423999953,171.0458423999953,171.0458423999953,171.41236389998812,171.41236389998812,171.41236389998812,171.41236389998812,171.41236389998812,171.41236389998812,171.41236389998812,171.41236389998812,171.41236389998812,23,0,,,171.41236389998812,171.61247029999504,4.9,171.61247029999504,1,4.9,1,1,1000,num_4,0.6841830999474041,,22,1,2026-03-04_10h21.43.128,2026A_exp2,2022.2.4,59.95394337200213,
1,0,6.1,0.0,1,0,40,40,54,,,,,172.31315310002537,172.96388009999646,172.96388009999646,173.4483775999979,45,315,173.4483775999979,173.4483775999979,173.4483775999979,173.4483775999979,173.4483775999979,173.4483775999979,173.4483775999979,173.4483775999979,173.4483775999979,173.81476079998538,173.81476079998538,173.81476079998538,173.81476079998538,173.81476079998538,173.81476079998538,173.81476079998538,173.81476079998538,173.81476079998538,5,2,"[0.0012041000300087035, 0.23375710000982508]","[0.21675950003555045, 0.3170117000117898]",173.81476079998538,174.01469300000463,0.0,174.0317739000311,1,0.0,0,0,1000,num_4,0.4570856000063941,,22,1,2026-03-04_10h21.43.128,2026A_exp2,2022.2.4,59.95394337200213,
1,0,0.0,0.0,1,0,41,41,53,,,,,174.51533010002458,175.1661507000099,175.1661507000099,175.65048330003629,45,45,175.65048330003629,175.65048330003629,175.65048330003629,175.65048330003629,175.65048330003629,175.65048330003629,175.65048330003629,175.65048330003629,175.65048330003629,176.01697410002816,176.01697410002816,176.01697410002816,176.01697410002816,176.01697410002816,176.01697410002816,176.01697410002816,176.01697410002816,176.01697410002816,23,0,,,176.01697410002816,176.2170810000389,0.0,176.2170810000389,1,0.0,0,0,1000,num_4,0.43197520001558587,,22,1,2026-03-04_10h21.43.128,2026A_exp2,2022.2.4,59.95394337200213,
1000,1,6.1,4.9,1,0,42,42,76,,,,,176.66753500001505,177.31830310000805,177.31830310000805,177.81946369999787,315,315,177.81946369999787,177.81946369999787,177.81946369999787,177.81946369999787,177.81946369999787,177.81946369999787,177.81946369999787,177.81946369999787,177.81946369999787,178.16915830003563,178.16915830003563,178.16915830003563,178.16915830003563,178.16915830003563,178.16915830003563,178.16915830003563,178.16915830003563,178.16915830003563,20,1,[0.3338183999876492],[0.35059499996714294],178.16915830003563,178.3711789000081,1000,178.3711789000081,1000,1000,1000,1000,1,num_2,0.37368420005077496,,22,1,2026-03-04_10h21.43.128,2026A_exp2,2022.2.4,59.95394337200213,
1000,1,6.1,0.0,0,0,43,43,58,,,,,178.76957559998846,179.4204039000324,179.4204039000324,179.92207880003843,315,315,179.92207880003843,179.92207880003843,179.92207880003843,179.92207880003843,179.92207880003843,179.92207880003843,179.92207880003843,179.92207880003843,179.92207880003843,180.28784850001102,180.28784850001102,180.28784850001102,180.28784850001102,180.28784850001102,180.28784850001102,180.28784850001102,180.28784850001102,180.28784850001102,23,0,,,180.28784850001102,180.4901375999907,1000,180.4901375999907,1000,1000,1000,1000,0,num_3,0.3663119000266306,,22,1,2026-03-04_10h21.43.128,2026A_exp2,2022.2.4,59.95394337200213,
1000,1,4.9,0.0,1,0,44,44,28,,,,,180.8718976000091,181.52266010001767,181.52266010001767,182.02355969999917,315,315,182.02355969999917,182.02355969999917,182.02355969999917,182.02355969999917,182.02355969999917,182.02355969999917,182.02355969999917,182.02355969999917,182.02355969999917,182.38987369998358,182.38987369998358,182.38987369998358,182.38987369998358,182.38987369998358,182.38987369998358,182.38987369998358,182.38987369998358,182.38987369998358,22,1,[0.2337833999772556],[0.26700510003138334],182.38987369998358,182.59194469999056,1000,182.59194469999056,1000,1000,1000,1000,1,num_2,0.4640584000153467,,22,1,2026-03-04_10h21.43.128,2026A_exp2,2022.2.4,59.95394337200213,
1000,1,3.7,0.0,0,0,45,45,37,,,,,183.07384710002225,183.72471670003142,183.72471670003142,184.2257593999966,45,315,184.2257593999966,184.2257593999966,184.2257593999966,184.2257593999966,184.2257593999966,184.2257593999966,184.2257593999966,184.2257593999966,184.2257593999966,184.5922548000235,184.5922548000235,184.5922548000235,184.5922548000235,184.5922548000235,184.5922548000235,184.5922548000235,184.5922548000235,184.5922548000235,23,0,,,184.5922548000235,184.79242010001326,1000,184.79242010001326,1000,1000,1000,1000,0,num_3,0.35200740001164377,,22,1,2026-03-04_10h21.43.128,2026A_exp2,2022.2.4,59.95394337200213,
1,0,0.0,3.7,0,0,46,46,22,,,,,185.17608980002115,185.8267640999984,185.8267640999984,186.32786640000995,315,45,186.32786640000995,186.32786640000995,186.32786640000995,186.32786640000995,186.32786640000995,186.32786640000995,186.32786640000995,186.32786640000995,186.32786640000995,186.67760739999358,186.67760739999358,186.67760739999358,186.67760739999358,186.67760739999358,186.67760739999358,186.67760739999358,186.67760739999358,186.67760739999358,0,1,[0.001076199987437576],[0.35073839995311573],186.67760739999358,186.87777289998485,0.0,186.87777289998485,1,0.0,0,0,1000,num_4,0.8992499000160024,,22,1,2026-03-04_10h21.43.128,2026A_exp2,2022.2.4,59.95394337200213,
1,0,3.7,6.1,0,0,47,47,55,,,,,187.79531190003036,188.44593260000693,188.44593260000693,188.93053650000365,45,45,188.93053650000365,188.93053650000365,188.93053650000365,188.93053650000365,188.93053650000365,188.93053650000365,188.93053650000365,188.93053650000365,188.93053650000365,189.29672919999575,189.29672919999575,189.29672919999575,189.29672919999575,189.29672919999575,189.29672919999575,189.29672919999575,189.29672919999575,189.29672919999575,23,0,,,189.29672919999575,189.49708320002537,3.7,189.49708320002537,1,3.7,1,1,1000,num_4,0.3921856000088155,,22,1,2026-03-04_10h21.43.128,2026A_exp2,2022.2.4,59.95394337200213,
1,0,0.0,6.1,0,0,48,48,57,,,,,189.91411599999992,190.56477170001017,190.56477170001017,191.04933380003786,315,45,191.04933380003786,191.04933380003786,191.04933380003786,191.04933380003786,191.04933380003786,191.04933380003786,191.04933380003786,191.04933380003786,191.04933380003786,191.41560950002167,191.41560950002167,191.41560950002167,191.41560950002167,191.41560950002167,191.41560950002167,191.41560950002167,191.41560950002167,191.41560950002167,20,2,"[0.30029710003873333, 0.3335765000083484]","[0.3171327000018209, 0.36712459998670965]",191.41560950002167,191.615827600006,0.0,191.615827600006,1,0.0,0,0,1000,num_4,0.36169309995602816,,22,1,2026-03-04_10h21.43.128,2026A_exp2,2022.2.4,59.95394337200213,
1,0,0.0,3.7,0,0,49,49,1,,,,,191.99953440000536,192.6501949999947,192.6501949999947,193.1345799000119,315,315,193.1345799000119,193.1345799000119,193.1345799000119,193.1345799000119,193.1345799000119,193.1345799000119,193.1345799000119,193.1345799000119,193.1345799000119,193.50117559998762,193.50117559998762,193.50117559998762,193.50117559998762,193.50117559998762,193.50117559998762,193.50117559998762,193.50117559998762,193.50117559998762,23,0,,,193.50117559998762,193.70137950003846,0.0,193.70137950003846,1,0.0,0,0,1000,num_4,0.314913299982436,,22,1,2026-03-04_10h21.43.128,2026A_exp2,2022.2.4,59.95394337200213,
1000,1,6.1,6.1,0,0,50,50,56,,,,,194.0347757000127,194.68550399999367,194.68550399999367,195.17008260003058,45,315,195.17008260003058,195.17008260003058,195.17008260003058,195.17008260003058,195.17008260003058,195.17008260003058,195.17008260003058,195.17008260003058,195.17008260003058,195.53649740002584,195.53649740002584,195.53649740002584,195.53649740002584,195.53649740002584,195.53649740002584,195.53649740002584,195.53649740002584,195.53649740002584,0,1,[0.0012391000054776669],[0.36717360001057386],195.53649740002584,195.7388219999848,1000,195.7388219999848,1000,1000,1000,1000,0,num_3,1.8943959000171162,,22,1,2026-03-04_10h21.43.128,2026A_exp2,2022.2.4,59.95394337200213,
1000,1,6.1,0.0,0,0,51,51,8,,,,,197.6554371000384,198.30588420003187,198.30588420003187,198.795831800031,45,45,198.795831800031,198.795831800031,198.795831800031,198.795831800031,198.795831800031,198.795831800031,198.795831800031,198.795831800031,198.795831800031,199.15670729998965,199.15670729998965,199.15670729998965,199.15670729998965,199.15670729998965,199.15670729998965,199.15670729998965,199.15670729998965,199.15670729998965,23,0,,,199.15670729998965,199.3590431000339,1000,199.3590431000339,1000,1000,1000,1000,0,num_3,1.0969522999948822,,22,1,2026-03-04_10h21.43.128,2026A_exp2,2022.2.4,59.95394337200213,
1000,1,0.0,0.0,0,0,52,52,5,,,,,200.47466589999385,201.12542160000885,201.12542160000885,201.62639280001167,315,315,201.62639280001167,201.62639280001167,201.62639280001167,201.62639280001167,201.62639280001167,201.62639280001167,201.62639280001167,201.62639280001167,201.62639280001167,201.9929404000286,201.9929404000286,201.9929404000286,201.9929404000286,201.9929404000286,201.9929404000286,201.9929404000286,201.9929404000286,201.9929404000286,21,1,[0.1502553999889642],[0.1834804000100121],201.9929404000286,202.19539489998715,1000,202.19539489998715,1000,1000,1000,1000,0,num_3,0.5327592000248842,,22,1,2026-03-04_10h21.43.128,2026A_exp2,2022.2.4,59.95394337200213,
0,0,0.0,0.0,0,0,53,53,67,,,,,202.74347109999508,203.39654430001974,203.39654430001974,203.90077080001356,45,45,203.90077080001356,203.90077080001356,203.90077080001356,203.90077080001356,203.90077080001356,203.90077080001356,203.90077080001356,203.90077080001356,203.90077080001356,204.26204559998587,204.26204559998587,204.26204559998587,204.26204559998587,204.26204559998587,204.26204559998587,204.26204559998587,204.26204559998587,204.26204559998587,23,0,,,204.26204559998587,204.46614830003818,0.0,204.46614830003818,0,0.0,0,1,1000,num_1,0.887268699996639,,22,1,2026-03-04_10h21.43.128,2026A_exp2,2022.2.4,59.95394337200213,
1,0,0.0,6.1,0,0,54,54,72,,,,,205.37955840001814,206.03021040000021,206.03021040000021,206.5147334000212,45,315,206.5147334000212,206.5147334000212,206.5147334000212,206.5147334000212,206.5147334000212,206.5147334000212,206.5147334000212,206.5147334000212,206.5147334000212,206.88124570000218,206.88124570000218,206.88124570000218,206.88124570000218,206.88124570000218,206.88124570000218,206.88124570000218,206.88124570000218,206.88124570000218,21,2,"[0.001223200000822544, 0.09963479998987168]","[0.017514600011054426, 0.11683790001552552]",206.88124570000218,207.08135719998972,0.0,207.08135719998972,1,0.0,0,0,1000,num_4,1.2237960000056773,,22,1,2026-03-04_10h21.43.128,2026A_exp2,2022.2.4,59.95394337200213,
1000,1,0.0,0.0,1,0,55,55,42,,,,,208.33252820000052,208.98333940003067,208.98333940003067,209.46764699998312,315,315,209.46764699998312,209.46764699998312,209.46764699998312,209.46764699998312,209.46764699998312,209.46764699998312,209.46764699998312,209.46764699998312,209.46764699998312,209.83411390002584,209.83411390002584,209.83411390002584,209.83411390002584,209.83411390002584,209.83411390002584,209.83411390002584,209.83411390002584,209.83411390002584,23,0,,,209.83411390002584,210.03612639999483,1000,210.03612639999483,1000,1000,1000,1000,1,num_2,0.6759888000087813,,22,1,2026-03-04_10h21.43.128,2026A_exp2,2022.2.4,59.95394337200213,
1000,1,6.1,0.0,1,0,56,56,79,,,,,210.73490400001174,211.38565549999475,211.38565549999475,211.88686110003619,315,45,211.88686110003619,211.88686110003619,211.88686110003619,211.88686110003619,211.88686110003619,211.88686110003619,211.88686110003619,211.88686110003619,211.88686110003619,212.25324530003127,212.25324530003127,212.25324530003127,212.25324530003127,212.25324530003127,212.25324530003127,212.25324530003127,212.25324530003127,212.25324530003127,16,4,"[0.001219899975694716, 0.13344529998721555, 0.19998879998456687, 0.36698799999430776]","[0.03334639995591715, 0.16673789999913424, 0.23350380000192672, 0.3669928999734111]",212.25324530003127,212.45528709999053,1000,212.45528709999053,1000,1000,1000,1000,1,num_2,0.5049003000021912,,22,1,2026-03-04_10h21.43.128,2026A_exp2,2022.2.4,59.95394337200213,
1000,1,6.1,6.1,0,0,57,57,74,,,,,212.98726180003723,213.63803259999258,213.63803259999258,214.13906810001936,315,45,214.13906810001936,214.13906810001936,214.13906810001936,214.13906810001936,214.13906810001936,214.13906810001936,214.13906810001936,214.13906810001936,214.13906810001936,214.5055801999988,214.5055801999988,214.5055801999988,214.5055801999988,214.5055801999988,214.5055801999988,214.5055801999988,214.5055801999988,214.5055801999988,23,0,,,214.5055801999988,214.70800400001463,1000,214.70800400001463,1000,1000,1000,1000,0,num_3,0.49322009994648397,,22,1,2026-03-04_10h21.43.128,2026A_exp2,2022.2.4,59.95394337200213,
1000,1,0.0,0.0,0,0,58,58,47,,,,,215.22297790000448,215.8733945999993,215.8733945999993,216.35795660002623,45,45,216.35795660002623,216.35795660002623,216.35795660002623,216.35795660002623,216.35795660002623,216.35795660002623,216.35795660002623,216.35795660002623,216.35795660002623,216.72439290001057,216.72439290001057,216.72439290001057,216.72439290001057,216.72439290001057,216.72439290001057,216.72439290001057,216.72439290001057,216.72439290001057,23,0,,,216.72439290001057,216.9270692000282,1000,216.9270692000282,1000,1000,1000,1000,0,num_3,0.3855760999722406,,22,1,2026-03-04_10h21.43.128,2026A_exp2,2022.2.4,59.95394337200213,
1,0,3.7,0.0,1,0,59,59,59,,,,,217.34160819998942,217.9921919000335,217.9921919000335,218.49339409999084,45,315,218.49339409999084,218.49339409999084,218.49339409999084,218.49339409999084,218.49339409999084,218.49339409999084,218.49339409999084,218.49339409999084,218.49339409999084,218.85959120001644,218.85959120001644,218.85959120001644,218.85959120001644,218.85959120001644,218.85959120001644,218.85959120001644,218.85959120001644,218.85959120001644,20,2,"[0.08351919997949153, 0.13290789996972308]","[0.11659330001566559, 0.14948800002457574]",218.85959120001644,219.0601642000256,0.0,219.0601642000256,1,0.0,0,0,1000,num_4,0.620175099989865,,22,1,2026-03-04_10h21.43.128,2026A_exp2,2022.2.4,59.95394337200213,
1000,1,0.0,0.0,1,0,60,60,39,,,,,219.71098030003486,220.3613100000075,220.3613100000075,220.84577800001716,315,45,220.84577800001716,220.84577800001716,220.84577800001716,220.84577800001716,220.84577800001716,220.84577800001716,220.84577800001716,220.84577800001716,220.84577800001716,221.21211269998457,221.21211269998457,221.21211269998457,221.21211269998457,221.21211269998457,221.21211269998457,221.21211269998457,221.21211269998457,221.21211269998457,4,4,"[0.017581799998879433, 0.11676930001704022, 0.1501068999641575, 0.18367910000961274]","[0.0999127000104636, 0.13354559999424964, 0.16698769998038188, 0.3673144999775104]",221.21211269998457,221.41412120003952,1000,221.41412120003952,1000,1000,1000,1000,1,num_2,0.7142607000423595,,22,1,2026-03-04_10h21.43.128,2026A_exp2,2022.2.4,59.95394337200213,
1,0,0.0,0.0,0,0,61,61,66,,,,,222.14633080002386,222.79697810002835,222.79697810002835,223.2981820999994,315,45,223.2981820999994,223.2981820999994,223.2981820999994,223.2981820999994,223.2981820999994,223.2981820999994,223.2981820999994,223.2981820999994,223.2981820999994,223.66467710002325,223.66467710002325,223.66467710002325,223.66467710002325,223.66467710002325,223.66467710002325,223.66467710002325,223.66467710002325,223.66467710002325,0,1,[0.0012010999489575624],[0.3671875],223.66467710002325,223.86475529999007,0.0,223.86475529999007,1,0.0,0,0,1000,num_4,0.7766741999657825,,22,1,2026-03-04_10h21.43.128,2026A_exp2,2022.2.4,59.95394337200213,
1,0,3.7,4.9,0,0,62,62,84,,,,,224.6655294999946,225.31630390003556,225.31630390003556,225.8006267999881,45,315,225.8006267999881,225.8006267999881,225.8006267999881,225.8006267999881,225.8006267999881,225.8006267999881,225.8006267999881,225.8006267999881,225.8006267999881,226.16701490001287,226.16701490001287,226.16701490001287,226.16701490001287,226.16701490001287,226.16701490001287,226.16701490001287,226.16701490001287,226.16701490001287,23,0,,,226.16701490001287,226.3674092000001,3.7,226.3674092000001,1,3.7,1,1,1000,num_4,0.5614050000440329,,22,1,2026-03-04_10h21.43.128,2026A_exp2,2022.2.4,59.95394337200213,
1000,1,4.9,0.0,0,0,63,63,78,,,,,226.95106440002564,227.60185269999783,227.60185269999783,228.08634770003846,45,45,228.08634770003846,228.08634770003846,228.08634770003846,228.08634770003846,228.08634770003846,228.08634770003846,228.08634770003846,228.08634770003846,228.08634770003846,228.45275430002948,228.45275430002948,228.45275430002948,228.45275430002948,228.45275430002948,228.45275430002948,228.45275430002948,228.45275430002948,228.45275430002948,22,1,[0.21733219997258857],[0.23354649997781962],228.45275430002948,228.65513470000587,1000,228.65513470000587,1000,1000,1000,1000,0,num_3,0.8581154000130482,,22,1,2026-03-04_10h21.43.128,2026A_exp2,2022.2.4,59.95394337200213,
0,0,0.0,0.0,0,0,64,64,4,,,,,229.5371496999869,230.1878097000299,230.1878097000299,230.68882239999948,45,315,230.68882239999948,230.68882239999948,230.68882239999948,230.68882239999948,230.68882239999948,230.68882239999948,230.68882239999948,230.68882239999948,230.68882239999948,231.05522219999693,231.05522219999693,231.05522219999693,231.05522219999693,231.05522219999693,231.05522219999693,231.05522219999693,231.05522219999693,231.05522219999693,0,1,[0.0012088000075891614],[0.36713239998789504],231.05522219999693,231.2555686000269,0.0,231.2555686000269,0,0.0,0,1,1000,num_1,0.6807998000294901,,22,1,2026-03-04_10h21.43.128,2026A_exp2,2022.2.4,59.95394337200213,
0,0,3.7,3.7,0,0,65,65,63,,,,,231.9560859000194,232.606794500025,232.606794500025,233.0914807000081,315,45,233.0914807000081,233.0914807000081,233.0914807000081,233.0914807000081,233.0914807000081,233.0914807000081,233.0914807000081,233.0914807000081,233.0914807000081,233.45763830002397,233.45763830002397,233.45763830002397,233.45763830002397,233.45763830002397,233.45763830002397,233.45763830002397,233.45763830002397,233.45763830002397,10,1,[0.0011978999827988446],[0.21721999999135733],233.45763830002397,233.65794920001645,3.7,233.65794920001645,0,3.7,1,0,1000,num_1,0.5667100999853574,,22,1,2026-03-04_10h21.43.128,2026A_exp2,2022.2.4,59.95394337200213,
0,0,3.7,6.1,1,0,66,66,17,,,,,234.24206399999093,234.89255530002993,234.89255530002993,235.37686760001816,45,315,235.37686760001816,235.37686760001816,235.37686760001816,235.37686760001816,235.37686760001816,235.37686760001816,235.37686760001816,235.37686760001816,235.37686760001816,235.7433849000372,235.7433849000372,235.7433849000372,235.7433849000372,235.7433849000372,235.7433849000372,235.7433849000372,235.7433849000372,235.7433849000372,15,2,"[0.0012753999908454716, 0.1501871999935247]","[0.11681320000207052, 0.16696200001752004]",235.7433849000372,235.9434642000124,3.7,235.9434642000124,0,3.7,1,0,1000,num_1,0.745937000028789,,22,1,2026-03-04_10h21.43.128,2026A_exp2,2022.2.4,59.95394337200213,
1000,1,3.7,0.0,1,0,67,67,44,,,,,236.7108309000032,237.36157180002192,237.36157180002192,237.8460267999908,315,315,237.8460267999908,237.8460267999908,237.8460267999908,237.8460267999908,237.8460267999908,237.8460267999908,237.8460267999908,237.8460267999908,237.8460267999908,238.21258910000324,238.21258910000324,238.21258910000324,238.21258910000324,238.21258910000324,238.21258910000324,238.21258910000324,238.21258910000324,238.21258910000324,23,0,,,238.21258910000324,238.41491789999418,1000,238.41491789999418,1000,1000,1000,1000,1,num_2,0.6739869000157341,,22,1,2026-03-04_10h21.43.128,2026A_exp2,2022.2.4,59.95394337200213,
1000,1,0.0,3.7,1,0,68,68,43,,,,,239.1133625000366,239.76391660002992,239.76391660002992,240.26516180002363,315,45,240.26516180002363,240.26516180002363,240.26516180002363,240.26516180002363,240.26516180002363,240.26516180002363,240.26516180002363,240.26516180002363,240.26516180002363,240.61474480002653,240.61474480002653,240.61474480002653,240.61474480002653,240.61474480002653,240.61474480002653,240.61474480002653,240.61474480002653,240.61474480002653,13,1,[0.001249499968253076],[0.15003429999342188],240.61474480002653,240.81683620001422,1000,240.83146509999642,1000,1000,1000,1000,1,num_2,0.4648548999684863,,22,1,2026-03-04_10h21.43.128,2026A_exp2,2022.2.4,59.95394337200213,
1000,1,3.7,3.7,0,0,69,69,16,,,,,241.3196767999907,241.96792850003112,241.96792850003112,242.4672991000116,315,45,242.4672991000116,242.4672991000116,242.4672991000116,242.4672991000116,242.4672991000116,242.4672991000116,242.4672991000116,242.4672991000116,242.4672991000116,242.83394390001195,242.83394390001195,242.83394390001195,242.83394390001195,242.83394390001195,242.83394390001195,242.83394390001195,242.83394390001195,242.83394390001195,13,5,"[0.0011992999934591353, 0.04985419998411089, 0.21686529996804893, 0.3171489000087604, 0.35028929996769875]","[0.03368449996924028, 0.06667279999237508, 0.30036299995845184, 0.33358889998635277, 0.367042500001844]",242.83394390001195,243.03570850001415,1000,243.03570850001415,1000,1000,1000,1000,0,num_3,0.34840239997720346,,22,1,2026-03-04_10h21.43.128,2026A_exp2,2022.2.4,59.95394337200213,
1,0,6.1,6.1,0,0,70,70,11,,,,,243.4008874000283,244.05163679999532,244.05163679999532,244.55271399999037,45,315,244.55271399999037,244.55271399999037,244.55271399999037,244.55271399999037,244.55271399999037,244.55271399999037,244.55271399999037,244.55271399999037,244.55271399999037,244.91905090003274,244.91905090003274,244.91905090003274,244.91905090003274,244.91905090003274,244.91905090003274,244.91905090003274,244.91905090003274,244.91905090003274,23,0,,,244.91905090003274,245.11941109999316,6.1,245.11941109999316,1,6.1,1,1,1000,num_4,0.7459400999941863,,22,1,2026-03-04_10h21.43.128,2026A_exp2,2022.2.4,59.95394337200213,
1,0,6.1,3.7,0,0,71,71,86,,,,,245.88673060003202,246.5374592000153,246.5374592000153,247.0219123000279,315,45,247.0219123000279,247.0219123000279,247.0219123000279,247.0219123000279,247.0219123000279,247.0219123000279,247.0219123000279,247.0219123000279,247.0219123000279,247.3883821000345,247.3883821000345,247.3883821000345,247.3883821000345,247.3883821000345,247.3883821000345,247.3883821000345,247.3883821000345,247.3883821000345,22,1,[0.001280499971471727],[0.017504199990071356],247.3883821000345,247.58852640003897,6.1,247.58852640003897,1,6.1,1,1,1000,num_4,0.3484935999731533,,22,1,2026-03-04_10h21.43.128,2026A_exp2,2022.2.4,59.95394337200213,
1000,1,6.1,4.9,0,0,72,72,77,,,,,247.9553414999973,248.60621220001485,248.60621220001485,249.09053470002254,315,45,249.09053470002254,249.09053470002254,249.09053470002254,249.09053470002254,249.09053470002254,249.09053470002254,249.09053470002254,249.09053470002254,249.09053470002254,249.4571042000316,249.4571042000316,249.4571042000316,249.4571042000316,249.4571042000316,249.4571042000316,249.4571042000316,249.4571042000316,249.4571042000316,21,1,[0.01739090000046417],[0.05036310001742095],249.4571042000316,249.65939749998506,1000,249.65939749998506,1000,1000,1000,1000,0,num_3,1.0052241000230424,,22,1,2026-03-04_10h21.43.128,2026A_exp2,2022.2.4,59.95394337200213,
1000,1,6.1,3.7,0,0,73,73,61,,,,,250.6916156000225,251.34229629999027,251.34229629999027,251.84341309999581,315,315,251.84341309999581,251.84341309999581,251.84341309999581,251.84341309999581,251.84341309999581,251.84341309999581,251.84341309999581,251.84341309999581,251.84341309999581,252.1930440000142,252.1930440000142,252.1930440000142,252.1930440000142,252.1930440000142,252.1930440000142,252.1930440000142,252.1930440000142,252.1930440000142,22,0,,,252.1930440000142,252.3949192999862,1000,252.41002850001678,1000,1000,1000,1000,0,num_3,0.4306417999905534,,22,1,2026-03-04_10h21.43.128,2026A_exp2,2022.2.4,59.95394337200213,
1000,1,4.9,4.9,1,0,74,74,60,,,,,252.8603521999903,253.51113270001952,253.51113270001952,254.0121536999941,45,315,254.0121536999941,254.0121536999941,254.0121536999941,254.0121536999941,254.0121536999941,254.0121536999941,254.0121536999941,254.0121536999941,254.0121536999941,254.37866909999866,254.37866909999866,254.37866909999866,254.37866909999866,254.37866909999866,254.37866909999866,254.37866909999866,254.37866909999866,254.37866909999866,18,2,"[0.0012515000416897237, 0.033550299995113164]","[0.01738810003735125, 0.10029400000348687]",254.37866909999866,254.59884049999528,1000,254.59884049999528,1000,1000,1000,1000,1,num_2,0.34588400000939146,,22,1,2026-03-04_10h21.43.128,2026A_exp2,2022.2.4,59.95394337200213,
1,0,0.0,3.7,1,0,75,75,25,,,,,254.96242970001185,255.61316060001263,255.61316060001263,256.1143885999918,315,45,256.1143885999918,256.1143885999918,256.1143885999918,256.1143885999918,256.1143885999918,256.1143885999918,256.1143885999918,256.1143885999918,256.1143885999918,256.4806438999949,256.4806438999949,256.4806438999949,256.4806438999949,256.4806438999949,256.4806438999949,256.4806438999949,256.4806438999949,256.4806438999949,23,0,,,256.4806438999949,256.6809830000275,3.7,256.6809830000275,1,3.7,1,1,1000,num_4,0.5189701999770477,,22,1,2026-03-04_10h21.43.128,2026A_exp2,2022.2.4,59.95394337200213,
1000,1,3.7,0.0,1,0,76,76,21,,,,,257.2314340000157,257.8821049000253,257.8821049000253,258.36659900000086,315,315,258.36659900000086,258.36659900000086,258.36659900000086,258.36659900000086,258.36659900000086,258.36659900000086,258.36659900000086,258.36659900000086,258.36659900000086,258.7327339000185,258.7327339000185,258.7327339000185,258.7327339000185,258.7327339000185,258.7327339000185,258.7327339000185,258.7327339000185,258.7327339000185,19,3,"[0.0012398999533616006, 0.05004820000613108, 0.08342419995460659]","[0.03352259995881468, 0.06680249999044463, 0.10003669996513054]",258.7327339000185,258.93523830000777,1000,258.93523830000777,1000,1000,1000,1000,1,num_2,0.5288902000174858,,22,1,2026-03-04_10h21.43.128,2026A_exp2,2022.2.4,59.95394337200213,
1,0,6.1,6.1,1,0,77,77,89,,,,,259.48419640003704,260.13443249999546,260.13443249999546,260.63545920001343,45,45,260.63545920001343,260.63545920001343,260.63545920001343,260.63545920001343,260.63545920001343,260.63545920001343,260.63545920001343,260.63545920001343,260.63545920001343,261.00154269998893,261.00154269998893,261.00154269998893,261.00154269998893,261.00154269998893,261.00154269998893,261.00154269998893,261.00154269998893,261.00154269998893,23,0,,,261.00154269998893,261.20190809998894,6.1,261.20190809998894,1,6.1,1,1,1000,num_4,0.6627796000102535,,22,1,2026-03-04_10h21.43.128,2026A_exp2,2022.2.4,59.95394337200213,
1000,1,4.9,4.9,1,0,78,78,85,,,,,261.8860604999936,262.5367805000278,262.5367805000278,263.02135230001295,45,45,263.02135230001295,263.02135230001295,263.02135230001295,263.02135230001295,263.02135230001295,263.02135230001295,263.02135230001295,263.02135230001295,263.02135230001295,263.3875617000158,263.3875617000158,263.3875617000158,263.3875617000158,263.3875617000158,263.3875617000158,263.3875617000158,263.3875617000158,263.3875617000158,15,3,"[0.05031580000650138, 0.13368170004105195, 0.2338533000438474]","[0.06693000002996996, 0.2170810000388883, 0.2670750000397675]",263.3875617000158,263.587937000033,1000,263.587937000033,1000,1000,1000,1000,1,num_2,0.5969645000295714,,22,1,2026-03-04_10h21.43.128,2026A_exp2,2022.2.4,59.95394337200213,
1,0,3.7,4.9,0,0,79,79,31,,,,,264.2051071000169,264.8557868000353,264.8557868000353,265.35696720000124,315,315,265.35696720000124,265.35696720000124,265.35696720000124,265.35696720000124,265.35696720000124,265.35696720000124,265.35696720000124,265.35696720000124,265.35696720000124,265.7233763000113,265.7233763000113,265.7233763000113,265.7233763000113,265.7233763000113,265.7233763000113,265.7233763000113,265.7233763000113,265.7233763000113,22,1,[0.33363579999422655],[0.3502961000194773],265.7233763000113,265.9233929000329,3.7,265.9233929000329,1,3.7,1,1,1000,num_4,0.5900197000009939,,22,1,2026-03-04_10h21.43.128,2026A_exp2,2022.2.4,59.95394337200213,
0,0,0.0,0.0,0,0,80,80,69,,,,,266.54073400003836,267.1916308000218,267.1916308000218,267.6756202999968,45,45,267.6756202999968,267.6756202999968,267.6756202999968,267.6756202999968,267.6756202999968,267.6756202999968,267.6756202999968,267.6756202999968,267.6756202999968,268.04229230002966,268.04229230002966,268.04229230002966,268.04229230002966,268.04229230002966,268.04229230002966,268.04229230002966,268.04229230002966,268.04229230002966,23,0,,,268.04229230002966,268.2425347000244,0.0,268.2425347000244,0,0.0,0,1,1000,num_1,0.6215398000204004,,22,1,2026-03-04_10h21.43.128,2026A_exp2,2022.2.4,59.95394337200213,
1000,1,4.9,0.0,0,0,81,81,20,,,,,268.8930457000388,269.5440749999834,269.5440749999834,270.0282904999913,45,315,270.0282904999913,270.0282904999913,270.0282904999913,270.0282904999913,270.0282904999913,270.0282904999913,270.0282904999913,270.0282904999913,270.0282904999913,270.39462139998795,270.39462139998795,270.39462139998795,270.39462139998795,270.39462139998795,270.39462139998795,270.39462139998795,270.39462139998795,270.39462139998795,23,0,,,270.39462139998795,270.59731430001557,1000,270.59731430001557,1000,1000,1000,1000,0,num_3,0.3547693999717012,,22,1,2026-03-04_10h21.43.128,2026A_exp2,2022.2.4,59.95394337200213,
1000,1,0.0,4.9,0,0,82,82,27,,,,,270.9784954999923,271.62918400001945,271.62918400001945,272.1303944999818,45,45,272.1303944999818,272.1303944999818,272.1303944999818,272.1303944999818,272.1303944999818,272.1303944999818,272.1303944999818,272.1303944999818,272.1303944999818,272.4968004000257,272.4968004000257,272.4968004000257,272.4968004000257,272.4968004000257,272.4968004000257,272.4968004000257,272.4968004000257,272.4968004000257,23,0,,,272.4968004000257,272.6975694000139,1000,272.6975694000139,1000,1000,1000,1000,0,num_3,0.39842300000600517,,22,1,2026-03-04_10h21.43.128,2026A_exp2,2022.2.4,59.95394337200213,
1,0,6.1,0.0,1,0,83,83,38,,,,,273.11401329998625,273.7649334000307,273.7649334000307,274.2658231999958,45,315,274.2658231999958,274.2658231999958,274.2658231999958,274.2658231999958,274.2658231999958,274.2658231999958,274.2658231999958,274.2658231999958,274.2658231999958,274.6322367999819,274.6322367999819,274.6322367999819,274.6322367999819,274.6322367999819,274.6322367999819,274.6322367999819,274.6322367999819,274.6322367999819,21,2,"[0.017494199972134084, 0.3504963999730535]","[0.03347429999848828, 0.3670560999889858]",274.6322367999819,274.8322861000197,0.0,274.8322861000197,1,0.0,0,0,1000,num_4,0.5200214000069536,,22,1,2026-03-04_10h21.43.128,2026A_exp2,2022.2.4,59.95394337200213,
1000,1,3.7,4.9,0,0,84,84,13,,,,,275.38272749999305,276.03362910001306,276.03362910001306,276.51812600000994,315,45,276.51812600000994,276.51812600000994,276.51812600000994,276.51812600000994,276.51812600000994,276.51812600000994,276.51812600000994,276.51812600000994,276.51812600000994,276.88455700001214,276.88455700001214,276.88455700001214,276.88455700001214,276.88455700001214,276.88455700001214,276.88455700001214,276.88455700001214,276.88455700001214,21,1,[0.0336086000315845],[0.06701560004148632],276.88455700001214,277.0862879999913,1000,277.0862879999913,1000,1000,1000,1000,0,num_3,0.4498001000029035,,22,1,2026-03-04_10h21.43.128,2026A_exp2,2022.2.4,59.95394337200213,
1000,1,0.0,3.7,1,0,85,85,75,,,,,277.55172699998366,278.20248550002,278.20248550002,278.70354740001494,45,315,278.70354740001494,278.70354740001494,278.70354740001494,278.70354740001494,278.70354740001494,278.70354740001494,278.70354740001494,278.70354740001494,278.70354740001494,279.06985229998827,279.06985229998827,279.06985229998827,279.06985229998827,279.06985229998827,279.06985229998827,279.06985229998827,279.06985229998827,279.06985229998827,9,2,"[0.0007619999814778566, 0.23418590001529083]","[0.21725320001132786, 0.25087549997260794]",279.06985229998827,279.27225809998345,1000,279.27225809998345,1000,1000,1000,1000,1,num_2,0.6808693000348285,,22,1,2026-03-04_10h21.43.128,2026A_exp2,2022.2.4,59.95394337200213,
1,0,4.9,0.0,1,0,86,86,48,,,,,279.9713464000379,280.62152440001955,280.62152440001955,281.10595579998335,45,45,281.10595579998335,281.10595579998335,281.10595579998335,281.10595579998335,281.10595579998335,281.10595579998335,281.10595579998335,281.10595579998335,281.10595579998335,281.4722545000259,281.4722545000259,281.4722545000259,281.4722545000259,281.4722545000259,281.4722545000259,281.4722545000259,281.4722545000259,281.4722545000259,13,2,"[0.13377120002405718, 0.31712429999606684]","[0.2504309000214562, 0.36705310002435]",281.4722545000259,281.6725586000248,0.0,281.6725586000248,1,0.0,0,0,1000,num_4,0.3513525000307709,,22,1,2026-03-04_10h21.43.128,2026A_exp2,2022.2.4,59.95394337200213,
1,0,0.0,3.7,0,0,87,87,2,,,,,282.0395103000337,282.6903568999842,282.6903568999842,283.17475549998926,45,45,283.17475549998926,283.17475549998926,283.17475549998926,283.17475549998926,283.17475549998926,283.17475549998926,283.17475549998926,283.17475549998926,283.17475549998926,283.54106600000523,283.54106600000523,283.54106600000523,283.54106600000523,283.54106600000523,283.54106600000523,283.54106600000523,283.54106600000523,283.54106600000523,0,1,[0.0012401000130921602],[0.367122300027404],283.54106600000523,283.7413594000391,0.0,283.7413594000391,0,0.0,0,1,1000,num_1,0.3633908000192605,,22,1,2026-03-04_10h21.43.128,2026A_exp2,2022.2.4,59.95394337200213,
1000,1,6.1,0.0,1,0,88,88,52,,,,,284.1249491000199,284.7757410000195,284.7757410000195,285.27673039998626,315,315,285.27673039998626,285.27673039998626,285.27673039998626,285.27673039998626,285.27673039998626,285.27673039998626,285.27673039998626,285.27673039998626,285.27673039998626,285.6266098000342,285.6266098000342,285.6266098000342,285.6266098000342,285.6266098000342,285.6266098000342,285.6266098000342,285.6266098000342,285.6266098000342,6,5,"[0.01740740000968799, 0.10025620000669733, 0.13360780000220984, 0.283822700032033, 0.3505097000161186]","[0.08353509998414665, 0.1170202000066638, 0.26710679999087006, 0.31708639999851584, 0.35051479999674484]",285.6266098000342,285.8273473000154,1000,285.8273473000154,1000,1000,1000,1000,1,num_2,0.34975369996391237,,22,1,2026-03-04_10h21.43.128,2026A_exp2,2022.2.4,59.95394337200213,
1,0,6.1,0.0,0,0,89,89,24,,,,,286.1937437999877,286.8445578000392,286.8445578000392,287.3453612999874,45,315,287.3453612999874,287.3453612999874,287.3453612999874,287.3453612999874,287.3453612999874,287.3453612999874,287.3453612999874,287.3453612999874,287.3453612999874,287.712010200019,287.712010200019,287.712010200019,287.712010200019,287.712010200019,287.712010200019,287.712010200019,287.712010200019,287.712010200019,23,0,,,287.712010200019,287.9122418999905,6.1,287.9122418999905,1,6.1,1,1,1000,num_4,1.2562315000104718,,22,1,2026-03-04_10h21.43.128,2026A_exp2,2022.2.4,59.95394337200213,
,,,,,,,,,,,,,,,,,,,,,,,,,,,,,,,,,,,,,,,,,,,,,,,,,,,,289.2067363000242,,,,,,,
