validity,detectorcomp,contrastCW,contrastCCW,precueCWorCCW,block_80trials.thisRepN,block_80trials.thisTrialN,block_80trials.thisN,block_80trials.thisIndex,etRecord.started,etRecord.stopped,text.started,text.stopped,text_4.started,text_4.stopped,text_6.started,text_6.stopped,oriCW,oriCCW,roi_2.started,grating_UR.started,grating_UL.started,grating_LR.started,grating_LL.started,noise_UR.started,noise_UL.started,noise_LR.started,noise_LL.started,roi_2.stopped,grating_UR.stopped,grating_UL.stopped,grating_LR.stopped,grating_LL.stopped,noise_UR.stopped,noise_UL.stopped,noise_LR.stopped,noise_LL.stopped,outframe,roi_2.numLooks,roi_2.timesOn,roi_2.timesOff,text_2.started,text_2.stopped,probedcontrast,key_resp.started,respdetect,relevantContrast,correctDetect,TorFdetect,respCWorCCW,key_resp.keys,key_resp.rt,feedback_display_.started,participantNo,blockNo,date,expName,psychopyVersion,frameRate,
1000,1,0.0,0.0,0,0,0,0,6,4.6600005589425564e-05,4.6600005589425564e-05,45.53693289999501,47.54048299998976,47.54048299998976,48.19059589999961,48.19059589999961,48.69791359998635,45,315,48.69791359998635,48.69791359998635,48.69791359998635,48.69791359998635,48.69791359998635,48.69791359998635,48.69791359998635,48.69791359998635,48.69791359998635,49.04039889998967,49.04039889998967,49.04039889998967,49.04039889998967,49.04039889998967,49.04039889998967,49.04039889998967,49.04039889998967,49.04039889998967,19,1,[0.04115740000270307],[0.08377249998738989],49.04039889998967,49.24294599998393,1000,49.24294599998393,1000,1000,1000,1000,1,num_2,0.831834099983098,,18,9,2026-03-02_10h59.41.667,2026A_exp2,2022.2.4,60.00211207645714,
1,0,3.7,6.1,1,0,1,1,77,,,,,50.09160129999509,50.74265999998897,50.74265999998897,51.24338510000962,45,45,51.24338510000962,51.24338510000962,51.24338510000962,51.24338510000962,51.24338510000962,51.24338510000962,51.24338510000962,51.24338510000962,51.24338510000962,51.609555500006536,51.609555500006536,51.609555500006536,51.609555500006536,51.609555500006536,51.609555500006536,51.609555500006536,51.609555500006536,51.609555500006536,23,0,,,51.609555500006536,51.81078569998499,6.1,51.81078569998499,1,6.1,1,1,1000,num_4,0.4000618999998551,,18,9,2026-03-02_10h59.41.667,2026A_exp2,2022.2.4,60.00211207645714,
1,0,3.7,0.0,1,0,2,2,12,,,,,52.22683929998311,52.860901699983515,52.860901699983515,53.362240299989935,45,45,53.362240299989935,53.362240299989935,53.362240299989935,53.362240299989935,53.362240299989935,53.362240299989935,53.362240299989935,53.362240299989935,53.362240299989935,53.72860299999593,53.72860299999593,53.72860299999593,53.72860299999593,53.72860299999593,53.72860299999593,53.72860299999593,53.72860299999593,53.72860299999593,23,0,,,53.72860299999593,53.92881369998213,0.0,53.92881369998213,0,0.0,0,1,1000,num_1,0.7856046000088099,,18,9,2026-03-02_10h59.41.667,2026A_exp2,2022.2.4,60.00211207645714,
1,0,0.0,4.9,1,0,3,3,1,,,,,54.74611740000546,55.38025039999047,55.38025039999047,55.88212090000161,315,315,55.88212090000161,55.88212090000161,55.88212090000161,55.88212090000161,55.88212090000161,55.88212090000161,55.88212090000161,55.88212090000161,55.88212090000161,56.24866749998182,56.24866749998182,56.24866749998182,56.24866749998182,56.24866749998182,56.24866749998182,56.24866749998182,56.24866749998182,56.24866749998182,23,0,,,56.24866749998182,56.44805259999703,4.9,56.44805259999703,1,4.9,1,1,1000,num_4,0.4187456999788992,,18,9,2026-03-02_10h59.41.667,2026A_exp2,2022.2.4,60.00211207645714,
1,0,4.9,6.1,0,0,4,4,33,,,,,56.89912620000541,57.549111000000266,57.549111000000266,58.03358739998657,45,315,58.03358739998657,58.03358739998657,58.03358739998657,58.03358739998657,58.03358739998657,58.03358739998657,58.03358739998657,58.03358739998657,58.03358739998657,58.399695700005395,58.399695700005395,58.399695700005395,58.399695700005395,58.399695700005395,58.399695700005395,58.399695700005395,58.399695700005395,58.399695700005395,23,0,,,58.399695700005395,58.59999170000083,4.9,58.59999170000083,1,4.9,1,1,1000,num_4,0.4020944000221789,,18,9,2026-03-02_10h59.41.667,2026A_exp2,2022.2.4,60.00211207645714,
1000,1,0.0,0.0,0,0,5,5,37,,,,,59.033668299991405,59.68422199998167,59.68422199998167,60.16903859999729,45,45,60.16903859999729,60.16903859999729,60.16903859999729,60.16903859999729,60.16903859999729,60.16903859999729,60.16903859999729,60.16903859999729,60.16903859999729,60.535389399999985,60.535389399999985,60.535389399999985,60.535389399999985,60.535389399999985,60.535389399999985,60.535389399999985,60.535389399999985,60.535389399999985,23,0,,,60.535389399999985,60.735595300007844,1000,60.735595300007844,1000,1000,1000,1000,1,num_2,0.6185380000097211,,18,9,2026-03-02_10h59.41.667,2026A_exp2,2022.2.4,60.00211207645714,
1,0,6.1,6.1,0,0,6,6,27,,,,,61.38614250000683,62.03682799998205,62.03682799998205,62.53796389998752,315,315,62.53796389998752,62.53796389998752,62.53796389998752,62.53796389998752,62.53796389998752,62.53796389998752,62.53796389998752,62.53796389998752,62.53796389998752,62.887732300005155,62.887732300005155,62.887732300005155,62.887732300005155,62.887732300005155,62.887732300005155,62.887732300005155,62.887732300005155,62.887732300005155,22,0,,,62.887732300005155,63.08775780000724,6.1,63.104524800000945,1,6.1,1,1,1000,num_4,0.3454650000203401,,18,9,2026-03-02_10h59.41.667,2026A_exp2,2022.2.4,60.00211207645714,
1,0,4.9,3.7,1,0,7,7,10,,,,,63.47152419999475,64.12231380000594,64.12231380000594,64.60657370000263,315,315,64.60657370000263,64.60657370000263,64.60657370000263,64.60657370000263,64.60657370000263,64.60657370000263,64.60657370000263,64.60657370000263,64.60657370000263,64.97361829999136,64.97361829999136,64.97361829999136,64.97361829999136,64.97361829999136,64.97361829999136,64.97361829999136,64.97361829999136,64.97361829999136,23,0,,,64.97361829999136,65.17322799999965,3.7,65.17322799999965,0,3.7,1,0,1000,num_1,0.36498630000278354,,18,9,2026-03-02_10h59.41.667,2026A_exp2,2022.2.4,60.00211207645714,
1,0,4.9,3.7,1,0,8,8,26,,,,,65.55674999998882,66.20748949999688,66.20748949999688,66.69258080000873,45,315,66.69258080000873,66.69258080000873,66.69258080000873,66.69258080000873,66.69258080000873,66.69258080000873,66.69258080000873,66.69258080000873,66.69258080000873,67.05846509998082,67.05846509998082,67.05846509998082,67.05846509998082,67.05846509998082,67.05846509998082,67.05846509998082,67.05846509998082,67.05846509998082,23,0,,,67.05846509998082,67.25894179998431,3.7,67.25894179998431,1,3.7,1,1,1000,num_4,0.4716016000020318,,18,9,2026-03-02_10h59.41.667,2026A_exp2,2022.2.4,60.00211207645714,
1000,1,0.0,6.1,1,0,9,9,62,,,,,67.75966660000267,68.40976829998544,68.40976829998544,68.89409919999889,45,45,68.89409919999889,68.89409919999889,68.89409919999889,68.89409919999889,68.89409919999889,68.89409919999889,68.89409919999889,68.89409919999889,68.89409919999889,69.2610885000031,69.2610885000031,69.2610885000031,69.2610885000031,69.2610885000031,69.2610885000031,69.2610885000031,69.2610885000031,69.2610885000031,23,0,,,69.2610885000031,69.46081039999262,1000,69.46081039999262,1000,1000,1000,1000,1,num_2,0.5900488000188489,,18,9,2026-03-02_10h59.41.667,2026A_exp2,2022.2.4,60.00211207645714,
1,0,0.0,3.7,0,0,10,10,61,,,,,70.0795373999863,70.72874689998571,70.72874689998571,71.2129583999922,45,45,71.2129583999922,71.2129583999922,71.2129583999922,71.2129583999922,71.2129583999922,71.2129583999922,71.2129583999922,71.2129583999922,71.2129583999922,71.57966640000814,71.57966640000814,71.57966640000814,71.57966640000814,71.57966640000814,71.57966640000814,71.57966640000814,71.57966640000814,71.57966640000814,23,0,,,71.57966640000814,71.7797961999895,0.0,71.7797961999895,1,0.0,0,0,1000,num_4,0.7032658999960404,,18,9,2026-03-02_10h59.41.667,2026A_exp2,2022.2.4,60.00211207645714,
1000,1,0.0,6.1,0,0,11,11,58,,,,,72.51373149998835,73.16469659999711,73.16469659999711,73.64898150000954,45,315,73.64898150000954,73.64898150000954,73.64898150000954,73.64898150000954,73.64898150000954,73.64898150000954,73.64898150000954,73.64898150000954,73.64898150000954,74.01618569999118,74.01618569999118,74.01618569999118,74.01618569999118,74.01618569999118,74.01618569999118,74.01618569999118,74.01618569999118,74.01618569999118,23,0,,,74.01618569999118,74.2157779999834,1000,74.2157779999834,1000,1000,1000,1000,1,num_2,0.786863400018774,,18,9,2026-03-02_10h59.41.667,2026A_exp2,2022.2.4,60.00211207645714,
1000,1,3.7,0.0,0,0,12,12,66,,,,,75.03322399998433,75.68339869999909,75.68339869999909,76.18455740000354,45,315,76.18455740000354,76.18455740000354,76.18455740000354,76.18455740000354,76.18455740000354,76.18455740000354,76.18455740000354,76.18455740000354,76.18455740000354,76.53434059998835,76.53434059998835,76.53434059998835,76.53434059998835,76.53434059998835,76.53434059998835,76.53434059998835,76.53434059998835,76.53434059998835,22,0,,,76.53434059998835,76.734647699981,1000,76.734647699981,1000,1000,1000,1000,0,num_3,0.6282863999949768,,18,9,2026-03-02_10h59.41.667,2026A_exp2,2022.2.4,60.00211207645714,
1000,1,3.7,0.0,0,0,13,13,32,,,,,77.38520799999242,78.03577729998506,78.03577729998506,78.53692889999365,315,45,78.53692889999365,78.53692889999365,78.53692889999365,78.53692889999365,78.53692889999365,78.53692889999365,78.53692889999365,78.53692889999365,78.53692889999365,78.88757920000353,78.88757920000353,78.88757920000353,78.88757920000353,78.88757920000353,78.88757920000353,78.88757920000353,78.88757920000353,78.88757920000353,22,0,,,78.88757920000353,79.08863929999643,1000,79.08863929999643,1000,1000,1000,1000,0,num_3,0.377495299995644,,18,9,2026-03-02_10h59.41.667,2026A_exp2,2022.2.4,60.00211207645714,
1000,1,0.0,0.0,1,0,14,14,60,,,,,79.48725659999764,80.13788019999629,80.13788019999629,80.62248489999911,315,45,80.62248489999911,80.62248489999911,80.62248489999911,80.62248489999911,80.62248489999911,80.62248489999911,80.62248489999911,80.62248489999911,80.62248489999911,80.98887410000316,80.98887410000316,80.98887410000316,80.98887410000316,80.98887410000316,80.98887410000316,80.98887410000316,80.98887410000316,80.98887410000316,23,0,,,80.98887410000316,81.1893235000025,1000,81.1893235000025,1000,1000,1000,1000,0,num_3,0.6934354999975767,,18,9,2026-03-02_10h59.41.667,2026A_exp2,2022.2.4,60.00211207645714,
1,0,4.9,3.7,0,0,15,15,9,,,,,81.90717439999571,82.54209629999241,82.54209629999241,83.04179079999449,45,315,83.04179079999449,83.04179079999449,83.04179079999449,83.04179079999449,83.04179079999449,83.04179079999449,83.04179079999449,83.04179079999449,83.04179079999449,83.40780489999452,83.40780489999452,83.40780489999452,83.40780489999452,83.40780489999452,83.40780489999452,83.40780489999452,83.40780489999452,83.40780489999452,23,0,,,83.40780489999452,83.60801749999519,4.9,83.60801749999519,1,4.9,1,1,1000,num_4,0.5703411999857053,,18,9,2026-03-02_10h59.41.667,2026A_exp2,2022.2.4,60.00211207645714,
1000,1,0.0,6.1,1,0,16,16,52,,,,,84.20881019998342,84.85972419998143,84.85972419998143,85.34430830000201,315,315,85.34430830000201,85.34430830000201,85.34430830000201,85.34430830000201,85.34430830000201,85.34430830000201,85.34430830000201,85.34430830000201,85.34430830000201,85.71044070000062,85.71044070000062,85.71044070000062,85.71044070000062,85.71044070000062,85.71044070000062,85.71044070000062,85.71044070000062,85.71044070000062,23,0,,,85.71044070000062,85.91080839998904,1000,85.91080839998904,1000,1000,1000,1000,1,num_2,0.5316439000016544,,18,9,2026-03-02_10h59.41.667,2026A_exp2,2022.2.4,60.00211207645714,
1000,1,0.0,6.1,1,0,17,17,3,,,,,86.46133150000242,87.09540980000747,87.09540980000747,87.59657190000871,315,45,87.59657190000871,87.59657190000871,87.59657190000871,87.59657190000871,87.59657190000871,87.59657190000871,87.59657190000871,87.59657190000871,87.59657190000871,87.96311599999899,87.96311599999899,87.96311599999899,87.96311599999899,87.96311599999899,87.96311599999899,87.96311599999899,87.96311599999899,87.96311599999899,23,0,,,87.96311599999899,88.16277189998073,1000,88.16277189998073,1000,1000,1000,1000,1,num_2,0.40022310000495054,,18,9,2026-03-02_10h59.41.667,2026A_exp2,2022.2.4,60.00211207645714,
1000,1,3.7,0.0,1,0,18,18,88,,,,,88.58021230000304,89.21495950000826,89.21495950000826,89.73167999999714,315,45,89.73167999999714,89.73167999999714,89.73167999999714,89.73167999999714,89.73167999999714,89.73167999999714,89.73167999999714,89.73167999999714,89.73167999999714,90.0809658000071,90.0809658000071,90.0809658000071,90.0809658000071,90.0809658000071,90.0809658000071,90.0809658000071,90.0809658000071,90.0809658000071,22,0,,,90.0809658000071,90.28184350000811,1000,90.28184350000811,1000,1000,1000,1000,0,num_3,0.7286740000126883,,18,9,2026-03-02_10h59.41.667,2026A_exp2,2022.2.4,60.00211207645714,
1000,1,6.1,0.0,0,0,19,19,59,,,,,91.0321306999831,91.6829797999817,91.6829797999817,92.16737389998161,315,45,92.16737389998161,92.16737389998161,92.16737389998161,92.16737389998161,92.16737389998161,92.16737389998161,92.16737389998161,92.16737389998161,92.16737389998161,92.53351549999206,92.53351549999206,92.53351549999206,92.53351549999206,92.53351549999206,92.53351549999206,92.53351549999206,92.53351549999206,92.53351549999206,23,0,,,92.53351549999206,92.73392820000299,1000,92.73392820000299,1000,1000,1000,1000,0,num_3,0.38875400001415983,,18,9,2026-03-02_10h59.41.667,2026A_exp2,2022.2.4,60.00211207645714,
1000,1,0.0,0.0,1,0,20,20,23,,,,,93.15119770000456,93.80232160000014,93.80232160000014,94.28677659999812,315,45,94.28677659999812,94.28677659999812,94.28677659999812,94.28677659999812,94.28677659999812,94.28677659999812,94.28677659999812,94.28677659999812,94.28677659999812,94.65271490000305,94.65271490000305,94.65271490000305,94.65271490000305,94.65271490000305,94.65271490000305,94.65271490000305,94.65271490000305,94.65271490000305,23,0,,,94.65271490000305,94.85333559999708,1000,94.85333559999708,1000,1000,1000,1000,0,num_3,0.5338067999982741,,18,9,2026-03-02_10h59.41.667,2026A_exp2,2022.2.4,60.00211207645714,
1000,1,0.0,0.0,1,0,21,21,40,,,,,95.40333739999915,96.05378379998729,96.05378379998729,96.5385166000051,45,45,96.5385166000051,96.5385166000051,96.5385166000051,96.5385166000051,96.5385166000051,96.5385166000051,96.5385166000051,96.5385166000051,96.5385166000051,96.9050270000007,96.9050270000007,96.9050270000007,96.9050270000007,96.9050270000007,96.9050270000007,96.9050270000007,96.9050270000007,96.9050270000007,23,0,,,96.9050270000007,97.1065302999923,1000,97.1065302999923,1000,1000,1000,1000,0,num_3,0.5119758000073489,,18,9,2026-03-02_10h59.41.667,2026A_exp2,2022.2.4,60.00211207645714,
1,0,3.7,3.7,1,0,22,22,86,,,,,97.6388891999959,98.27289809999638,98.27289809999638,98.7745362999849,315,315,98.7745362999849,98.7745362999849,98.7745362999849,98.7745362999849,98.7745362999849,98.7745362999849,98.7745362999849,98.7745362999849,98.7745362999849,99.14040060000843,99.14040060000843,99.14040060000843,99.14040060000843,99.14040060000843,99.14040060000843,99.14040060000843,99.14040060000843,99.14040060000843,23,0,,,99.14040060000843,99.34063789999345,3.7,99.34063789999345,0,3.7,1,0,1000,num_1,1.0701215000008233,,18,9,2026-03-02_10h59.41.667,2026A_exp2,2022.2.4,60.00211207645714,
0,0,0.0,3.7,0,0,23,23,47,,,,,100.44204460000037,101.07594399998197,101.07594399998197,101.5767710999935,45,45,101.5767710999935,101.5767710999935,101.5767710999935,101.5767710999935,101.5767710999935,101.5767710999935,101.5767710999935,101.5767710999935,101.5767710999935,101.94327819999307,101.94327819999307,101.94327819999307,101.94327819999307,101.94327819999307,101.94327819999307,101.94327819999307,101.94327819999307,101.94327819999307,23,0,,,101.94327819999307,102.1431894999987,3.7,102.1431894999987,1,3.7,1,1,1000,num_4,1.3631219000089914,,18,9,2026-03-02_10h59.41.667,2026A_exp2,2022.2.4,60.00211207645714,
1000,1,0.0,0.0,0,0,24,24,72,,,,,103.5294045000046,104.178888800001,104.178888800001,104.66483840000001,315,315,104.66483840000001,104.66483840000001,104.66483840000001,104.66483840000001,104.66483840000001,104.66483840000001,104.66483840000001,104.66483840000001,104.66483840000001,105.02994760000729,105.02994760000729,105.02994760000729,105.02994760000729,105.02994760000729,105.02994760000729,105.02994760000729,105.02994760000729,105.02994760000729,23,0,,,105.02994760000729,105.23127299998305,1000,105.23127299998305,1000,1000,1000,1000,1,num_2,0.7231421000033151,,18,9,2026-03-02_10h59.41.667,2026A_exp2,2022.2.4,60.00211207645714,
1000,1,0.0,0.0,0,0,25,25,7,,,,,105.98047869998845,106.61465229999158,106.61465229999158,107.11560789999203,315,315,107.11560789999203,107.11560789999203,107.11560789999203,107.11560789999203,107.11560789999203,107.11560789999203,107.11560789999203,107.11560789999203,107.11560789999203,107.48221550000017,107.48221550000017,107.48221550000017,107.48221550000017,107.48221550000017,107.48221550000017,107.48221550000017,107.48221550000017,107.48221550000017,23,0,,,107.48221550000017,107.682522099989,1000,107.682522099989,1000,1000,1000,1000,1,num_2,0.7276691000151914,,18,9,2026-03-02_10h59.41.667,2026A_exp2,2022.2.4,60.00211207645714,
1000,1,3.7,4.9,0,0,26,26,80,,,,,108.43288629999734,109.08347769998363,109.08347769998363,109.56792380000115,315,315,109.56792380000115,109.56792380000115,109.56792380000115,109.56792380000115,109.56792380000115,109.56792380000115,109.56792380000115,109.56792380000115,109.56792380000115,109.93438759999117,109.93438759999117,109.93438759999117,109.93438759999117,109.93438759999117,109.93438759999117,109.93438759999117,109.93438759999117,109.93438759999117,23,0,,,109.93438759999117,110.13489270000719,1000,110.13489270000719,1000,1000,1000,1000,0,num_3,0.4747720000159461,,18,9,2026-03-02_10h59.41.667,2026A_exp2,2022.2.4,60.00211207645714,
1000,1,0.0,4.9,1,0,27,27,79,,,,,110.63544009998441,111.26936249999562,111.26936249999562,111.7709940999921,45,315,111.7709940999921,111.7709940999921,111.7709940999921,111.7709940999921,111.7709940999921,111.7709940999921,111.7709940999921,111.7709940999921,111.7709940999921,112.13691519998247,112.13691519998247,112.13691519998247,112.13691519998247,112.13691519998247,112.13691519998247,112.13691519998247,112.13691519998247,112.13691519998247,23,0,,,112.13691519998247,112.33778639999218,1000,112.33778639999218,1000,1000,1000,1000,1,num_2,0.5123185999982525,,18,9,2026-03-02_10h59.41.667,2026A_exp2,2022.2.4,60.00211207645714,
1,0,3.7,4.9,0,0,28,28,76,,,,,112.87091949998285,113.52148399999714,113.52148399999714,114.00594719999935,45,45,114.00594719999935,114.00594719999935,114.00594719999935,114.00594719999935,114.00594719999935,114.00594719999935,114.00594719999935,114.00594719999935,114.00594719999935,114.37240930000553,114.37240930000553,114.37240930000553,114.37240930000553,114.37240930000553,114.37240930000553,114.37240930000553,114.37240930000553,114.37240930000553,23,0,,,114.37240930000553,114.57267920000595,3.7,114.57267920000595,0,3.7,1,0,1000,num_1,0.541600099997595,,18,9,2026-03-02_10h59.41.667,2026A_exp2,2022.2.4,60.00211207645714,
1000,1,0.0,4.9,1,0,29,29,55,,,,,115.13961099999142,115.77419470000314,115.77419470000314,116.27484410000034,315,315,116.27484410000034,116.27484410000034,116.27484410000034,116.27484410000034,116.27484410000034,116.27484410000034,116.27484410000034,116.27484410000034,116.27484410000034,116.64174859999912,116.64174859999912,116.64174859999912,116.64174859999912,116.64174859999912,116.64174859999912,116.64174859999912,116.64174859999912,116.64174859999912,23,0,,,116.64174859999912,116.84142789998441,1000,116.84142789998441,1000,1000,1000,1000,1,num_2,0.43335039998055436,,18,9,2026-03-02_10h59.41.667,2026A_exp2,2022.2.4,60.00211207645714,
1000,1,6.1,0.0,0,0,30,30,89,,,,,117.29215029999614,117.94279609998921,117.94279609998921,118.44372409998323,315,45,118.44372409998323,118.44372409998323,118.44372409998323,118.44372409998323,118.44372409998323,118.44372409998323,118.44372409998323,118.44372409998323,118.44372409998323,118.79337539998232,118.79337539998232,118.79337539998232,118.79337539998232,118.79337539998232,118.79337539998232,118.79337539998232,118.79337539998232,118.79337539998232,22,0,,,118.79337539998232,118.99363989999983,1000,119.01014249998843,1000,1000,1000,1000,0,num_3,0.47211639999295585,,18,9,2026-03-02_10h59.41.667,2026A_exp2,2022.2.4,60.00211207645714,
1000,1,0.0,0.0,0,0,31,31,15,,,,,119.51068109998596,120.16147930000443,120.16147930000443,120.64620289998129,315,45,120.64620289998129,120.64620289998129,120.64620289998129,120.64620289998129,120.64620289998129,120.64620289998129,120.64620289998129,120.64620289998129,120.64620289998129,121.01200789998984,121.01200789998984,121.01200789998984,121.01200789998984,121.01200789998984,121.01200789998984,121.01200789998984,121.01200789998984,121.01200789998984,23,0,,,121.01200789998984,121.21306069998536,1000,121.21306069998536,1000,1000,1000,1000,0,num_3,0.41414620002615266,,18,9,2026-03-02_10h59.41.667,2026A_exp2,2022.2.4,60.00211207645714,
1000,1,0.0,6.1,0,0,32,32,75,,,,,121.64640279999003,122.29721699998481,122.29721699998481,122.79853880000883,315,315,122.79853880000883,122.79853880000883,122.79853880000883,122.79853880000883,122.79853880000883,122.79853880000883,122.79853880000883,122.79853880000883,122.79853880000883,123.14779590000398,123.14779590000398,123.14779590000398,123.14779590000398,123.14779590000398,123.14779590000398,123.14779590000398,123.14779590000398,123.14779590000398,22,0,,,123.14779590000398,123.34805139998207,1000,123.34805139998207,1000,1000,1000,1000,1,num_2,0.5668531999981496,,18,9,2026-03-02_10h59.41.667,2026A_exp2,2022.2.4,60.00211207645714,
1,0,0.0,0.0,0,0,33,33,44,,,,,123.9317907000077,124.56604459998198,124.56604459998198,125.0671875999833,45,45,125.0671875999833,125.0671875999833,125.0671875999833,125.0671875999833,125.0671875999833,125.0671875999833,125.0671875999833,125.0671875999833,125.0671875999833,125.43345059998683,125.43345059998683,125.43345059998683,125.43345059998683,125.43345059998683,125.43345059998683,125.43345059998683,125.43345059998683,125.43345059998683,23,0,,,125.43345059998683,125.63366459999816,0.0,125.63366459999816,0,0.0,0,1,1000,num_1,0.8166571999900043,,18,9,2026-03-02_10h59.41.667,2026A_exp2,2022.2.4,60.00211207645714,
1,0,0.0,0.0,0,0,34,34,51,,,,,126.46792269998696,127.10175949998666,127.10175949998666,127.60277949998272,45,315,127.60277949998272,127.60277949998272,127.60277949998272,127.60277949998272,127.60277949998272,127.60277949998272,127.60277949998272,127.60277949998272,127.60277949998272,127.96957469999325,127.96957469999325,127.96957469999325,127.96957469999325,127.96957469999325,127.96957469999325,127.96957469999325,127.96957469999325,127.96957469999325,23,0,,,127.96957469999325,128.1695369000081,0.0,128.1695369000081,1,0.0,0,0,1000,num_4,1.7053186999983154,,18,9,2026-03-02_10h59.41.667,2026A_exp2,2022.2.4,60.00211207645714,
1,0,3.7,0.0,1,0,35,35,11,,,,,129.90473579999525,130.5386431000079,130.5386431000079,131.04027379999752,315,315,131.04027379999752,131.04027379999752,131.04027379999752,131.04027379999752,131.04027379999752,131.04027379999752,131.04027379999752,131.04027379999752,131.04027379999752,131.406179099984,131.406179099984,131.406179099984,131.406179099984,131.406179099984,131.406179099984,131.406179099984,131.406179099984,131.406179099984,23,0,,,131.406179099984,131.6062461999827,0.0,131.6062461999827,0,0.0,0,1,1000,num_1,0.45183360000373796,,18,9,2026-03-02_10h59.41.667,2026A_exp2,2022.2.4,60.00211207645714,
1,0,0.0,3.7,1,0,36,36,0,,,,,132.09008570000879,132.72409569998854,132.72409569998854,133.22510360000888,315,315,133.22510360000888,133.22510360000888,133.22510360000888,133.22510360000888,133.22510360000888,133.22510360000888,133.22510360000888,133.22510360000888,133.22510360000888,133.59169559998554,133.59169559998554,133.59169559998554,133.59169559998554,133.59169559998554,133.59169559998554,133.59169559998554,133.59169559998554,133.59169559998554,23,0,,,133.59169559998554,133.79242330000852,3.7,133.79242330000852,0,3.7,1,0,1000,num_1,0.44194710001465864,,18,9,2026-03-02_10h59.41.667,2026A_exp2,2022.2.4,60.00211207645714,
1,0,0.0,6.1,0,0,37,37,43,,,,,134.25920969998697,134.91024279998965,134.91024279998965,135.39425350000965,45,45,135.39425350000965,135.39425350000965,135.39425350000965,135.39425350000965,135.39425350000965,135.39425350000965,135.39425350000965,135.39425350000965,135.39425350000965,135.7601611999853,135.7601611999853,135.7601611999853,135.7601611999853,135.7601611999853,135.7601611999853,135.7601611999853,135.7601611999853,135.7601611999853,23,0,,,135.7601611999853,135.9605792000075,0.0,135.9605792000075,0,0.0,0,1,1000,num_1,0.3619077999901492,,18,9,2026-03-02_10h59.41.667,2026A_exp2,2022.2.4,60.00211207645714,
1,0,4.9,3.7,0,0,38,38,63,,,,,136.34431129999575,136.99538829998346,136.99538829998346,137.49596909998218,45,315,137.49596909998218,137.49596909998218,137.49596909998218,137.49596909998218,137.49596909998218,137.49596909998218,137.49596909998218,137.49596909998218,137.49596909998218,137.84667030000128,137.84667030000128,137.84667030000128,137.84667030000128,137.84667030000128,137.84667030000128,137.84667030000128,137.84667030000128,137.84667030000128,22,0,,,137.84667030000128,138.04580789999454,4.9,138.04580789999454,1,4.9,1,1,1000,num_4,0.5402162999962457,,18,9,2026-03-02_10h59.41.667,2026A_exp2,2022.2.4,60.00211207645714,
1000,1,0.0,3.7,1,0,39,39,65,,,,,138.61323200000334,139.24703959998442,139.24703959998442,139.74814579999656,315,315,139.74814579999656,139.74814579999656,139.74814579999656,139.74814579999656,139.74814579999656,139.74814579999656,139.74814579999656,139.74814579999656,139.74814579999656,140.11454469998716,140.11454469998716,140.11454469998716,140.11454469998716,140.11454469998716,140.11454469998716,140.11454469998716,140.11454469998716,140.11454469998716,23,0,,,140.11454469998716,140.3149293999886,1000,140.3149293999886,1000,1000,1000,1000,1,num_2,0.551391799992416,,18,9,2026-03-02_10h59.41.667,2026A_exp2,2022.2.4,60.00211207645714,
1,0,4.9,4.9,0,0,40,40,84,,,,,140.8822644999891,141.53300369999488,141.53300369999488,142.03424799998174,315,45,142.03424799998174,142.03424799998174,142.03424799998174,142.03424799998174,142.03424799998174,142.03424799998174,142.03424799998174,142.03424799998174,142.03424799998174,142.40001459998894,142.40001459998894,142.40001459998894,142.40001459998894,142.40001459998894,142.40001459998894,142.40001459998894,142.40001459998894,142.40001459998894,23,0,,,142.40001459998894,142.60053060000064,4.9,142.60053060000064,1,4.9,1,1,1000,num_4,0.5298407000082079,,18,9,2026-03-02_10h59.41.667,2026A_exp2,2022.2.4,60.00211207645714,
1000,1,0.0,6.1,1,0,41,41,19,,,,,143.15125460000127,143.8018461999891,143.8018461999891,144.30264879998867,45,45,144.30264879998867,144.30264879998867,144.30264879998867,144.30264879998867,144.30264879998867,144.30264879998867,144.30264879998867,144.30264879998867,144.30264879998867,144.67118400000618,144.67118400000618,144.67118400000618,144.67118400000618,144.67118400000618,144.67118400000618,144.67118400000618,144.67118400000618,144.67118400000618,23,0,,,144.67118400000618,,1000,144.88716929999646,1000,1000,1000,1000,1,num_2,0.6036085999803618,,18,9,2026-03-02_10h59.41.667,2026A_exp2,2022.2.4,60.00211207645714,
0,0,6.1,0.0,1,0,42,42,30,,,,,145.5202702000097,146.1705197999836,146.1705197999836,146.65537249998306,315,45,146.65537249998306,146.65537249998306,146.65537249998306,146.65537249998306,146.65537249998306,146.65537249998306,146.65537249998306,146.65537249998306,146.65537249998306,147.02134859998478,147.02134859998478,147.02134859998478,147.02134859998478,147.02134859998478,147.02134859998478,147.02134859998478,147.02134859998478,147.02134859998478,23,0,,,147.02134859998478,147.22397099999944,6.1,147.22397099999944,1,6.1,1,1,1000,num_4,0.8746540000138339,,18,9,2026-03-02_10h59.41.667,2026A_exp2,2022.2.4,60.00211207645714,
1,0,3.7,0.0,1,0,43,43,28,,,,,148.12349520000862,148.75688309999532,148.75688309999532,149.25793510000221,315,45,149.25793510000221,149.25793510000221,149.25793510000221,149.25793510000221,149.25793510000221,149.25793510000221,149.25793510000221,149.25793510000221,149.25793510000221,149.62512620000052,149.62512620000052,149.62512620000052,149.62512620000052,149.62512620000052,149.62512620000052,149.62512620000052,149.62512620000052,149.62512620000052,23,0,,,149.62512620000052,149.82459509998444,0.0,149.82459509998444,0,0.0,0,1,1000,num_1,0.48187610000604764,,18,9,2026-03-02_10h59.41.667,2026A_exp2,2022.2.4,60.00211207645714,
1000,1,0.0,0.0,0,0,44,44,36,,,,,150.32563390000723,150.95887689999654,150.95887689999654,151.45997110000462,45,45,151.45997110000462,151.45997110000462,151.45997110000462,151.45997110000462,151.45997110000462,151.45997110000462,151.45997110000462,151.45997110000462,151.45997110000462,151.8261552999902,151.8261552999902,151.8261552999902,151.8261552999902,151.8261552999902,151.8261552999902,151.8261552999902,151.8261552999902,151.8261552999902,23,0,,,151.8261552999902,152.02673359998153,1000,152.02673359998153,1000,1000,1000,1000,1,num_2,1.2717140000022482,,18,9,2026-03-02_10h59.41.667,2026A_exp2,2022.2.4,60.00211207645714,
1,0,0.0,0.0,0,0,45,45,34,,,,,153.3280378000054,153.9791269999987,153.9791269999987,154.48030819999985,45,315,154.48030819999985,154.48030819999985,154.48030819999985,154.48030819999985,154.48030819999985,154.48030819999985,154.48030819999985,154.48030819999985,154.48030819999985,154.82986019999953,154.82986019999953,154.82986019999953,154.82986019999953,154.82986019999953,154.82986019999953,154.82986019999953,154.82986019999953,154.82986019999953,22,0,,,154.82986019999953,155.0296914000064,0.0,155.0296914000064,0,0.0,0,1,1000,num_1,0.6442315999884158,,18,9,2026-03-02_10h59.41.667,2026A_exp2,2022.2.4,60.00211207645714,
1,0,6.1,3.7,0,0,46,46,31,,,,,155.6973919000011,156.33082420000574,156.33082420000574,156.8321458999999,45,45,156.8321458999999,156.8321458999999,156.8321458999999,156.8321458999999,156.8321458999999,156.8321458999999,156.8321458999999,156.8321458999999,156.8321458999999,157.19912579999072,157.19912579999072,157.19912579999072,157.19912579999072,157.19912579999072,157.19912579999072,157.19912579999072,157.19912579999072,157.19912579999072,23,0,,,157.19912579999072,157.3991332000005,6.1,157.3991332000005,1,6.1,1,1,1000,num_4,0.3713112999976147,,18,9,2026-03-02_10h59.41.667,2026A_exp2,2022.2.4,60.00211207645714,
1000,1,0.0,3.7,0,0,47,47,57,,,,,157.7991067999974,158.4333265000023,158.4333265000023,158.93393729999661,45,45,158.93393729999661,158.93393729999661,158.93393729999661,158.93393729999661,158.93393729999661,158.93393729999661,158.93393729999661,158.93393729999661,158.93393729999661,159.30080150000867,159.30080150000867,159.30080150000867,159.30080150000867,159.30080150000867,159.30080150000867,159.30080150000867,159.30080150000867,159.30080150000867,23,0,,,159.30080150000867,159.5011877999932,1000,159.5011877999932,1000,1000,1000,1000,1,num_2,0.605022400006419,,18,9,2026-03-02_10h59.41.667,2026A_exp2,2022.2.4,60.00211207645714,
0,0,0.0,0.0,0,0,48,48,70,,,,,160.13483510000515,160.78541459998814,160.78541459998814,161.28668449999532,45,45,161.28668449999532,161.28668449999532,161.28668449999532,161.28668449999532,161.28668449999532,161.28668449999532,161.28668449999532,161.28668449999532,161.28668449999532,161.65297379999538,161.65297379999538,161.65297379999538,161.65297379999538,161.65297379999538,161.65297379999538,161.65297379999538,161.65297379999538,161.65297379999538,23,0,,,161.65297379999538,161.85291349998442,0.0,161.85291349998442,0,0.0,0,1,1000,num_1,0.6778017000178806,,18,9,2026-03-02_10h59.41.667,2026A_exp2,2022.2.4,60.00211207645714,
1000,1,4.9,0.0,0,0,49,49,50,,,,,162.55354950000765,163.18975729998783,163.18975729998783,163.688888100005,45,315,163.688888100005,163.688888100005,163.688888100005,163.688888100005,163.688888100005,163.688888100005,163.688888100005,163.688888100005,163.688888100005,164.05611889998545,164.05611889998545,164.05611889998545,164.05611889998545,164.05611889998545,164.05611889998545,164.05611889998545,164.05611889998545,164.05611889998545,23,0,,,164.05611889998545,164.25626580000971,1000,164.25626580000971,1000,1000,1000,1000,1,num_2,0.5778124000062235,,18,9,2026-03-02_10h59.41.667,2026A_exp2,2022.2.4,60.00211207645714,
1000,1,0.0,0.0,1,0,50,50,16,,,,,164.8584539000003,165.50707570000668,165.50707570000668,166.0084010999999,315,45,166.0084010999999,166.0084010999999,166.0084010999999,166.0084010999999,166.0084010999999,166.0084010999999,166.0084010999999,166.0084010999999,166.0084010999999,166.3583141999843,166.3583141999843,166.3583141999843,166.3583141999843,166.3583141999843,166.3583141999843,166.3583141999843,166.3583141999843,166.3583141999843,22,0,,,166.3583141999843,166.55896900000516,1000,166.55896900000516,1000,1000,1000,1000,0,num_3,0.6590901000017766,,18,9,2026-03-02_10h59.41.667,2026A_exp2,2022.2.4,60.00211207645714,
1000,1,0.0,4.9,0,0,51,51,5,,,,,167.24323180000647,,167.8925520000048,168.378080399998,315,45,168.378080399998,168.378080399998,168.378080399998,168.378080399998,168.378080399998,168.378080399998,168.378080399998,168.378080399998,168.378080399998,168.76014609998674,168.76014609998674,168.76014609998674,168.76014609998674,168.76014609998674,168.76014609998674,168.76014609998674,168.76014609998674,168.76014609998674,24,0,,,168.76014609998674,168.96053919999395,1000,168.96053919999395,1000,1000,1000,1000,1,num_2,0.3537562999990769,,18,9,2026-03-02_10h59.41.667,2026A_exp2,2022.2.4,60.00211207645714,
1000,1,0.0,6.1,1,0,52,52,69,,,,,169.34401559998514,169.99521910000476,169.99521910000476,170.47900379999192,45,45,170.47900379999192,170.47900379999192,170.47900379999192,170.47900379999192,170.47900379999192,170.47900379999192,170.47900379999192,170.47900379999192,170.47900379999192,170.84544790000655,170.84544790000655,170.84544790000655,170.84544790000655,170.84544790000655,170.84544790000655,170.84544790000655,170.84544790000655,170.84544790000655,23,0,,,170.84544790000655,171.04581779998261,1000,171.04581779998261,1000,1000,1000,1000,1,num_2,0.43679760000668466,,18,9,2026-03-02_10h59.41.667,2026A_exp2,2022.2.4,60.00211207645714,
1000,1,0.0,0.0,0,0,53,53,87,,,,,171.51335729999118,172.16345079999883,172.16345079999883,172.66452859999845,315,315,172.66452859999845,172.66452859999845,172.66452859999845,172.66452859999845,172.66452859999845,172.66452859999845,172.66452859999845,172.66452859999845,172.66452859999845,173.01433649999672,173.01433649999672,173.01433649999672,173.01433649999672,173.01433649999672,173.01433649999672,173.01433649999672,173.01433649999672,173.01433649999672,22,0,,,173.01433649999672,173.21517789998325,1000,173.21517789998325,1000,1000,1000,1000,0,num_3,0.5713188999798149,,18,9,2026-03-02_10h59.41.667,2026A_exp2,2022.2.4,60.00211207645714,
0,0,0.0,0.0,0,0,54,54,22,,,,,173.81527600000845,174.46573699999135,174.46573699999135,174.96786420000717,45,45,174.96786420000717,174.96786420000717,174.96786420000717,174.96786420000717,174.96786420000717,174.96786420000717,174.96786420000717,174.96786420000717,174.96786420000717,175.33353979999083,175.33353979999083,175.33353979999083,175.33353979999083,175.33353979999083,175.33353979999083,175.33353979999083,175.33353979999083,175.33353979999083,23,0,,,175.33353979999083,175.53408789998502,0.0,175.53408789998502,1,0.0,0,0,1000,num_4,1.1485668000241276,,18,9,2026-03-02_10h59.41.667,2026A_exp2,2022.2.4,60.00211207645714,
1000,1,0.0,6.1,0,0,55,55,35,,,,,176.70105679999688,177.3355969999975,177.3355969999975,177.8363860999816,315,315,177.8363860999816,177.8363860999816,177.8363860999816,177.8363860999816,177.8363860999816,177.8363860999816,177.8363860999816,177.8363860999816,177.8363860999816,178.20282810000936,178.20282810000936,178.20282810000936,178.20282810000936,178.20282810000936,178.20282810000936,178.20282810000936,178.20282810000936,178.20282810000936,23,0,,,178.20282810000936,178.4034149000072,1000,178.4034149000072,1000,1000,1000,1000,1,num_2,0.5586134000041056,,18,9,2026-03-02_10h59.41.667,2026A_exp2,2022.2.4,60.00211207645714,
1,0,0.0,0.0,0,0,56,56,17,,,,,178.98729089999688,179.63737089998904,179.63737089998904,180.13846109999577,45,315,180.13846109999577,180.13846109999577,180.13846109999577,180.13846109999577,180.13846109999577,180.13846109999577,180.13846109999577,180.13846109999577,180.13846109999577,180.5057131999929,180.5057131999929,180.5057131999929,180.5057131999929,180.5057131999929,180.5057131999929,180.5057131999929,180.5057131999929,180.5057131999929,23,0,,,180.5057131999929,180.70573670000886,0.0,180.70573670000886,0,0.0,0,1,1000,num_1,0.6489046000060625,,18,9,2026-03-02_10h59.41.667,2026A_exp2,2022.2.4,60.00211207645714,
1,0,4.9,0.0,1,0,57,57,25,,,,,181.372829800006,182.00671970000258,182.00671970000258,182.50814379999065,45,315,182.50814379999065,182.50814379999065,182.50814379999065,182.50814379999065,182.50814379999065,182.50814379999065,182.50814379999065,182.50814379999065,182.50814379999065,182.87407719998737,182.87407719998737,182.87407719998737,182.87407719998737,182.87407719998737,182.87407719998737,182.87407719998737,182.87407719998737,182.87407719998737,23,0,,,182.87407719998737,183.0749084999843,0.0,183.0749084999843,0,0.0,0,1,1000,num_1,0.6235013999976218,,18,9,2026-03-02_10h59.41.667,2026A_exp2,2022.2.4,60.00211207645714,
1,0,0.0,0.0,1,0,58,58,41,,,,,183.72547859998303,184.35928529998637,184.35928529998637,184.8600680999807,45,315,184.8600680999807,184.8600680999807,184.8600680999807,184.8600680999807,184.8600680999807,184.8600680999807,184.8600680999807,184.8600680999807,184.8600680999807,185.22653079999145,185.22653079999145,185.22653079999145,185.22653079999145,185.22653079999145,185.22653079999145,185.22653079999145,185.22653079999145,185.22653079999145,23,0,,,185.22653079999145,185.4267418999807,0.0,185.4267418999807,0,0.0,0,1,1000,num_1,0.599733599985484,,18,9,2026-03-02_10h59.41.667,2026A_exp2,2022.2.4,60.00211207645714,
1000,1,0.0,4.9,1,0,59,59,78,,,,,186.04388759998255,186.69551079999655,186.69551079999655,187.17888950000633,315,315,187.17888950000633,187.17888950000633,187.17888950000633,187.17888950000633,187.17888950000633,187.17888950000633,187.17888950000633,187.17888950000633,187.17888950000633,187.54549170000246,187.54549170000246,187.54549170000246,187.54549170000246,187.54549170000246,187.54549170000246,187.54549170000246,187.54549170000246,187.54549170000246,23,0,,,187.54549170000246,187.74589960000594,1000,187.74589960000594,1000,1000,1000,1000,1,num_2,0.5210013999894727,,18,9,2026-03-02_10h59.41.667,2026A_exp2,2022.2.4,60.00211207645714,
1000,1,6.1,3.7,0,0,60,60,18,,,,,188.29640160000417,188.9471654999943,188.9471654999943,189.44816899998114,45,45,189.44816899998114,189.44816899998114,189.44816899998114,189.44816899998114,189.44816899998114,189.44816899998114,189.44816899998114,189.44816899998114,189.44816899998114,189.79786389999208,189.79786389999208,189.79786389999208,189.79786389999208,189.79786389999208,189.79786389999208,189.79786389999208,189.79786389999208,189.79786389999208,22,0,,,189.79786389999208,189.99856159999035,1000,189.99856159999035,1000,1000,1000,1000,0,num_3,0.5400299000029918,,18,9,2026-03-02_10h59.41.667,2026A_exp2,2022.2.4,60.00211207645714,
1000,1,0.0,0.0,0,0,61,61,67,,,,,190.56506349999108,191.21596329999738,191.21596329999738,191.70083479999448,315,315,191.70083479999448,191.70083479999448,191.70083479999448,191.70083479999448,191.70083479999448,191.70083479999448,191.70083479999448,191.70083479999448,191.70083479999448,192.06680579998647,192.06680579998647,192.06680579998647,192.06680579998647,192.06680579998647,192.06680579998647,192.06680579998647,192.06680579998647,192.06680579998647,23,0,,,192.06680579998647,192.267425500002,1000,192.267425500002,1000,1000,1000,1000,0,num_3,0.48734700001659803,,18,9,2026-03-02_10h59.41.667,2026A_exp2,2022.2.4,60.00211207645714,
0,0,0.0,0.0,1,0,62,62,38,,,,,192.7842895000067,193.41959189999034,193.41959189999034,193.9197259999928,45,45,193.9197259999928,193.9197259999928,193.9197259999928,193.9197259999928,193.9197259999928,193.9197259999928,193.9197259999928,193.9197259999928,193.9197259999928,194.28613669998595,194.28613669998595,194.28613669998595,194.28613669998595,194.28613669998595,194.28613669998595,194.28613669998595,194.28613669998595,194.28613669998595,23,0,,,194.28613669998595,194.48665579999215,0.0,194.48665579999215,1,0.0,0,0,1000,num_4,1.4198939999914728,,18,9,2026-03-02_10h59.41.667,2026A_exp2,2022.2.4,60.00211207645714,
1000,1,0.0,6.1,0,0,63,63,2,,,,,195.9373859000043,196.58806089998689,196.58806089998689,197.0901690000028,315,45,197.0901690000028,197.0901690000028,197.0901690000028,197.0901690000028,197.0901690000028,197.0901690000028,197.0901690000028,197.0901690000028,197.0901690000028,197.4386261999898,197.4386261999898,197.4386261999898,197.4386261999898,197.4386261999898,197.4386261999898,197.4386261999898,197.4386261999898,197.4386261999898,22,0,,,197.4386261999898,197.6394433999958,1000,197.6394433999958,1000,1000,1000,1000,0,num_3,0.667514000000665,,18,9,2026-03-02_10h59.41.667,2026A_exp2,2022.2.4,60.00211207645714,
1,0,3.7,0.0,1,0,64,64,13,,,,,198.32383799998206,198.97363409999525,198.97363409999525,199.47507369998493,315,45,199.47507369998493,199.47507369998493,199.47507369998493,199.47507369998493,199.47507369998493,199.47507369998493,199.47507369998493,199.47507369998493,199.47507369998493,199.84134240000276,199.84134240000276,199.84134240000276,199.84134240000276,199.84134240000276,199.84134240000276,199.84134240000276,199.84134240000276,199.84134240000276,23,0,,,199.84134240000276,200.04171379999025,0.0,200.04171379999025,0,0.0,0,1,1000,num_1,0.8721811000141315,,18,9,2026-03-02_10h59.41.667,2026A_exp2,2022.2.4,60.00211207645714,
1000,1,0.0,4.9,0,0,65,65,53,,,,,200.94273320000502,201.5930405999825,201.5930405999825,202.07742429999053,315,315,202.07742429999053,202.07742429999053,202.07742429999053,202.07742429999053,202.07742429999053,202.07742429999053,202.07742429999053,202.07742429999053,202.07742429999053,202.4448534999974,202.4448534999974,202.4448534999974,202.4448534999974,202.4448534999974,202.4448534999974,202.4448534999974,202.4448534999974,202.4448534999974,23,0,,,202.4448534999974,202.64482459999272,1000,202.64482459999272,1000,1000,1000,1000,0,num_3,1.4619308999972418,,18,9,2026-03-02_10h59.41.667,2026A_exp2,2022.2.4,60.00211207645714,
0,0,4.9,4.9,1,0,66,66,48,,,,,204.1289825999993,204.77970129999449,204.77970129999449,205.26436080000713,315,315,205.26436080000713,205.26436080000713,205.26436080000713,205.26436080000713,205.26436080000713,205.26436080000713,205.26436080000713,205.26436080000713,205.26436080000713,205.63039479998406,205.63039479998406,205.63039479998406,205.63039479998406,205.63039479998406,205.63039479998406,205.63039479998406,205.63039479998406,205.63039479998406,23,0,,,205.63039479998406,205.83059309999226,4.9,205.84705149999354,1,4.9,1,1,1000,num_4,1.0833076999988407,,18,9,2026-03-02_10h59.41.667,2026A_exp2,2022.2.4,60.00211207645714,
1000,1,6.1,4.9,0,0,67,67,68,,,,,206.94827249998343,207.58242620000965,207.58242620000965,208.0843668000016,315,315,208.0843668000016,208.0843668000016,208.0843668000016,208.0843668000016,208.0843668000016,208.0843668000016,208.0843668000016,208.0843668000016,208.0843668000016,208.44972879998386,208.44972879998386,208.44972879998386,208.44972879998386,208.44972879998386,208.44972879998386,208.44972879998386,208.44972879998386,208.44972879998386,23,0,,,208.44972879998386,208.64992110000458,1000,208.64992110000458,1000,1000,1000,1000,0,num_3,0.5603953000099864,,18,9,2026-03-02_10h59.41.667,2026A_exp2,2022.2.4,60.00211207645714,
0,0,3.7,6.1,0,0,68,68,73,,,,,209.23419630000717,209.88453730000765,209.88453730000765,210.38571040000534,45,315,210.38571040000534,210.38571040000534,210.38571040000534,210.38571040000534,210.38571040000534,210.38571040000534,210.38571040000534,210.38571040000534,210.38571040000534,210.73544269998092,210.73544269998092,210.73544269998092,210.73544269998092,210.73544269998092,210.73544269998092,210.73544269998092,210.73544269998092,210.73544269998092,22,0,,,210.73544269998092,210.93618509999942,6.1,210.93618509999942,1,6.1,1,1,1000,num_4,0.945969199994579,,18,9,2026-03-02_10h59.41.667,2026A_exp2,2022.2.4,60.00211207645714,
1,0,4.9,4.9,0,0,69,69,39,,,,,211.90341420000186,212.55388999998104,212.55388999998104,213.0386588999827,315,315,213.0386588999827,213.0386588999827,213.0386588999827,213.0386588999827,213.0386588999827,213.0386588999827,213.0386588999827,213.0386588999827,213.0386588999827,213.40507340000477,213.40507340000477,213.40507340000477,213.40507340000477,213.40507340000477,213.40507340000477,213.40507340000477,213.40507340000477,213.40507340000477,23,0,,,213.40507340000477,213.6051892999967,4.9,213.6051892999967,1,4.9,1,1,1000,num_4,0.5568789000099059,,18,9,2026-03-02_10h59.41.667,2026A_exp2,2022.2.4,60.00211207645714,
1000,1,0.0,4.9,0,0,70,70,74,,,,,214.18937429998186,214.83949559999746,214.83949559999746,215.34048779998557,315,45,215.34048779998557,215.34048779998557,215.34048779998557,215.34048779998557,215.34048779998557,215.34048779998557,215.34048779998557,215.34048779998557,215.34048779998557,215.7070138999843,215.7070138999843,215.7070138999843,215.7070138999843,215.7070138999843,215.7070138999843,215.7070138999843,215.7070138999843,215.7070138999843,23,0,,,215.7070138999843,215.908726499998,1000,215.908726499998,1000,1000,1000,1000,1,num_2,0.6537219999881927,,18,9,2026-03-02_10h59.41.667,2026A_exp2,2022.2.4,60.00211207645714,
1000,1,3.7,4.9,0,0,71,71,64,,,,,216.5914533000032,217.2425677999854,217.2425677999854,217.72640769998543,315,315,217.72640769998543,217.72640769998543,217.72640769998543,217.72640769998543,217.72640769998543,217.72640769998543,217.72640769998543,217.72640769998543,217.72640769998543,218.09273299999768,218.09273299999768,218.09273299999768,218.09273299999768,218.09273299999768,218.09273299999768,218.09273299999768,218.09273299999768,218.09273299999768,23,0,,,218.09273299999768,218.29290390000097,1000,218.29290390000097,1000,1000,1000,1000,0,num_3,1.0932228000019677,,18,9,2026-03-02_10h59.41.667,2026A_exp2,2022.2.4,60.00211207645714,
1000,1,0.0,0.0,1,0,72,72,56,,,,,219.41097289999016,220.06139099999564,220.06139099999564,220.56255169998622,45,315,220.56255169998622,220.56255169998622,220.56255169998622,220.56255169998622,220.56255169998622,220.56255169998622,220.56255169998622,220.56255169998622,220.56255169998622,220.92961490000016,220.92961490000016,220.92961490000016,220.92961490000016,220.92961490000016,220.92961490000016,220.92961490000016,220.92961490000016,220.92961490000016,23,0,,,220.92961490000016,221.12917110000853,1000,221.12917110000853,1000,1000,1000,1000,1,num_2,1.697500600013882,,18,9,2026-03-02_10h59.41.667,2026A_exp2,2022.2.4,60.00211207645714,
1,0,0.0,6.1,0,0,73,73,82,,,,,222.84758259999217,223.4819232999871,223.4819232999871,223.9825421999849,45,315,223.9825421999849,223.9825421999849,223.9825421999849,223.9825421999849,223.9825421999849,223.9825421999849,223.9825421999849,223.9825421999849,223.9825421999849,224.3488844000094,224.3488844000094,224.3488844000094,224.3488844000094,224.3488844000094,224.3488844000094,224.3488844000094,224.3488844000094,224.3488844000094,23,0,,,224.3488844000094,224.5494663999998,0.0,224.5494663999998,0,0.0,0,1,1000,num_1,1.3656130000017583,,18,9,2026-03-02_10h59.41.667,2026A_exp2,2022.2.4,60.00211207645714,
1,0,4.9,0.0,0,0,74,74,4,,,,,225.93450589998974,226.58544830000028,226.58544830000028,227.0689032000082,45,45,227.0689032000082,227.0689032000082,227.0689032000082,227.0689032000082,227.0689032000082,227.0689032000082,227.0689032000082,227.0689032000082,227.0689032000082,227.43572109998786,227.43572109998786,227.43572109998786,227.43572109998786,227.43572109998786,227.43572109998786,227.43572109998786,227.43572109998786,227.43572109998786,23,0,,,227.43572109998786,227.63560760000837,4.9,227.63560760000837,1,4.9,1,1,1000,num_4,0.5023615999962203,,18,9,2026-03-02_10h59.41.667,2026A_exp2,2022.2.4,60.00211207645714,
1,0,6.1,4.9,0,0,75,75,81,,,,,228.16974029998528,228.8036781999981,228.8036781999981,229.30606489998172,45,315,229.30606489998172,229.30606489998172,229.30606489998172,229.30606489998172,229.30606489998172,229.30606489998172,229.30606489998172,229.30606489998172,229.30606489998172,229.6712426999875,229.6712426999875,229.6712426999875,229.6712426999875,229.6712426999875,229.6712426999875,229.6712426999875,229.6712426999875,229.6712426999875,23,0,,,229.6712426999875,229.8713121000037,6.1,229.8713121000037,1,6.1,1,1,1000,num_4,0.5638587000139523,,18,9,2026-03-02_10h59.41.667,2026A_exp2,2022.2.4,60.00211207645714,
1,0,0.0,0.0,1,0,76,76,21,,,,,230.45515950000845,231.1064325000043,231.1064325000043,231.60757719998946,45,45,231.60757719998946,231.60757719998946,231.60757719998946,231.60757719998946,231.60757719998946,231.60757719998946,231.60757719998946,231.60757719998946,231.60757719998946,231.97329799999716,231.97329799999716,231.97329799999716,231.97329799999716,231.97329799999716,231.97329799999716,231.97329799999716,231.97329799999716,231.97329799999716,23,0,,,231.97329799999716,232.173919199995,0.0,232.173919199995,0,0.0,0,1,1000,num_1,0.3325640000111889,,18,9,2026-03-02_10h59.41.667,2026A_exp2,2022.2.4,60.00211207645714,
0,0,6.1,6.1,0,0,77,77,42,,,,,232.52408619999187,233.17537029998493,233.17537029998493,233.65889379999135,45,45,233.65889379999135,233.65889379999135,233.65889379999135,233.65889379999135,233.65889379999135,233.65889379999135,233.65889379999135,233.65889379999135,233.65889379999135,234.02529990000767,234.02529990000767,234.02529990000767,234.02529990000767,234.02529990000767,234.02529990000767,234.02529990000767,234.02529990000767,234.02529990000767,23,0,,,234.02529990000767,234.2255761999986,6.1,234.2255761999986,1,6.1,1,1,1000,num_4,1.5291508999944199,,18,9,2026-03-02_10h59.41.667,2026A_exp2,2022.2.4,60.00211207645714,
1000,1,3.7,0.0,1,0,78,78,54,,,,,235.77710360000492,236.42782680000528,236.42782680000528,236.92886260000523,45,315,236.92886260000523,236.92886260000523,236.92886260000523,236.92886260000523,236.92886260000523,236.92886260000523,236.92886260000523,236.92886260000523,236.92886260000523,237.29617089999374,237.29617089999374,237.29617089999374,237.29617089999374,237.29617089999374,237.29617089999374,237.29617089999374,237.29617089999374,237.29617089999374,23,0,,,237.29617089999374,237.49551459998474,1000,237.49551459998474,1000,1000,1000,1000,0,num_3,0.7232928999874275,,18,9,2026-03-02_10h59.41.667,2026A_exp2,2022.2.4,60.00211207645714,
1,0,0.0,0.0,1,0,79,79,24,,,,,238.2463165000081,238.8977229000011,238.8977229000011,239.38172010000562,315,315,239.38172010000562,239.38172010000562,239.38172010000562,239.38172010000562,239.38172010000562,239.38172010000562,239.38172010000562,239.38172010000562,239.38172010000562,239.74779269998544,239.74779269998544,239.74779269998544,239.74779269998544,239.74779269998544,239.74779269998544,239.74779269998544,239.74779269998544,239.74779269998544,23,0,,,239.74779269998544,239.9484705000068,0.0,239.9484705000068,0,0.0,0,1,1000,num_1,0.550134999997681,,18,9,2026-03-02_10h59.41.667,2026A_exp2,2022.2.4,60.00211207645714,
1,0,3.7,0.0,0,0,80,80,8,,,,,240.51518250000663,241.16597360000014,241.16597360000014,241.6505932,315,315,241.6505932,241.6505932,241.6505932,241.6505932,241.6505932,241.6505932,241.6505932,241.6505932,241.6505932,242.0167511999898,242.0167511999898,242.0167511999898,242.0167511999898,242.0167511999898,242.0167511999898,242.0167511999898,242.0167511999898,242.0167511999898,23,0,,,242.0167511999898,242.21694079998997,3.7,242.21694079998997,1,3.7,1,1,1000,num_4,0.37743330001831055,,18,9,2026-03-02_10h59.41.667,2026A_exp2,2022.2.4,60.00211207645714,
0,0,0.0,3.7,0,0,81,81,83,,,,,242.61788800000795,243.26811259999522,243.26811259999522,243.75334180000937,45,315,243.75334180000937,243.75334180000937,243.75334180000937,243.75334180000937,243.75334180000937,243.75334180000937,243.75334180000937,243.75334180000937,243.75334180000937,244.11891230000765,244.11891230000765,244.11891230000765,244.11891230000765,244.11891230000765,244.11891230000765,244.11891230000765,244.11891230000765,244.11891230000765,23,0,,,244.11891230000765,244.31938279999304,3.7,244.31938279999304,1,3.7,1,1,1000,num_4,0.8666565000021365,,18,9,2026-03-02_10h59.41.667,2026A_exp2,2022.2.4,60.00211207645714,
1000,1,3.7,6.1,1,0,82,82,29,,,,,245.2030945000006,245.83747090000543,245.83747090000543,246.33862389999558,45,315,246.33862389999558,246.33862389999558,246.33862389999558,246.33862389999558,246.33862389999558,246.33862389999558,246.33862389999558,246.33862389999558,246.33862389999558,246.7051019000064,246.7051019000064,246.7051019000064,246.7051019000064,246.7051019000064,246.7051019000064,246.7051019000064,246.7051019000064,246.7051019000064,23,0,,,246.7051019000064,246.90728320000926,1000,246.90728320000926,1000,1000,1000,1000,1,num_2,0.6547161000198685,,18,9,2026-03-02_10h59.41.667,2026A_exp2,2022.2.4,60.00211207645714,
1000,1,0.0,0.0,0,0,83,83,45,,,,,247.59019439999247,248.23994480000692,248.23994480000692,248.72584589998587,45,45,248.72584589998587,248.72584589998587,248.72584589998587,248.72584589998587,248.72584589998587,248.72584589998587,248.72584589998587,248.72584589998587,248.72584589998587,249.09047110000392,249.09047110000392,249.09047110000392,249.09047110000392,249.09047110000392,249.09047110000392,249.09047110000392,249.09047110000392,249.09047110000392,23,0,,,249.09047110000392,249.29100860000472,1000,249.29100860000472,1000,1000,1000,1000,1,num_2,0.6235535999876447,,18,9,2026-03-02_10h59.41.667,2026A_exp2,2022.2.4,60.00211207645714,
1000,1,0.0,6.1,0,0,84,84,85,,,,,249.9414509999915,250.5930793999869,250.5930793999869,251.0766813000082,45,315,251.0766813000082,251.0766813000082,251.0766813000082,251.0766813000082,251.0766813000082,251.0766813000082,251.0766813000082,251.0766813000082,251.0766813000082,251.44302320000133,251.44302320000133,251.44302320000133,251.44302320000133,251.44302320000133,251.44302320000133,251.44302320000133,251.44302320000133,251.44302320000133,23,0,,,251.44302320000133,251.64383869999438,1000,251.64383869999438,1000,1000,1000,1000,1,num_2,0.4380509000038728,,18,9,2026-03-02_10h59.41.667,2026A_exp2,2022.2.4,60.00211207645714,
1,0,3.7,4.9,1,0,85,85,71,,,,,252.11034939999809,252.7620709000039,252.7620709000039,253.24611740000546,315,45,253.24611740000546,253.24611740000546,253.24611740000546,253.24611740000546,253.24611740000546,253.24611740000546,253.24611740000546,253.24611740000546,253.24611740000546,253.61175079998793,253.61175079998793,253.61175079998793,253.61175079998793,253.61175079998793,253.61175079998793,253.61175079998793,253.61175079998793,253.61175079998793,23,0,,,253.61175079998793,253.81215700000757,4.9,253.81215700000757,1,4.9,1,1,1000,num_4,0.6868141999875661,,18,9,2026-03-02_10h59.41.667,2026A_exp2,2022.2.4,60.00211207645714,
1000,1,6.1,4.9,0,0,86,86,49,,,,,254.52966770000057,255.18087779998314,255.18087779998314,255.66544129999238,315,315,255.66544129999238,255.66544129999238,255.66544129999238,255.66544129999238,255.66544129999238,255.66544129999238,255.66544129999238,255.66544129999238,255.66544129999238,,,,,,,,,,23,0,,,256.0474320999929,256.24785119999433,1000,256.24785119999433,1000,1000,1000,1000,0,num_3,0.706984399992507,,18,9,2026-03-02_10h59.41.667,2026A_exp2,2022.2.4,60.00211207645714,
1000,1,0.0,0.0,1,0,87,87,46,,,,,256.9825173999998,257.61654190000263,257.61654190000263,258.1335317000048,45,45,258.1335317000048,258.1335317000048,258.1335317000048,258.1335317000048,258.1335317000048,258.1335317000048,258.1335317000048,258.1335317000048,258.1335317000048,258.50004539999645,258.50004539999645,258.50004539999645,258.50004539999645,258.50004539999645,258.50004539999645,258.50004539999645,258.50004539999645,258.50004539999645,23,0,,,258.50004539999645,258.7002329000097,1000,258.7002329000097,1000,1000,1000,1000,0,num_3,0.5982139999978244,,18,9,2026-03-02_10h59.41.667,2026A_exp2,2022.2.4,60.00211207645714,
0,0,0.0,4.9,0,0,88,88,14,,,,,259.31717890000436,259.968386499997,259.968386499997,260.4523316999839,45,315,260.4523316999839,260.4523316999839,260.4523316999839,260.4523316999839,260.4523316999839,260.4523316999839,260.4523316999839,260.4523316999839,260.4523316999839,260.81909579999046,260.81909579999046,260.81909579999046,260.81909579999046,260.81909579999046,260.81909579999046,260.81909579999046,260.81909579999046,260.81909579999046,23,0,,,260.81909579999046,261.01913729999796,4.9,261.01913729999796,1,4.9,1,1,1000,num_4,0.9429412999888882,,18,9,2026-03-02_10h59.41.667,2026A_exp2,2022.2.4,60.00211207645714,
1000,1,3.7,4.9,1,0,89,89,20,,,,,261.9865174999868,262.62138050000067,262.62138050000067,263.12231710000196,315,45,263.12231710000196,263.12231710000196,263.12231710000196,263.12231710000196,263.12231710000196,263.12231710000196,263.12231710000196,263.12231710000196,263.12231710000196,263.48832659999607,263.48832659999607,263.48832659999607,263.48832659999607,263.48832659999607,263.48832659999607,263.48832659999607,263.48832659999607,263.48832659999607,23,0,,,263.48832659999607,263.68887990000076,1000,263.68887990000076,1000,1000,1000,1000,1,num_2,0.5773707999906037,,18,9,2026-03-02_10h59.41.667,2026A_exp2,2022.2.4,60.00211207645714,
,,,,,,,,,,,,,,,,,,,,,,,,,,,,,,,,,,,,,,,,,,,,,,,,,,,,264.2970514000044,,,,,,,
