validity,detectorcomp,contrastCW,contrastCCW,precueCWorCCW,block_80trials.thisRepN,block_80trials.thisTrialN,block_80trials.thisN,block_80trials.thisIndex,etRecord.started,etRecord.stopped,text.started,text.stopped,text_4.started,text_4.stopped,text_6.started,text_6.stopped,oriCW,oriCCW,roi_2.started,grating_UR.started,grating_UL.started,grating_LR.started,grating_LL.started,noise_UR.started,noise_UL.started,noise_LR.started,noise_LL.started,roi_2.stopped,grating_UR.stopped,grating_UL.stopped,grating_LR.stopped,grating_LL.stopped,noise_UR.stopped,noise_UL.stopped,noise_LR.stopped,noise_LL.stopped,outframe,roi_2.numLooks,roi_2.timesOn,roi_2.timesOff,text_2.started,text_2.stopped,probedcontrast,key_resp.started,respdetect,relevantContrast,correctDetect,TorFdetect,respCWorCCW,key_resp.keys,key_resp.rt,feedback_display_.started,participantNo,blockNo,date,expName,psychopyVersion,frameRate,
1,0,3.7,0.0,0,0,0,0,9,5.299999611452222e-05,5.299999611452222e-05,47.25113990000682,49.25364589999663,49.25364589999663,49.88769600004889,49.88769600004889,50.4101723000058,45,45,50.4101723000058,50.4101723000058,50.4101723000058,50.4101723000058,50.4101723000058,50.4101723000058,50.4101723000058,50.4101723000058,50.4101723000058,50.75519009999698,50.75519009999698,50.75519009999698,50.75519009999698,50.75519009999698,50.75519009999698,50.75519009999698,50.75519009999698,50.75519009999698,23,0,,,50.75519009999698,50.95541320001939,3.7,50.95541320001939,1,3.7,1,1,1000,num_4,0.8053455000044778,,26,7,2026-03-05_10h50.15.322,2026A_exp2,2022.2.4,59.95106794960393,
1000,1,3.7,4.9,0,0,1,1,25,,,,,51.78963130002376,52.44025020004483,52.44025020004483,52.941068200045265,45,45,52.941068200045265,52.941068200045265,52.941068200045265,52.941068200045265,52.941068200045265,52.941068200045265,52.941068200045265,52.941068200045265,52.941068200045265,53.29113110003527,53.29113110003527,53.29113110003527,53.29113110003527,53.29113110003527,53.29113110003527,53.29113110003527,53.29113110003527,53.29113110003527,0,1,[0.0008416000055149198],[0.3508381999563426],53.29113110003527,53.496190200035926,1000,53.496190200035926,1000,1000,1000,1000,1,num_2,0.6173239000490867,,26,7,2026-03-05_10h50.15.322,2026A_exp2,2022.2.4,59.95106794960393,
1000,1,6.1,6.1,1,0,2,2,53,,,,,54.142036900040694,54.79270190000534,54.79270190000534,55.29375680000521,45,315,55.29375680000521,55.29375680000521,55.29375680000521,55.29375680000521,55.29375680000521,55.29375680000521,55.29375680000521,55.29375680000521,55.29375680000521,55.66011420002906,55.66011420002906,55.66011420002906,55.66011420002906,55.66011420002906,55.66011420002906,55.66011420002906,55.66011420002906,55.66011420002906,2,2,"[0.0012520999880507588, 0.06690909998724237]","[0.03347090003080666, 0.36719970003468916]",55.66011420002906,55.86192740005208,1000,55.86192740005208,1000,1000,1000,1000,1,num_2,0.5872330000274815,,26,7,2026-03-05_10h50.15.322,2026A_exp2,2022.2.4,59.95106794960393,
1000,1,3.7,3.7,1,0,3,3,54,,,,,56.47768820001511,57.12816730001941,57.12816730001941,57.62929070001701,315,315,57.62929070001701,57.62929070001701,57.62929070001701,57.62929070001701,57.62929070001701,57.62929070001701,57.62929070001701,57.62929070001701,57.62929070001701,57.99558700004127,57.99558700004127,57.99558700004127,57.99558700004127,57.99558700004127,57.99558700004127,57.99558700004127,57.99558700004127,57.99558700004127,0,1,[0.0012259000213816762],[0.3670086999773048],57.99558700004127,58.198050200007856,1000,58.198050200007856,1000,1000,1000,1000,1,num_2,0.4749413999961689,,26,7,2026-03-05_10h50.15.322,2026A_exp2,2022.2.4,59.95106794960393,
0,0,0.0,0.0,1,0,4,4,80,,,,,58.696416400023736,59.34711770003196,59.34711770003196,59.84814160002861,315,45,59.84814160002861,59.84814160002861,59.84814160002861,59.84814160002861,59.84814160002861,59.84814160002861,59.84814160002861,59.84814160002861,59.84814160002861,60.2147113000392,60.2147113000392,60.2147113000392,60.2147113000392,60.2147113000392,60.2147113000392,60.2147113000392,60.2147113000392,60.2147113000392,23,0,,,60.2147113000392,60.41480030003004,0.0,60.41480030003004,0,0.0,0,1,1000,num_1,1.531304900010582,,26,7,2026-03-05_10h50.15.322,2026A_exp2,2022.2.4,59.95106794960393,
1,0,0.0,3.7,0,0,5,5,64,,,,,61.96648160001496,62.61698069999693,62.61698069999693,63.10135970002739,315,315,63.10135970002739,63.10135970002739,63.10135970002739,63.10135970002739,63.10135970002739,63.10135970002739,63.10135970002739,63.10135970002739,63.10135970002739,63.48444690002361,63.48444690002361,63.48444690002361,63.48444690002361,63.48444690002361,63.48444690002361,63.48444690002361,63.48444690002361,63.48444690002361,24,0,,,63.48444690002361,63.68465060001472,0.0,63.68465060001472,0,0.0,0,1,1000,num_1,0.7094133999780752,,26,7,2026-03-05_10h50.15.322,2026A_exp2,2022.2.4,59.95106794960393,
1000,1,6.1,4.9,1,0,6,6,15,,,,,64.4193135999958,65.0690745000029,65.0690745000029,65.57055689999834,315,315,65.57055689999834,65.57055689999834,65.57055689999834,65.57055689999834,65.57055689999834,65.57055689999834,65.57055689999834,65.57055689999834,65.57055689999834,65.93702160002431,65.93702160002431,65.93702160002431,65.93702160002431,65.93702160002431,65.93702160002431,65.93702160002431,65.93702160002431,65.93702160002431,23,0,,,65.93702160002431,66.13713560003089,1000,66.13713560003089,1000,1000,1000,1000,1,num_2,0.49574819998815656,,26,7,2026-03-05_10h50.15.322,2026A_exp2,2022.2.4,59.95106794960393,
1000,1,0.0,0.0,0,0,7,7,2,,,,,66.65482480003266,67.30483390000882,67.30483390000882,67.7892718000221,315,315,67.7892718000221,67.7892718000221,67.7892718000221,67.7892718000221,67.7892718000221,67.7892718000221,67.7892718000221,67.7892718000221,67.7892718000221,68.1558782000211,68.1558782000211,68.1558782000211,68.1558782000211,68.1558782000211,68.1558782000211,68.1558782000211,68.1558782000211,68.1558782000211,23,0,,,68.1558782000211,68.35638410004321,1000,68.35638410004321,1000,1000,1000,1000,1,num_2,0.5645091999904253,,26,7,2026-03-05_10h50.15.322,2026A_exp2,2022.2.4,59.95106794960393,
1000,1,6.1,0.0,0,0,8,8,69,,,,,68.94016690005083,69.59070810000412,69.59070810000412,70.09187480004039,45,315,70.09187480004039,70.09187480004039,70.09187480004039,70.09187480004039,70.09187480004039,70.09187480004039,70.09187480004039,70.09187480004039,70.09187480004039,70.4581430000253,70.4581430000253,70.4581430000253,70.4581430000253,70.4581430000253,70.4581430000253,70.4581430000253,70.4581430000253,70.4581430000253,23,0,,,70.4581430000253,70.66022990003694,1000,70.66022990003694,1000,1000,1000,1000,0,num_3,0.48487220000242814,,26,7,2026-03-05_10h50.15.322,2026A_exp2,2022.2.4,59.95106794960393,
1,0,4.9,6.1,1,0,9,9,36,,,,,71.1619231000077,71.80968570004916,71.80968570004916,72.31075160001637,45,45,72.31075160001637,72.31075160001637,72.31075160001637,72.31075160001637,72.31075160001637,72.31075160001637,72.31075160001637,72.31075160001637,72.31075160001637,72.67714600003092,72.67714600003092,72.67714600003092,72.67714600003092,72.67714600003092,72.67714600003092,72.67714600003092,72.67714600003092,72.67714600003092,23,0,,,72.67714600003092,72.87715559999924,6.1,72.87715559999924,1,6.1,1,1,1000,num_4,1.0117886000080034,,26,7,2026-03-05_10h50.15.322,2026A_exp2,2022.2.4,59.95106794960393,
1000,1,0.0,4.9,0,0,10,10,23,,,,,73.91166260000318,74.56232300004922,74.56232300004922,75.0468970000511,45,315,75.0468970000511,75.0468970000511,75.0468970000511,75.0468970000511,75.0468970000511,75.0468970000511,75.0468970000511,75.0468970000511,75.0468970000511,75.41315530001884,75.41315530001884,75.41315530001884,75.41315530001884,75.41315530001884,75.41315530001884,75.41315530001884,75.41315530001884,75.41315530001884,0,1,[0.0008829999715089798],[0.3674143999814987],75.41315530001884,75.61533210001653,1000,75.61533210001653,1000,1000,1000,1000,1,num_2,0.9778154999949038,,26,7,2026-03-05_10h50.15.322,2026A_exp2,2022.2.4,59.95106794960393,
1,0,0.0,0.0,0,0,11,11,32,,,,,76.61423200002173,77.26495430001523,77.26495430001523,77.76621410000371,315,315,77.76621410000371,77.76621410000371,77.76621410000371,77.76621410000371,77.76621410000371,77.76621410000371,77.76621410000371,77.76621410000371,77.76621410000371,78.11596190003911,78.11596190003911,78.11596190003911,78.11596190003911,78.11596190003911,78.11596190003911,78.11596190003911,78.11596190003911,78.11596190003911,0,1,[0.0012374999932944775],[0.35044660000130534],78.11596190003911,78.31592670001555,0.0,78.33274760004133,0,0.0,0,1,1000,num_1,2.045472099969629,,26,7,2026-03-05_10h50.15.322,2026A_exp2,2022.2.4,59.95106794960393,
1000,1,0.0,0.0,1,0,12,12,88,,,,,80.40144109999528,81.05207090004114,81.05207090004114,81.53664890001528,45,315,81.53664890001528,81.53664890001528,81.53664890001528,81.53664890001528,81.53664890001528,81.53664890001528,81.53664890001528,81.53664890001528,81.53664890001528,81.90306750003947,81.90306750003947,81.90306750003947,81.90306750003947,81.90306750003947,81.90306750003947,81.90306750003947,81.90306750003947,81.90306750003947,23,0,,,81.90306750003947,82.10510220000288,1000,82.10510220000288,1000,1000,1000,1000,1,num_2,0.6092126000439748,,26,7,2026-03-05_10h50.15.322,2026A_exp2,2022.2.4,59.95106794960393,
1000,1,3.7,0.0,1,0,13,13,52,,,,,82.73711350001395,83.3878543000319,83.3878543000319,83.88897309999447,315,315,83.88897309999447,83.88897309999447,83.88897309999447,83.88897309999447,83.88897309999447,83.88897309999447,83.88897309999447,83.88897309999447,83.88897309999447,84.2551109000342,84.2551109000342,84.2551109000342,84.2551109000342,84.2551109000342,84.2551109000342,84.2551109000342,84.2551109000342,84.2551109000342,23,0,,,84.2551109000342,84.45721570000751,1000,84.45721570000751,1000,1000,1000,1000,1,num_2,0.5684874000144191,,26,7,2026-03-05_10h50.15.322,2026A_exp2,2022.2.4,59.95106794960393,
1,0,3.7,0.0,0,0,14,14,7,,,,,85.05607640004018,85.70687280001584,85.70687280001584,86.20787310000742,45,315,86.20787310000742,86.20787310000742,86.20787310000742,86.20787310000742,86.20787310000742,86.20787310000742,86.20787310000742,86.20787310000742,86.20787310000742,86.57441130001098,86.57441130001098,86.57441130001098,86.57441130001098,86.57441130001098,86.57441130001098,86.57441130001098,86.57441130001098,86.57441130001098,23,0,,,86.57441130001098,86.77457890001824,3.7,86.77457890001824,1,3.7,1,1,1000,num_4,1.0916790999472141,,26,7,2026-03-05_10h50.15.322,2026A_exp2,2022.2.4,59.95106794960393,
0,0,0.0,4.9,1,0,15,15,0,,,,,87.89226880000206,88.54299310001079,88.54299310001079,89.0272871000343,45,315,89.0272871000343,89.0272871000343,89.0272871000343,89.0272871000343,89.0272871000343,89.0272871000343,89.0272871000343,89.0272871000343,89.0272871000343,89.39367990003666,89.39367990003666,89.39367990003666,89.39367990003666,89.39367990003666,89.39367990003666,89.39367990003666,89.39367990003666,89.39367990003666,23,0,,,89.39367990003666,89.59393950004596,0.0,89.59393950004596,0,0.0,0,1,1000,num_1,0.6638817000202835,,26,7,2026-03-05_10h50.15.322,2026A_exp2,2022.2.4,59.95106794960393,
0,0,0.0,6.1,1,0,16,16,46,,,,,90.27793570002541,90.92858270002762,90.92858270002762,91.41296560002957,45,315,91.41296560002957,91.41296560002957,91.41296560002957,91.41296560002957,91.41296560002957,91.41296560002957,91.41296560002957,91.41296560002957,91.41296560002957,91.77955020003719,91.77955020003719,91.77955020003719,91.77955020003719,91.77955020003719,91.77955020003719,91.77955020003719,91.77955020003719,91.77955020003719,23,0,,,91.77955020003719,91.97974969999632,0.0,91.97974969999632,0,0.0,0,1,1000,num_1,0.6857955000014044,,26,7,2026-03-05_10h50.15.322,2026A_exp2,2022.2.4,59.95106794960393,
1,0,3.7,0.0,0,0,17,17,10,,,,,92.69695810001576,93.34782000002451,93.34782000002451,93.83224330004305,315,315,93.83224330004305,93.83224330004305,93.83224330004305,93.83224330004305,93.83224330004305,93.83224330004305,93.83224330004305,93.83224330004305,93.83224330004305,94.19869660004042,94.19869660004042,94.19869660004042,94.19869660004042,94.19869660004042,94.19869660004042,94.19869660004042,94.19869660004042,94.19869660004042,0,1,[0.0012252999586053193],[0.36688849999336526],94.19869660004042,94.39881350001087,3.7,94.39881350001087,1,3.7,1,1,1000,num_4,0.8503499999642372,,26,7,2026-03-05_10h50.15.322,2026A_exp2,2022.2.4,59.95106794960393,
0,0,4.9,6.1,1,0,18,18,70,,,,,95.26620860002004,95.91700230003335,95.91700230003335,96.40136170003098,315,315,96.40136170003098,96.40136170003098,96.40136170003098,96.40136170003098,96.40136170003098,96.40136170003098,96.40136170003098,96.40136170003098,96.40136170003098,96.76802580000367,96.76802580000367,96.76802580000367,96.76802580000367,96.76802580000367,96.76802580000367,96.76802580000367,96.76802580000367,96.76802580000367,23,0,,,96.76802580000367,96.96821350004757,4.9,96.96821350004757,0,4.9,1,0,1000,num_1,0.713171900017187,,26,7,2026-03-05_10h50.15.322,2026A_exp2,2022.2.4,59.95106794960393,
1000,1,0.0,4.9,1,0,19,19,72,,,,,97.70238360000076,98.35271860001376,98.35271860001376,98.83726440003375,315,45,98.83726440003375,98.83726440003375,98.83726440003375,98.83726440003375,98.83726440003375,98.83726440003375,98.83726440003375,98.83726440003375,98.83726440003375,99.20356390002416,99.20356390002416,99.20356390002416,99.20356390002416,99.20356390002416,99.20356390002416,99.20356390002416,99.20356390002416,99.20356390002416,23,0,,,99.20356390002416,99.40553630003706,1000,99.40553630003706,1000,1000,1000,1000,1,num_2,0.4117866000160575,,26,7,2026-03-05_10h50.15.322,2026A_exp2,2022.2.4,59.95106794960393,
1000,1,4.9,0.0,1,0,20,20,84,,,,,99.83790380001301,100.4882303000195,100.4882303000195,100.9893890999956,45,315,100.9893890999956,100.9893890999956,100.9893890999956,100.9893890999956,100.9893890999956,100.9893890999956,100.9893890999956,100.9893890999956,100.9893890999956,101.3391615000437,101.3391615000437,101.3391615000437,101.3391615000437,101.3391615000437,101.3391615000437,101.3391615000437,101.3391615000437,101.3391615000437,14,6,"[0.0013645000290125608, 0.15041940001538023, 0.1836584000266157, 0.21712400001706555, 0.2671721000224352, 0.30053020000923425]","[0.05026009998982772, 0.16697930003283545, 0.20032000000355765, 0.23368410003604367, 0.2838653000071645, 0.3172902000369504]",101.3391615000437,101.5413701000507,1000,101.5413701000507,1000,1000,1000,1000,0,num_3,0.691978300048504,,26,7,2026-03-05_10h50.15.322,2026A_exp2,2022.2.4,59.95106794960393,
1000,1,0.0,0.0,1,0,21,21,35,,,,,102.25654670002405,102.90736850001849,102.90736850001849,103.40845650003757,45,315,103.40845650003757,103.40845650003757,103.40845650003757,103.40845650003757,103.40845650003757,103.40845650003757,103.40845650003757,103.40845650003757,103.40845650003757,103.7749363000039,103.7749363000039,103.7749363000039,103.7749363000039,103.7749363000039,103.7749363000039,103.7749363000039,103.7749363000039,103.7749363000039,23,0,,,103.7749363000039,103.97517859999789,1000,103.97517859999789,1000,1000,1000,1000,1,num_2,0.4981174999848008,,26,7,2026-03-05_10h50.15.322,2026A_exp2,2022.2.4,59.95106794960393,
1,0,0.0,0.0,0,0,22,22,11,,,,,104.49215830001049,105.1429326000507,105.1429326000507,105.6440896000131,315,45,105.6440896000131,105.6440896000131,105.6440896000131,105.6440896000131,105.6440896000131,105.6440896000131,105.6440896000131,105.6440896000131,105.6440896000131,106.01050460000988,106.01050460000988,106.01050460000988,106.01050460000988,106.01050460000988,106.01050460000988,106.01050460000988,106.01050460000988,106.01050460000988,23,0,,,106.01050460000988,106.2105264000129,0.0,106.2105264000129,1,0.0,0,0,1000,num_4,0.9024925999692641,,26,7,2026-03-05_10h50.15.322,2026A_exp2,2022.2.4,59.95106794960393,
1,0,4.9,6.1,0,0,23,23,29,,,,,107.14492069999687,107.77888340002391,107.77888340002391,108.28010760003235,45,45,108.28010760003235,108.28010760003235,108.28010760003235,108.28010760003235,108.28010760003235,108.28010760003235,108.28010760003235,108.28010760003235,108.28010760003235,108.64643270004308,108.64643270004308,108.64643270004308,108.64643270004308,108.64643270004308,108.64643270004308,108.64643270004308,108.64643270004308,108.64643270004308,23,0,,,108.64643270004308,108.84650220000185,4.9,108.84650220000185,1,4.9,1,1,1000,num_4,1.3228354000020772,,26,7,2026-03-05_10h50.15.322,2026A_exp2,2022.2.4,59.95106794960393,
1,0,0.0,0.0,1,0,24,24,20,,,,,110.19782160001341,110.83191310003167,110.83191310003167,111.33297270000912,45,45,111.33297270000912,111.33297270000912,111.33297270000912,111.33297270000912,111.33297270000912,111.33297270000912,111.33297270000912,111.33297270000912,111.33297270000912,111.69943570002215,111.69943570002215,111.69943570002215,111.69943570002215,111.69943570002215,111.69943570002215,111.69943570002215,111.69943570002215,111.69943570002215,5,2,"[0.017276099999435246, 0.2836618999717757]","[0.26700669998535886, 0.3337080999626778]",111.69943570002215,111.89966900000582,0.0,111.89966900000582,1,0.0,0,0,1000,num_4,1.1022698999731801,,26,7,2026-03-05_10h50.15.322,2026A_exp2,2022.2.4,59.95106794960393,
1000,1,6.1,6.1,0,0,25,25,87,,,,,113.03404860000592,113.68482750002295,113.68482750002295,114.16928820003523,45,315,114.16928820003523,114.16928820003523,114.16928820003523,114.16928820003523,114.16928820003523,114.16928820003523,114.16928820003523,114.16928820003523,114.16928820003523,114.5356041000341,114.5356041000341,114.5356041000341,114.5356041000341,114.5356041000341,114.5356041000341,114.5356041000341,114.5356041000341,114.5356041000341,23,0,,,114.5356041000341,114.73789600003511,1000,114.73789600003511,1000,1000,1000,1000,0,num_3,0.5280553000047803,,26,7,2026-03-05_10h50.15.322,2026A_exp2,2022.2.4,59.95106794960393,
0,0,3.7,3.7,1,0,26,26,62,,,,,115.28643239999656,115.93682320002699,115.93682320002699,116.4214370000409,315,45,116.4214370000409,116.4214370000409,116.4214370000409,116.4214370000409,116.4214370000409,116.4214370000409,116.4214370000409,116.4214370000409,116.4214370000409,116.78794960002415,116.78794960002415,116.78794960002415,116.78794960002415,116.78794960002415,116.78794960002415,116.78794960002415,116.78794960002415,116.78794960002415,15,5,"[0.033553400018718094, 0.10034369997447357, 0.1671282000024803, 0.2838472999865189, 0.35059809999074787]","[0.067111800017301, 0.15058710001176223, 0.18379039998399094, 0.30064789997413754, 0.36733590002404526]",116.78794960002415,116.98815230000764,3.7,116.98815230000764,0,3.7,1,0,1000,num_1,1.1494118999689817,,26,7,2026-03-05_10h50.15.322,2026A_exp2,2022.2.4,59.95106794960393,
1000,1,4.9,0.0,0,0,27,27,45,,,,,118.15571140003158,118.80646089999937,118.80646089999937,119.29092520003906,315,45,119.29092520003906,119.29092520003906,119.29092520003906,119.29092520003906,119.29092520003906,119.29092520003906,119.29092520003906,119.29092520003906,119.29092520003906,119.65746230003424,119.65746230003424,119.65746230003424,119.65746230003424,119.65746230003424,119.65746230003424,119.65746230003424,119.65746230003424,119.65746230003424,23,0,,,119.65746230003424,119.85922490002122,1000,119.85922490002122,1000,1000,1000,1000,0,num_3,0.5343260000227019,,26,7,2026-03-05_10h50.15.322,2026A_exp2,2022.2.4,59.95106794960393,
0,0,6.1,4.9,1,0,28,28,42,,,,,120.42491430003429,121.08262650005054,121.08262650005054,121.581747200049,45,45,121.581747200049,121.581747200049,121.581747200049,121.581747200049,121.581747200049,121.581747200049,121.581747200049,121.581747200049,121.581747200049,121.9429519000114,121.9429519000114,121.9429519000114,121.9429519000114,121.9429519000114,121.9429519000114,121.9429519000114,121.9429519000114,121.9429519000114,17,5,"[0.022884299978613853, 0.06708339997567236, 0.13264670001808554, 0.18263960001058877, 0.24938739999197423]","[0.035970899974927306, 0.09915269998600706, 0.14916199998697266, 0.2159197999862954, 0.26605779997771606]",121.9429519000114,122.14320470002713,6.1,122.14320470002713,1,6.1,1,1,1000,num_4,0.7788055999553762,,26,7,2026-03-05_10h50.15.322,2026A_exp2,2022.2.4,59.95106794960393,
1000,1,3.7,0.0,1,0,29,29,38,,,,,122.94392049999442,123.59473950002575,123.59473950002575,124.07917199999793,45,315,124.07917199999793,124.07917199999793,124.07917199999793,124.07917199999793,124.07917199999793,124.07917199999793,124.07917199999793,124.07917199999793,124.07917199999793,124.4455063000205,124.4455063000205,124.4455063000205,124.4455063000205,124.4455063000205,124.4455063000205,124.4455063000205,124.4455063000205,124.4455063000205,23,0,,,124.4455063000205,124.64760900003603,1000,124.64760900003603,1000,1000,1000,1000,0,num_3,0.5704842999693938,,26,7,2026-03-05_10h50.15.322,2026A_exp2,2022.2.4,59.95106794960393,
1000,1,3.7,0.0,0,0,30,30,55,,,,,125.24622000003001,125.8971048000385,125.8971048000385,126.39812580001308,315,315,126.39812580001308,126.39812580001308,126.39812580001308,126.39812580001308,126.39812580001308,126.39812580001308,126.39812580001308,126.39812580001308,126.39812580001308,126.76436810003361,126.76436810003361,126.76436810003361,126.76436810003361,126.76436810003361,126.76436810003361,126.76436810003361,126.76436810003361,126.76436810003361,23,0,,,126.76436810003361,126.96642680000514,1000,126.96642680000514,1000,1000,1000,1000,0,num_3,0.4503370000165887,,26,7,2026-03-05_10h50.15.322,2026A_exp2,2022.2.4,59.95106794960393,
1000,1,3.7,0.0,0,0,31,31,81,,,,,127.4486555000185,128.10119519999716,128.10119519999716,128.58890470000915,45,315,128.58890470000915,128.58890470000915,128.58890470000915,128.58890470000915,128.58890470000915,128.58890470000915,128.58890470000915,128.58890470000915,128.58890470000915,128.95010220003314,128.95010220003314,128.95010220003314,128.95010220003314,128.95010220003314,128.95010220003314,128.95010220003314,128.95010220003314,128.95010220003314,23,0,,,128.95010220003314,129.1522232000134,1000,129.1522232000134,1000,1000,1000,1000,0,num_3,0.5059007999952883,,26,7,2026-03-05_10h50.15.322,2026A_exp2,2022.2.4,59.95106794960393,
1,0,6.1,0.0,1,0,32,32,17,,,,,129.68403970001964,130.33691850001924,130.33691850001924,130.83596400002716,315,315,130.83596400002716,130.83596400002716,130.83596400002716,130.83596400002716,130.83596400002716,130.83596400002716,130.83596400002716,130.83596400002716,130.83596400002716,131.20228190004127,131.20228190004127,131.20228190004127,131.20228190004127,131.20228190004127,131.20228190004127,131.20228190004127,131.20228190004127,131.20228190004127,23,0,,,131.20228190004127,131.40279800002463,0.0,131.40279800002463,0,0.0,0,1,1000,num_1,0.9422977000358514,,26,7,2026-03-05_10h50.15.322,2026A_exp2,2022.2.4,59.95106794960393,
1,0,6.1,0.0,0,0,33,33,51,,,,,132.37004710000474,133.02072349999798,133.02072349999798,133.52209000004223,315,45,133.52209000004223,133.52209000004223,133.52209000004223,133.52209000004223,133.52209000004223,133.52209000004223,133.52209000004223,133.52209000004223,133.52209000004223,133.8715877000359,133.8715877000359,133.8715877000359,133.8715877000359,133.8715877000359,133.8715877000359,133.8715877000359,133.8715877000359,133.8715877000359,22,0,,,133.8715877000359,134.07185690000188,6.1,134.07185690000188,1,6.1,1,1,1000,num_4,1.3459884999901988,,26,7,2026-03-05_10h50.15.322,2026A_exp2,2022.2.4,59.95106794960393,
1,0,4.9,0.0,0,0,34,34,47,,,,,135.43975280004088,136.09040680003818,136.09040680003818,136.57476849999512,45,315,136.57476849999512,136.57476849999512,136.57476849999512,136.57476849999512,136.57476849999512,136.57476849999512,136.57476849999512,136.57476849999512,136.57476849999512,136.94136680004885,136.94136680004885,136.94136680004885,136.94136680004885,136.94136680004885,136.94136680004885,136.94136680004885,136.94136680004885,136.94136680004885,23,0,,,136.94136680004885,137.14149440004257,4.9,137.14149440004257,1,4.9,1,1,1000,num_4,0.8678468000143766,,26,7,2026-03-05_10h50.15.322,2026A_exp2,2022.2.4,59.95106794960393,
1,0,0.0,0.0,0,0,35,35,85,,,,,138.02750349999405,138.67650990001857,138.67650990001857,139.1777028000215,45,315,139.1777028000215,139.1777028000215,139.1777028000215,139.1777028000215,139.1777028000215,139.1777028000215,139.1777028000215,139.1777028000215,139.1777028000215,139.54398650000803,139.54398650000803,139.54398650000803,139.54398650000803,139.54398650000803,139.54398650000803,139.54398650000803,139.54398650000803,139.54398650000803,8,1,[0.0007007999811321497],[0.25073269999120384],139.54398650000803,139.7442665999988,0.0,139.7442665999988,1,0.0,0,0,1000,num_4,0.8247039000270888,,26,7,2026-03-05_10h50.15.322,2026A_exp2,2022.2.4,59.95106794960393,
1000,1,0.0,0.0,1,0,36,36,68,,,,,140.5949663000065,141.24587650003377,141.24587650003377,141.7300785999978,45,45,141.7300785999978,141.7300785999978,141.7300785999978,141.7300785999978,141.7300785999978,141.7300785999978,141.7300785999978,141.7300785999978,141.7300785999978,142.09647300001234,142.09647300001234,142.09647300001234,142.09647300001234,142.09647300001234,142.09647300001234,142.09647300001234,142.09647300001234,142.09647300001234,23,0,,,142.09647300001234,142.29684389999602,1000,142.29684389999602,1000,1000,1000,1000,1,num_2,0.8161048999754712,,26,7,2026-03-05_10h50.15.322,2026A_exp2,2022.2.4,59.95106794960393,
1,0,6.1,6.1,0,0,37,37,89,,,,,143.13112890004413,143.78156080003828,143.78156080003828,144.28272360004485,45,315,144.28272360004485,144.28272360004485,144.28272360004485,144.28272360004485,144.28272360004485,144.28272360004485,144.28272360004485,144.28272360004485,144.28272360004485,144.64904800005024,144.64904800005024,144.64904800005024,144.64904800005024,144.64904800005024,144.64904800005024,144.64904800005024,144.64904800005024,144.64904800005024,18,2,"[0.11697229999117553, 0.16711030004080385]","[0.13362129998859018, 0.2337409000028856]",144.64904800005024,144.84929919999558,6.1,144.84929919999558,1,6.1,1,1,1000,num_4,0.7524327000137419,,26,7,2026-03-05_10h50.15.322,2026A_exp2,2022.2.4,59.95106794960393,
1,0,4.9,4.9,0,0,38,38,28,,,,,145.6332743000239,146.28411220002454,146.28411220002454,146.76841630000854,45,315,146.76841630000854,146.76841630000854,146.76841630000854,146.76841630000854,146.76841630000854,146.76841630000854,146.76841630000854,146.76841630000854,146.76841630000854,147.13494509999873,147.13494509999873,147.13494509999873,147.13494509999873,147.13494509999873,147.13494509999873,147.13494509999873,147.13494509999873,147.13494509999873,18,4,"[0.01734540000325069, 0.05019420001190156, 0.21734839997952804, 0.2670909999869764]","[0.03354799997759983, 0.06689120002556592, 0.2337913999799639, 0.3005711000296287]",147.13494509999873,147.33509000000777,4.9,147.33509000000777,1,4.9,1,1,1000,num_4,0.7777896000188775,,26,7,2026-03-05_10h50.15.322,2026A_exp2,2022.2.4,59.95106794960393,
1000,1,0.0,6.1,0,0,39,39,27,,,,,148.13571530004265,148.7698404000257,148.7698404000257,149.27103560004616,45,45,149.27103560004616,149.27103560004616,149.27103560004616,149.27103560004616,149.27103560004616,149.27103560004616,149.27103560004616,149.27103560004616,149.27103560004616,149.63750690000597,149.63750690000597,149.63750690000597,149.63750690000597,149.63750690000597,149.63750690000597,149.63750690000597,149.63750690000597,149.63750690000597,6,1,[0.0012375999940559268],[0.2833552999654785],149.63750690000597,149.83976699999766,1000,149.83976699999766,1000,1000,1000,1000,1,num_2,0.6411823999951594,,26,7,2026-03-05_10h50.15.322,2026A_exp2,2022.2.4,59.95106794960393,
0,0,0.0,4.9,1,0,40,40,33,,,,,150.5048571000225,151.15565369999968,151.15565369999968,151.65663120005047,45,315,151.65663120005047,151.65663120005047,151.65663120005047,151.65663120005047,151.65663120005047,151.65663120005047,151.65663120005047,151.65663120005047,151.65663120005047,152.02299940004013,152.02299940004013,152.02299940004013,152.02299940004013,152.02299940004013,152.02299940004013,152.02299940004013,152.02299940004013,152.02299940004013,23,0,,,152.02299940004013,152.2234027000377,0.0,152.2234027000377,0,0.0,0,1,1000,num_1,0.6660470000351779,,26,7,2026-03-05_10h50.15.322,2026A_exp2,2022.2.4,59.95106794960393,
1,0,0.0,0.0,0,0,41,41,6,,,,,152.90729300002567,153.55797190003796,153.55797190003796,154.04246960004093,315,45,154.04246960004093,154.04246960004093,154.04246960004093,154.04246960004093,154.04246960004093,154.04246960004093,154.04246960004093,154.04246960004093,154.04246960004093,154.408878700051,154.408878700051,154.408878700051,154.408878700051,154.408878700051,154.408878700051,154.408878700051,154.408878700051,154.408878700051,23,0,,,154.408878700051,154.60914900002535,0.0,154.60914900002535,0,0.0,0,1,1000,num_1,0.7761383999604732,,26,7,2026-03-05_10h50.15.322,2026A_exp2,2022.2.4,59.95106794960393,
1000,1,3.7,0.0,1,0,42,42,78,,,,,155.40972570003942,156.06042300001718,156.06042300001718,156.5450329000014,315,45,156.5450329000014,156.5450329000014,156.5450329000014,156.5450329000014,156.5450329000014,156.5450329000014,156.5450329000014,156.5450329000014,156.5450329000014,156.91143920004833,156.91143920004833,156.91143920004833,156.91143920004833,156.91143920004833,156.91143920004833,156.91143920004833,156.91143920004833,156.91143920004833,23,0,,,156.91143920004833,157.1138031000155,1000,157.1138031000155,1000,1000,1000,1000,1,num_2,0.4392595000099391,,26,7,2026-03-05_10h50.15.322,2026A_exp2,2022.2.4,59.95106794960393,
1000,1,6.1,0.0,0,0,43,43,21,,,,,157.5786500000395,158.22938560001785,158.22938560001785,158.7302617999958,315,315,158.7302617999958,158.7302617999958,158.7302617999958,158.7302617999958,158.7302617999958,158.7302617999958,158.7302617999958,158.7302617999958,158.7302617999958,159.09684400004335,159.09684400004335,159.09684400004335,159.09684400004335,159.09684400004335,159.09684400004335,159.09684400004335,159.09684400004335,159.09684400004335,23,0,,,159.09684400004335,159.29900960001396,1000,159.29900960001396,1000,1000,1000,1000,0,num_3,0.5986933999811299,,26,7,2026-03-05_10h50.15.322,2026A_exp2,2022.2.4,59.95106794960393,
1,0,3.7,0.0,0,0,44,44,3,,,,,159.91439590003574,160.56503510003677,160.56503510003677,161.04953350004507,45,45,161.04953350004507,161.04953350004507,161.04953350004507,161.04953350004507,161.04953350004507,161.04953350004507,161.04953350004507,161.04953350004507,161.04953350004507,161.41572670004098,161.41572670004098,161.41572670004098,161.41572670004098,161.41572670004098,161.41572670004098,161.41572670004098,161.41572670004098,161.41572670004098,23,0,,,161.41572670004098,161.61606560001383,3.7,161.61606560001383,1,3.7,1,1,1000,num_4,1.0581800999934785,,26,7,2026-03-05_10h50.15.322,2026A_exp2,2022.2.4,59.95106794960393,
1000,1,0.0,0.0,0,0,45,45,24,,,,,162.70033780002268,163.3511553000426,163.3511553000426,163.8354948000051,45,315,163.8354948000051,163.8354948000051,163.8354948000051,163.8354948000051,163.8354948000051,163.8354948000051,163.8354948000051,163.8354948000051,163.8354948000051,164.20193820004351,164.20193820004351,164.20193820004351,164.20193820004351,164.20193820004351,164.20193820004351,164.20193820004351,164.20193820004351,164.20193820004351,23,0,,,164.20193820004351,164.40429080004105,1000,164.40429080004105,1000,1000,1000,1000,1,num_2,0.47788739996030927,,26,7,2026-03-05_10h50.15.322,2026A_exp2,2022.2.4,59.95106794960393,
1,0,0.0,0.0,1,0,46,46,59,,,,,164.9026219000225,165.55322040000465,165.55322040000465,166.05416030000197,45,315,166.05416030000197,166.05416030000197,166.05416030000197,166.05416030000197,166.05416030000197,166.05416030000197,166.05416030000197,166.05416030000197,166.05416030000197,166.40405040001497,166.40405040001497,166.40405040001497,166.40405040001497,166.40405040001497,166.40405040001497,166.40405040001497,166.40405040001497,166.40405040001497,22,0,,,166.40405040001497,166.6044460000121,0.0,166.62098270002753,1,0.0,0,0,1000,num_4,1.3085817999672145,,26,7,2026-03-05_10h50.15.322,2026A_exp2,2022.2.4,59.95106794960393,
1,0,0.0,3.7,0,0,47,47,76,,,,,167.95550050004385,168.6113271000213,168.6113271000213,169.1009522000095,315,315,169.1009522000095,169.1009522000095,169.1009522000095,169.1009522000095,169.1009522000095,169.1009522000095,169.1009522000095,169.1009522000095,169.1009522000095,169.4572478000191,169.4572478000191,169.4572478000191,169.4572478000191,169.4572478000191,169.4572478000191,169.4572478000191,169.4572478000191,169.4572478000191,23,0,,,169.4572478000191,169.6574841000256,0.0,169.6574841000256,0,0.0,0,1,1000,num_1,0.6952979000052437,,26,7,2026-03-05_10h50.15.322,2026A_exp2,2022.2.4,59.95106794960393,
1,0,0.0,0.0,0,0,48,48,39,,,,,170.37471370003186,171.02554060000693,171.02554060000693,171.50981390004745,45,315,171.50981390004745,171.50981390004745,171.50981390004745,171.50981390004745,171.50981390004745,171.50981390004745,171.50981390004745,171.50981390004745,171.50981390004745,171.87633860000642,171.87633860000642,171.87633860000642,171.87633860000642,171.87633860000642,171.87633860000642,171.87633860000642,171.87633860000642,171.87633860000642,23,0,,,171.87633860000642,172.07655320002232,0.0,172.07655320002232,1,0.0,0,0,1000,num_4,1.0936668000067584,,26,7,2026-03-05_10h50.15.322,2026A_exp2,2022.2.4,59.95106794960393,
0,0,0.0,4.9,0,0,49,49,65,,,,,173.1941930000321,173.84484370000428,173.84484370000428,174.32933960005175,45,315,174.32933960005175,174.32933960005175,174.32933960005175,174.32933960005175,174.32933960005175,174.32933960005175,174.32933960005175,174.32933960005175,174.32933960005175,174.69584970001597,174.69584970001597,174.69584970001597,174.69584970001597,174.69584970001597,174.69584970001597,174.69584970001597,174.69584970001597,174.69584970001597,0,1,[0.0009826000314205885],[0.3671411999966949],174.69584970001597,174.895923700009,4.9,174.895923700009,1,4.9,1,1,1000,num_4,1.0328482000040822,,26,7,2026-03-05_10h50.15.322,2026A_exp2,2022.2.4,59.95106794960393,
1000,1,0.0,3.7,1,0,50,50,1,,,,,175.94686660001753,176.59770840004785,176.59770840004785,177.08218020002823,45,45,177.08218020002823,177.08218020002823,177.08218020002823,177.08218020002823,177.08218020002823,177.08218020002823,177.08218020002823,177.08218020002823,177.08218020002823,177.44848740001908,177.44848740001908,177.44848740001908,177.44848740001908,177.44848740001908,177.44848740001908,177.44848740001908,177.44848740001908,177.44848740001908,23,0,,,177.44848740001908,177.65032680000877,1000,177.65032680000877,1000,1000,1000,1000,1,num_2,0.62340799998492,,26,7,2026-03-05_10h50.15.322,2026A_exp2,2022.2.4,59.95106794960393,
1,0,6.1,3.7,1,0,51,51,16,,,,,178.29924010002287,178.95585940004094,178.95585940004094,179.4390578000457,45,315,179.4390578000457,179.4390578000457,179.4390578000457,179.4390578000457,179.4390578000457,179.4390578000457,179.4390578000457,179.4390578000457,179.4390578000457,179.80104710004525,179.80104710004525,179.80104710004525,179.80104710004525,179.80104710004525,179.80104710004525,179.80104710004525,179.80104710004525,179.80104710004525,23,0,,,179.80104710004525,180.00479300000006,3.7,180.00479300000006,1,3.7,1,1,1000,num_4,1.4841057999874465,,26,7,2026-03-05_10h50.15.322,2026A_exp2,2022.2.4,59.95106794960393,
1,0,0.0,0.0,1,0,52,52,58,,,,,181.5191646000021,182.17000350001035,182.17000350001035,182.6543075000518,315,45,182.6543075000518,182.6543075000518,182.6543075000518,182.6543075000518,182.6543075000518,182.6543075000518,182.6543075000518,182.6543075000518,182.6543075000518,183.02098370000022,183.02098370000022,183.02098370000022,183.02098370000022,183.02098370000022,183.02098370000022,183.02098370000022,183.02098370000022,183.02098370000022,23,0,,,183.02098370000022,183.22084820002783,0.0,183.22084820002783,1,0.0,0,0,1000,num_4,1.0690454000141472,,26,7,2026-03-05_10h50.15.322,2026A_exp2,2022.2.4,59.95106794960393,
1,0,0.0,3.7,1,0,53,53,30,,,,,184.32208360004006,184.9727507000207,184.9727507000207,185.45711990003474,315,45,185.45711990003474,185.45711990003474,185.45711990003474,185.45711990003474,185.45711990003474,185.45711990003474,185.45711990003474,185.45711990003474,185.45711990003474,185.82365700002993,185.82365700002993,185.82365700002993,185.82365700002993,185.82365700002993,185.82365700002993,185.82365700002993,185.82365700002993,185.82365700002993,23,0,,,185.82365700002993,186.02371790003963,3.7,186.02371790003963,1,3.7,1,1,1000,num_4,0.71391940000467,,26,7,2026-03-05_10h50.15.322,2026A_exp2,2022.2.4,59.95106794960393,
1,0,0.0,3.7,0,0,54,54,31,,,,,186.7577305000159,187.40854470001068,187.40854470001068,187.89297610003268,315,315,187.89297610003268,187.89297610003268,187.89297610003268,187.89297610003268,187.89297610003268,187.89297610003268,187.89297610003268,187.89297610003268,187.89297610003268,188.25940430001356,188.25940430001356,188.25940430001356,188.25940430001356,188.25940430001356,188.25940430001356,188.25940430001356,188.25940430001356,188.25940430001356,16,4,"[0.11689270002534613, 0.18354569998336956, 0.21684589999495074, 0.31699060002574697]","[0.1335323000093922, 0.2003584000049159, 0.23368479998316616, 0.3672347000101581]",188.25940430001356,188.45965800003614,0.0,188.45965800003614,1,0.0,0,0,1000,num_4,1.6535795000381768,,26,7,2026-03-05_10h50.15.322,2026A_exp2,2022.2.4,59.95106794960393,
1000,1,4.9,3.7,0,0,55,55,40,,,,,190.14445610000985,190.79516940005124,190.79516940005124,191.2797393000219,315,315,191.2797393000219,191.2797393000219,191.2797393000219,191.2797393000219,191.2797393000219,191.2797393000219,191.2797393000219,191.2797393000219,191.2797393000219,191.64603530004388,191.64603530004388,191.64603530004388,191.64603530004388,191.64603530004388,191.64603530004388,191.64603530004388,191.64603530004388,191.64603530004388,23,0,,,191.64603530004388,191.84816029999638,1000,191.84816029999638,1000,1000,1000,1000,1,num_2,0.8261141000548378,,26,7,2026-03-05_10h50.15.322,2026A_exp2,2022.2.4,59.95106794960393,
1,0,0.0,4.9,1,0,56,56,73,,,,,192.69699379999656,193.34781440004008,193.34781440004008,193.8489794000052,45,315,193.8489794000052,193.8489794000052,193.8489794000052,193.8489794000052,193.8489794000052,193.8489794000052,193.8489794000052,193.8489794000052,193.8489794000052,194.21533960005036,194.21533960005036,194.21533960005036,194.21533960005036,194.21533960005036,194.21533960005036,194.21533960005036,194.21533960005036,194.21533960005036,23,0,,,194.21533960005036,194.41551000002073,4.9,194.41551000002073,1,4.9,1,1,1000,num_4,0.6579075999907218,,26,7,2026-03-05_10h50.15.322,2026A_exp2,2022.2.4,59.95106794960393,
1,0,3.7,6.1,1,0,57,57,75,,,,,195.09949860000052,195.75025790004293,195.75025790004293,196.23448070004815,45,45,196.23448070004815,196.23448070004815,196.23448070004815,196.23448070004815,196.23448070004815,196.23448070004815,196.23448070004815,196.23448070004815,196.23448070004815,196.6008187000407,196.6008187000407,196.6008187000407,196.6008187000407,196.6008187000407,196.6008187000407,196.6008187000407,196.6008187000407,196.6008187000407,23,0,,,196.6008187000407,196.80129500001203,6.1,196.80129500001203,1,6.1,1,1,1000,num_4,0.8398732999921776,,26,7,2026-03-05_10h50.15.322,2026A_exp2,2022.2.4,59.95106794960393,
1000,1,4.9,0.0,1,0,58,58,74,,,,,197.66866560000926,198.31939050002256,198.31939050002256,198.80388419999508,315,315,198.80388419999508,198.80388419999508,198.80388419999508,198.80388419999508,198.80388419999508,198.80388419999508,198.80388419999508,198.80388419999508,198.80388419999508,199.17005890002474,199.17005890002474,199.17005890002474,199.17005890002474,199.17005890002474,199.17005890002474,199.17005890002474,199.17005890002474,199.17005890002474,23,0,,,199.17005890002474,199.37224490003427,1000,199.37224490003427,1000,1000,1000,1000,0,num_3,0.5578730999841355,,26,7,2026-03-05_10h50.15.322,2026A_exp2,2022.2.4,59.95106794960393,
1000,1,0.0,3.7,1,0,59,59,82,,,,,199.9542877000058,200.60493080003653,200.60493080003653,201.10609000001568,45,45,201.10609000001568,201.10609000001568,201.10609000001568,201.10609000001568,201.10609000001568,201.10609000001568,201.10609000001568,201.10609000001568,201.10609000001568,201.45589450001717,201.45589450001717,201.45589450001717,201.45589450001717,201.45589450001717,201.45589450001717,201.45589450001717,201.45589450001717,201.45589450001717,22,0,,,201.45589450001717,201.65650660003303,1000,201.65650660003303,1000,1000,1000,1000,1,num_2,0.40191020001657307,,26,7,2026-03-05_10h50.15.322,2026A_exp2,2022.2.4,59.95106794960393,
1000,1,4.9,0.0,1,0,60,60,56,,,,,202.0899788000388,202.74046610004734,202.74046610004734,203.24156130000483,315,315,203.24156130000483,203.24156130000483,203.24156130000483,203.24156130000483,203.24156130000483,203.24156130000483,203.24156130000483,203.24156130000483,203.24156130000483,203.59140220005065,203.59140220005065,203.59140220005065,203.59140220005065,203.59140220005065,203.59140220005065,203.59140220005065,203.59140220005065,203.59140220005065,22,0,,,203.59140220005065,203.79313960002037,1000,203.80839930003276,1000,1000,1000,1000,0,num_3,0.40115559997502714,,26,7,2026-03-05_10h50.15.322,2026A_exp2,2022.2.4,59.95106794960393,
1000,1,0.0,3.7,0,0,61,61,50,,,,,204.2253297000425,204.8760517000337,204.8760517000337,205.37697810004465,315,45,205.37697810004465,205.37697810004465,205.37697810004465,205.37697810004465,205.37697810004465,205.37697810004465,205.37697810004465,205.37697810004465,205.37697810004465,205.74346620001597,205.74346620001597,205.74346620001597,205.74346620001597,205.74346620001597,205.74346620001597,205.74346620001597,205.74346620001597,205.74346620001597,23,0,,,205.74346620001597,205.94566190004116,1000,205.94566190004116,1000,1000,1000,1000,0,num_3,0.48029689997201785,,26,7,2026-03-05_10h50.15.322,2026A_exp2,2022.2.4,59.95106794960393,
1000,1,3.7,6.1,1,0,62,62,43,,,,,206.44412130001,207.09480160003295,207.09480160003295,207.59601120004663,45,45,207.59601120004663,207.59601120004663,207.59601120004663,207.59601120004663,207.59601120004663,207.59601120004663,207.59601120004663,207.59601120004663,207.59601120004663,207.96235730004264,207.96235730004264,207.96235730004264,207.96235730004264,207.96235730004264,207.96235730004264,207.96235730004264,207.96235730004264,207.96235730004264,23,0,,,207.96235730004264,208.16240580001613,1000,208.16240580001613,1000,1000,1000,1000,1,num_2,0.4308972000144422,,26,7,2026-03-05_10h50.15.322,2026A_exp2,2022.2.4,59.95106794960393,
0,0,4.9,0.0,1,0,63,63,26,,,,,208.6129395000171,209.2636491000303,209.2636491000303,209.76485430001048,45,315,209.76485430001048,209.76485430001048,209.76485430001048,209.76485430001048,209.76485430001048,209.76485430001048,209.76485430001048,209.76485430001048,209.76485430001048,210.1312242000131,210.1312242000131,210.1312242000131,210.1312242000131,210.1312242000131,210.1312242000131,210.1312242000131,210.1312242000131,210.1312242000131,23,0,,,210.1312242000131,210.33149640000192,4.9,210.33149640000192,1,4.9,1,1,1000,num_4,0.8454186000162736,,26,7,2026-03-05_10h50.15.322,2026A_exp2,2022.2.4,59.95106794960393,
1,0,0.0,0.0,1,0,64,64,66,,,,,211.1989091000287,211.84962950000772,211.84962950000772,212.3340956000029,45,315,212.3340956000029,212.3340956000029,212.3340956000029,212.3340956000029,212.3340956000029,212.3340956000029,212.3340956000029,212.3340956000029,212.3340956000029,212.70051130000502,212.70051130000502,212.70051130000502,212.70051130000502,212.70051130000502,212.70051130000502,212.70051130000502,212.70051130000502,212.70051130000502,23,0,,,212.70051130000502,212.90064659999916,0.0,212.91734929999802,1,0.0,0,0,1000,num_4,0.8039296999922954,,26,7,2026-03-05_10h50.15.322,2026A_exp2,2022.2.4,59.95106794960393,
0,0,0.0,0.0,1,0,65,65,14,,,,,213.75147070002276,214.4021902999957,214.4021902999957,214.88646940002218,45,315,214.88646940002218,214.88646940002218,214.88646940002218,214.88646940002218,214.88646940002218,214.88646940002218,214.88646940002218,214.88646940002218,214.88646940002218,215.2529966000002,215.2529966000002,215.2529966000002,215.2529966000002,215.2529966000002,215.2529966000002,215.2529966000002,215.2529966000002,215.2529966000002,23,0,,,215.2529966000002,215.4531563000055,0.0,215.4531563000055,1,0.0,0,0,1000,num_4,0.7647816999815404,,26,7,2026-03-05_10h50.15.322,2026A_exp2,2022.2.4,59.95106794960393,
1,0,6.1,0.0,0,0,66,66,77,,,,,216.2371923000319,216.88797890004935,216.88797890004935,217.3724417000194,315,45,217.3724417000194,217.3724417000194,217.3724417000194,217.3724417000194,217.3724417000194,217.3724417000194,217.3724417000194,217.3724417000194,217.3724417000194,217.73883660003776,217.73883660003776,217.73883660003776,217.73883660003776,217.73883660003776,217.73883660003776,217.73883660003776,217.73883660003776,217.73883660003776,23,0,,,217.73883660003776,217.93902400002116,6.1,217.93902400002116,1,6.1,1,1,1000,num_4,0.7591607000213116,,26,7,2026-03-05_10h50.15.322,2026A_exp2,2022.2.4,59.95106794960393,
1000,1,3.7,0.0,1,0,67,67,19,,,,,218.72299610002665,219.3738355000387,219.3738355000387,219.85830070002703,315,45,219.85830070002703,219.85830070002703,219.85830070002703,219.85830070002703,219.85830070002703,219.85830070002703,219.85830070002703,219.85830070002703,219.85830070002703,220.2246981000062,220.2246981000062,220.2246981000062,220.2246981000062,220.2246981000062,220.2246981000062,220.2246981000062,220.2246981000062,220.2246981000062,23,0,,,220.2246981000062,220.4264472000068,1000,220.4264472000068,1000,1000,1000,1000,0,num_3,0.6715618000016548,,26,7,2026-03-05_10h50.15.322,2026A_exp2,2022.2.4,59.95106794960393,
1,0,6.1,6.1,1,0,68,68,49,,,,,221.1254581999965,221.77620320004644,221.77620320004644,222.27748819999397,45,45,222.27748819999397,222.27748819999397,222.27748819999397,222.27748819999397,222.27748819999397,222.27748819999397,222.27748819999397,222.27748819999397,222.27748819999397,222.64368320000358,222.64368320000358,222.64368320000358,222.64368320000358,222.64368320000358,222.64368320000358,222.64368320000358,222.64368320000358,222.64368320000358,0,1,[0.0010454999865032732],[0.36721629998646677],222.64368320000358,222.84383650001837,6.1,222.84383650001837,0,6.1,1,0,1000,num_1,0.813763200014364,,26,7,2026-03-05_10h50.15.322,2026A_exp2,2022.2.4,59.95106794960393,
1,0,0.0,0.0,0,0,69,69,61,,,,,223.67811560002156,224.3287643000367,224.3287643000367,224.81309710000642,45,315,224.81309710000642,224.81309710000642,224.81309710000642,224.81309710000642,224.81309710000642,224.81309710000642,224.81309710000642,224.81309710000642,224.81309710000642,225.1795631000423,225.1795631000423,225.1795631000423,225.1795631000423,225.1795631000423,225.1795631000423,225.1795631000423,225.1795631000423,225.1795631000423,13,4,"[0.0012951999669894576, 0.10022919997572899, 0.21695099998032674, 0.28354019997641444]","[0.05004889995325357, 0.166911699983757, 0.2503102999762632, 0.30025309999473393]",225.1795631000423,225.37980809999863,0.0,225.37980809999863,1,0.0,0,0,1000,num_4,0.7091862999950536,,26,7,2026-03-05_10h50.15.322,2026A_exp2,2022.2.4,59.95106794960393,
1000,1,0.0,0.0,1,0,70,70,63,,,,,226.1137578000198,226.76459390000673,226.76459390000673,227.24885420000646,45,315,227.24885420000646,227.24885420000646,227.24885420000646,227.24885420000646,227.24885420000646,227.24885420000646,227.24885420000646,227.24885420000646,227.24885420000646,227.61539900000207,227.61539900000207,227.61539900000207,227.61539900000207,227.61539900000207,227.61539900000207,227.61539900000207,227.61539900000207,227.61539900000207,0,1,[0.0012134999851696193],[0.36739420000230893],227.61539900000207,227.817207300046,1000,227.817207300046,1000,1000,1000,1000,1,num_2,0.9916524000000209,,26,7,2026-03-05_10h50.15.322,2026A_exp2,2022.2.4,59.95106794960393,
1,0,4.9,4.9,1,0,71,71,18,,,,,228.83315860002767,229.48394669999834,229.48394669999834,229.98495770001318,45,315,229.98495770001318,229.98495770001318,229.98495770001318,229.98495770001318,229.98495770001318,229.98495770001318,229.98495770001318,229.98495770001318,229.98495770001318,230.35146320000058,230.35146320000058,230.35146320000058,230.35146320000058,230.35146320000058,230.35146320000058,230.35146320000058,230.35146320000058,230.35146320000058,23,0,,,230.35146320000058,230.55164870002773,4.9,230.55164870002773,0,4.9,1,0,1000,num_1,2.0014623000170104,,26,7,2026-03-05_10h50.15.322,2026A_exp2,2022.2.4,59.95106794960393,
1,0,0.0,0.0,0,0,72,72,22,,,,,232.57020320004085,233.22125870001037,233.22125870001037,233.7103608000325,315,315,233.7103608000325,233.7103608000325,233.7103608000325,233.7103608000325,233.7103608000325,233.7103608000325,233.7103608000325,233.7103608000325,233.7103608000325,234.07201940001687,234.07201940001687,234.07201940001687,234.07201940001687,234.07201940001687,234.07201940001687,234.07201940001687,234.07201940001687,234.07201940001687,23,0,,,234.07201940001687,234.27199040004052,0.0,234.27199040004052,0,0.0,0,1,1000,num_1,1.777911800018046,,26,7,2026-03-05_10h50.15.322,2026A_exp2,2022.2.4,59.95106794960393,
1000,1,0.0,0.0,0,0,73,73,79,,,,,236.0736917000031,236.72457700001542,236.72457700001542,237.20889060001355,315,315,237.20889060001355,237.20889060001355,237.20889060001355,237.20889060001355,237.20889060001355,237.20889060001355,237.20889060001355,237.20889060001355,237.20889060001355,237.57536650000839,237.57536650000839,237.57536650000839,237.57536650000839,237.57536650000839,237.57536650000839,237.57536650000839,237.57536650000839,237.57536650000839,12,5,"[0.033027100027538836, 0.11608770000748336, 0.2000304000102915, 0.25007840001489967, 0.36682390002533793]","[0.06640380003955215, 0.13255510001908988, 0.21664930001134053, 0.350155399995856, 0.3668292000074871]",237.57536650000839,237.7772840000107,1000,237.7772840000107,1000,1000,1000,1000,1,num_2,0.6088795000105165,,26,7,2026-03-05_10h50.15.322,2026A_exp2,2022.2.4,59.95106794960393,
1,0,4.9,3.7,1,0,74,74,71,,,,,238.40967610001098,239.06020700000226,239.06020700000226,239.56130810000468,45,315,239.56130810000468,239.56130810000468,239.56130810000468,239.56130810000468,239.56130810000468,239.56130810000468,239.56130810000468,239.56130810000468,239.56130810000468,239.91104530001758,239.91104530001758,239.91104530001758,239.91104530001758,239.91104530001758,239.91104530001758,239.91104530001758,239.91104530001758,239.91104530001758,0,1,[0.0012173999566584826],[0.3504632999538444],239.91104530001758,240.11122940003406,3.7,240.12793430004967,0,3.7,1,0,1000,num_1,0.913409800035879,,26,7,2026-03-05_10h50.15.322,2026A_exp2,2022.2.4,59.95106794960393,
1000,1,0.0,0.0,1,0,75,75,44,,,,,241.06195960001787,241.71281430003,241.71281430003,242.1971160999965,45,45,242.1971160999965,242.1971160999965,242.1971160999965,242.1971160999965,242.1971160999965,242.1971160999965,242.1971160999965,242.1971160999965,242.1971160999965,242.56372410000768,242.56372410000768,242.56372410000768,242.56372410000768,242.56372410000768,242.56372410000768,242.56372410000768,242.56372410000768,242.56372410000768,8,3,"[0.0012883999734185636, 0.08351829997263849, 0.1671582999988459]","[0.017455799970775843, 0.100272000010591, 0.3668241999694146]",242.56372410000768,242.76411240000743,1000,242.76411240000743,1000,1000,1000,1000,1,num_2,0.636639499978628,,26,7,2026-03-05_10h50.15.322,2026A_exp2,2022.2.4,59.95106794960393,
1,0,3.7,3.7,0,0,76,76,8,,,,,243.4310531000374,244.08181180001702,244.08181180001702,244.56620760000078,315,45,244.56620760000078,244.56620760000078,244.56620760000078,244.56620760000078,244.56620760000078,244.56620760000078,244.56620760000078,244.56620760000078,244.56620760000078,244.93265530001372,244.93265530001372,244.93265530001372,244.93265530001372,244.93265530001372,244.93265530001372,244.93265530001372,244.93265530001372,244.93265530001372,3,3,"[0.0012681999942287803, 0.06676489999517798, 0.1334936000057496]","[0.04977849998977035, 0.10009690001606941, 0.3669277000008151]",244.93265530001372,245.1328943000408,3.7,245.1328943000408,0,3.7,1,0,1000,num_1,1.2293231000076048,,26,7,2026-03-05_10h50.15.322,2026A_exp2,2022.2.4,59.95106794960393,
1000,1,4.9,0.0,0,0,77,77,12,,,,,246.3839571000426,247.0347467000247,247.0347467000247,247.51917540002614,315,45,247.51917540002614,247.51917540002614,247.51917540002614,247.51917540002614,247.51917540002614,247.51917540002614,247.51917540002614,247.51917540002614,247.51917540002614,247.8855128000141,247.8855128000141,247.8855128000141,247.8855128000141,247.8855128000141,247.8855128000141,247.8855128000141,247.8855128000141,247.8855128000141,23,0,,,247.8855128000141,248.08749160001753,1000,248.08749160001753,1000,1000,1000,1000,1,num_2,1.090722499997355,,26,7,2026-03-05_10h50.15.322,2026A_exp2,2022.2.4,59.95106794960393,
1,0,0.0,0.0,1,0,78,78,4,,,,,249.20362240000395,249.8542781000142,249.8542781000142,250.35524890001398,315,315,250.35524890001398,250.35524890001398,250.35524890001398,250.35524890001398,250.35524890001398,250.35524890001398,250.35524890001398,250.35524890001398,250.35524890001398,250.70517349999864,250.70517349999864,250.70517349999864,250.70517349999864,250.70517349999864,250.70517349999864,250.70517349999864,250.70517349999864,250.70517349999864,22,0,,,250.70517349999864,250.90532280004118,0.0,250.92188840004383,1,0.0,0,0,1000,num_4,0.7028669999563135,,26,7,2026-03-05_10h50.15.322,2026A_exp2,2022.2.4,59.95106794960393,
1,0,3.7,3.7,0,0,79,79,60,,,,,251.65598450001562,252.31793900002958,252.31793900002958,252.79589579999447,45,315,252.79589579999447,252.79589579999447,252.79589579999447,252.79589579999447,252.79589579999447,252.79589579999447,252.79589579999447,252.79589579999447,252.79589579999447,253.15757750003831,253.15757750003831,253.15757750003831,253.15757750003831,253.15757750003831,253.15757750003831,253.15757750003831,253.15757750003831,253.15757750003831,16,1,[0.2657576999627054],[0.3655785999726504],253.15757750003831,253.35768230003305,3.7,253.35768230003305,0,3.7,1,0,1000,num_1,0.8434183999779634,,26,7,2026-03-05_10h50.15.322,2026A_exp2,2022.2.4,59.95106794960393,
1000,1,4.9,0.0,0,0,80,80,37,,,,,254.22518310003215,254.87593800004106,254.87593800004106,255.37030910002068,315,45,255.37030910002068,255.37030910002068,255.37030910002068,255.37030910002068,255.37030910002068,255.37030910002068,255.37030910002068,255.37030910002068,255.37030910002068,255.72672220005188,255.72672220005188,255.72672220005188,255.72672220005188,255.72672220005188,255.72672220005188,255.72672220005188,255.72672220005188,255.72672220005188,0,1,[0.004163600038737059],[0.36384570004884154],255.72672220005188,255.92942140001105,1000,255.92942140001105,1000,1000,1000,1000,0,num_3,0.6000622000428848,,26,7,2026-03-05_10h50.15.322,2026A_exp2,2022.2.4,59.95106794960393,
1000,1,0.0,0.0,1,0,81,81,34,,,,,256.56110120000085,257.21147450001445,257.21147450001445,257.7126399000408,315,45,257.7126399000408,257.7126399000408,257.7126399000408,257.7126399000408,257.7126399000408,257.7126399000408,257.7126399000408,257.7126399000408,257.7126399000408,258.0791177000501,258.0791177000501,258.0791177000501,258.0791177000501,258.0791177000501,258.0791177000501,258.0791177000501,258.0791177000501,258.0791177000501,18,3,"[0.0337195000029169, 0.08377759996801615, 0.2839882999542169]","[0.05053289997158572, 0.11700639995979145, 0.3173600999871269]",258.0791177000501,258.28172490000725,1000,258.28172490000725,1000,1000,1000,1000,1,num_2,1.2712713000364602,,26,7,2026-03-05_10h50.15.322,2026A_exp2,2022.2.4,59.95106794960393,
0,0,6.1,6.1,1,0,82,82,48,,,,,259.58058920002077,260.2313355000224,260.2313355000224,260.7324449000298,315,45,260.7324449000298,260.7324449000298,260.7324449000298,260.7324449000298,260.7324449000298,260.7324449000298,260.7324449000298,260.7324449000298,260.7324449000298,261.09890810004435,261.09890810004435,261.09890810004435,261.09890810004435,261.09890810004435,261.09890810004435,261.09890810004435,261.09890810004435,261.09890810004435,23,0,,,261.09890810004435,261.2988983000396,6.1,261.2988983000396,1,6.1,1,1,1000,num_4,0.7028562999912538,,26,7,2026-03-05_10h50.15.322,2026A_exp2,2022.2.4,59.95106794960393,
1,0,0.0,6.1,1,0,83,83,5,,,,,262.0329900000361,262.6837690999964,262.6837690999964,263.1680273000384,315,45,263.1680273000384,263.1680273000384,263.1680273000384,263.1680273000384,263.1680273000384,263.1680273000384,263.1680273000384,263.1680273000384,263.1680273000384,263.5345632000244,263.5345632000244,263.5345632000244,263.5345632000244,263.5345632000244,263.5345632000244,263.5345632000244,263.5345632000244,263.5345632000244,17,4,"[0.05008900002576411, 0.18355400004656985, 0.2835067000123672, 0.3165634000324644]","[0.06686200003605336, 0.2169243000098504, 0.2999022000003606, 0.35028010001406074]",263.5345632000244,263.73486150003737,6.1,263.73486150003737,1,6.1,1,1,1000,num_4,0.7777922000386752,,26,7,2026-03-05_10h50.15.322,2026A_exp2,2022.2.4,59.95106794960393,
1,0,0.0,4.9,1,0,84,84,41,,,,,264.5357443999965,265.16947910003364,265.16947910003364,265.67074530001264,45,315,265.67074530001264,265.67074530001264,265.67074530001264,265.67074530001264,265.67074530001264,265.67074530001264,265.67074530001264,265.67074530001264,265.67074530001264,266.0370643000351,266.0370643000351,266.0370643000351,266.0370643000351,266.0370643000351,266.0370643000351,266.0370643000351,266.0370643000351,266.0370643000351,1,2,"[0.0012058999855071306, 0.1838084000046365]","[0.1670598000055179, 0.3672744000214152]",266.0370643000351,266.2374466000474,4.9,266.2374466000474,1,4.9,1,1,1000,num_4,0.5727770999656059,,26,7,2026-03-05_10h50.15.322,2026A_exp2,2022.2.4,59.95106794960393,
1,0,6.1,3.7,1,0,85,85,83,,,,,266.83777980000013,267.488526000001,267.488526000001,267.9729271000251,45,315,267.9729271000251,267.9729271000251,267.9729271000251,267.9729271000251,267.9729271000251,267.9729271000251,267.9729271000251,267.9729271000251,267.9729271000251,268.3390521000256,268.3390521000256,268.3390521000256,268.3390521000256,268.3390521000256,268.3390521000256,268.3390521000256,268.3390521000256,268.3390521000256,15,5,"[0.00106969999615103, 0.050286600016988814, 0.11635490000480786, 0.1998866000212729, 0.3166454000165686]","[0.017381699988618493, 0.08360020001418889, 0.14984879997791722, 0.23313960002269596, 0.3333371999906376]",268.3390521000256,268.5397029000451,3.7,268.5397029000451,0,3.7,1,0,1000,num_1,0.8945655000279658,,26,7,2026-03-05_10h50.15.322,2026A_exp2,2022.2.4,59.95106794960393,
1000,1,0.0,4.9,1,0,86,86,57,,,,,269.45709120004904,270.10789909999585,270.10789909999585,270.59224200004246,315,315,270.59224200004246,270.59224200004246,270.59224200004246,270.59224200004246,270.59224200004246,270.59224200004246,270.59224200004246,270.59224200004246,270.59224200004246,270.9586501000449,270.9586501000449,270.9586501000449,270.9586501000449,270.9586501000449,270.9586501000449,270.9586501000449,270.9586501000449,270.9586501000449,6,6,"[0.0012072999961674213, 0.05007549998117611, 0.10022319998824969, 0.1335488999611698, 0.20033419999526814, 0.30024229997070506]","[0.01723709999350831, 0.08341259998269379, 0.11681689997203648, 0.18359159998362884, 0.2836486999876797, 0.36704280000412837]",270.9586501000449,271.16114830004517,1000,271.16114830004517,1000,1000,1000,1000,1,num_2,0.6237686999957077,,26,7,2026-03-05_10h50.15.322,2026A_exp2,2022.2.4,59.95106794960393,
1000,1,6.1,4.9,1,0,87,87,86,,,,,271.8097143000341,272.46023130003596,272.46023130003596,272.9612500000512,315,45,272.9612500000512,272.9612500000512,272.9612500000512,272.9612500000512,272.9612500000512,272.9612500000512,272.9612500000512,272.9612500000512,272.9612500000512,273.31099310005084,273.31099310005084,273.31099310005084,273.31099310005084,273.31099310005084,273.31099310005084,273.31099310005084,273.31099310005084,273.31099310005084,22,0,,,273.31099310005084,273.5137275000452,1000,273.5137275000452,1000,1000,1000,1000,0,num_3,0.5278509999625385,,26,7,2026-03-05_10h50.15.322,2026A_exp2,2022.2.4,59.95106794960393,
1000,1,0.0,3.7,1,0,88,88,67,,,,,274.0618617000291,274.7124400000321,274.7124400000321,275.21360070002265,315,45,275.21360070002265,275.21360070002265,275.21360070002265,275.21360070002265,275.21360070002265,275.21360070002265,275.21360070002265,275.21360070002265,275.21360070002265,275.57997250003973,275.57997250003973,275.57997250003973,275.57997250003973,275.57997250003973,275.57997250003973,275.57997250003973,275.57997250003973,275.57997250003973,23,0,,,275.57997250003973,275.7817807000247,1000,275.7817807000247,1000,1000,1000,1000,1,num_2,0.4924383999896236,,26,7,2026-03-05_10h50.15.322,2026A_exp2,2022.2.4,59.95106794960393,
1000,1,0.0,0.0,0,0,89,89,13,,,,,276.29741980001563,276.9480721,276.9480721,277.4491988000227,315,45,277.4491988000227,277.4491988000227,277.4491988000227,277.4491988000227,277.4491988000227,277.4491988000227,277.4491988000227,277.4491988000227,277.4491988000227,277.8155227000243,277.8155227000243,277.8155227000243,277.8155227000243,277.8155227000243,277.8155227000243,277.8155227000243,277.8155227000243,277.8155227000243,23,0,,,277.8155227000243,278.0450065000332,1000,278.0450065000332,1000,1000,1000,1000,0,num_3,0.8448544000275433,,26,7,2026-03-05_10h50.15.322,2026A_exp2,2022.2.4,59.95106794960393,
,,,,,,,,,,,,,,,,,,,,,,,,,,,,,,,,,,,,,,,,,,,,,,,,,,,,278.92555320000974,,,,,,,
