validity,detectorcomp,contrastCW,contrastCCW,precueCWorCCW,block_80trials.thisRepN,block_80trials.thisTrialN,block_80trials.thisN,block_80trials.thisIndex,etRecord.started,etRecord.stopped,text.started,text.stopped,text_4.started,text_4.stopped,text_6.started,text_6.stopped,oriCW,oriCCW,roi_2.started,grating_UR.started,grating_UL.started,grating_LR.started,grating_LL.started,noise_UR.started,noise_UL.started,noise_LR.started,noise_LL.started,roi_2.stopped,grating_UR.stopped,grating_UL.stopped,grating_LR.stopped,grating_LL.stopped,noise_UR.stopped,noise_UL.stopped,noise_LR.stopped,noise_LL.stopped,outframe,roi_2.numLooks,roi_2.timesOn,roi_2.timesOff,text_2.started,text_2.stopped,probedcontrast,key_resp.started,respdetect,relevantContrast,correctDetect,TorFdetect,respCWorCCW,key_resp.keys,key_resp.rt,feedback_display_.started,participantNo,blockNo,date,expName,psychopyVersion,frameRate,
1,0,3.7,0.0,0,0,0,0,15,3.8700003642588854e-05,3.8700003642588854e-05,45.90279340001871,47.90907829999924,47.90907829999924,48.53941340002348,48.53941340002348,49.060486400005175,315,315,49.060486400005175,49.060486400005175,49.060486400005175,49.060486400005175,49.060486400005175,49.060486400005175,49.060486400005175,49.060486400005175,49.060486400005175,49.40664349999861,49.40664349999861,49.40664349999861,49.40664349999861,49.40664349999861,49.40664349999861,49.40664349999861,49.40664349999861,49.40664349999861,16,1,[0.0011728999961633235],[0.11624350000056438],49.40664349999861,49.60689750002348,3.7,49.60689750002348,1,3.7,1,1,1000,num_4,0.6465008999803104,,18,6,2026-03-02_10h45.01.314,2026A_exp2,2022.2.4,59.950672584380264,
1000,1,3.7,0.0,0,0,1,1,28,,,,,50.27423969999654,50.924770400015404,50.924770400015404,51.4093361000123,45,315,51.4093361000123,51.4093361000123,51.4093361000123,51.4093361000123,51.4093361000123,51.4093361000123,51.4093361000123,51.4093361000123,51.4093361000123,51.77565680001862,51.77565680001862,51.77565680001862,51.77565680001862,51.77565680001862,51.77565680001862,51.77565680001862,51.77565680001862,51.77565680001862,23,0,,,51.77565680001862,51.975950300024124,1000,51.975950300024124,1000,1000,1000,1000,0,num_3,0.5260874999803491,,18,6,2026-03-02_10h45.01.314,2026A_exp2,2022.2.4,59.950672584380264,
1000,1,0.0,0.0,1,0,2,2,78,,,,,52.52712420001626,53.17757359999814,53.17757359999814,53.67840490001254,45,45,53.67840490001254,53.67840490001254,53.67840490001254,53.67840490001254,53.67840490001254,53.67840490001254,53.67840490001254,53.67840490001254,53.67840490001254,54.028053900023224,54.028053900023224,54.028053900023224,54.028053900023224,54.028053900023224,54.028053900023224,54.028053900023224,54.028053900023224,54.028053900023224,22,0,,,54.028053900023224,54.228878499998245,1000,54.228878499998245,1000,1000,1000,1000,1,num_2,0.5923757000127807,,18,6,2026-03-02_10h45.01.314,2026A_exp2,2022.2.4,59.950672584380264,
1,0,0.0,4.9,0,0,3,3,48,,,,,54.84600119999959,55.49634100002004,55.49634100002004,55.99732809999841,45,315,55.99732809999841,55.99732809999841,55.99732809999841,55.99732809999841,55.99732809999841,55.99732809999841,55.99732809999841,55.99732809999841,55.99732809999841,56.348368100007065,56.348368100007065,56.348368100007065,56.348368100007065,56.348368100007065,56.348368100007065,56.348368100007065,56.348368100007065,56.348368100007065,22,0,,,56.348368100007065,56.56486210000003,0.0,56.56486210000003,0,0.0,0,1,1000,num_1,0.43281269998988137,,18,6,2026-03-02_10h45.01.314,2026A_exp2,2022.2.4,59.950672584380264,
1,0,3.7,6.1,0,0,4,4,74,,,,,57.0144522000046,57.665233800013084,57.665233800013084,58.14950680002221,45,315,58.14950680002221,58.14950680002221,58.14950680002221,58.14950680002221,58.14950680002221,58.14950680002221,58.14950680002221,58.14950680002221,58.14950680002221,58.51572690001922,58.51572690001922,58.51572690001922,58.51572690001922,58.51572690001922,58.51572690001922,58.51572690001922,58.51572690001922,58.51572690001922,23,0,,,58.51572690001922,58.71605869999621,3.7,58.71605869999621,1,3.7,1,1,1000,num_4,0.386071200016886,,18,6,2026-03-02_10h45.01.314,2026A_exp2,2022.2.4,59.950672584380264,
0,0,3.7,0.0,1,0,5,5,0,,,,,59.13315970002441,59.7839598999999,59.7839598999999,60.26811100001214,315,315,60.26811100001214,60.26811100001214,60.26811100001214,60.26811100001214,60.26811100001214,60.26811100001214,60.26811100001214,60.26811100001214,60.26811100001214,60.635431600006996,60.635431600006996,60.635431600006996,60.635431600006996,60.635431600006996,60.635431600006996,60.635431600006996,60.635431600006996,60.635431600006996,23,0,,,60.635431600006996,60.83472650000476,3.7,60.83472650000476,0,3.7,1,0,1000,num_1,1.0365633000037633,,18,6,2026-03-02_10h45.01.314,2026A_exp2,2022.2.4,59.950672584380264,
1,0,0.0,0.0,1,0,6,6,77,,,,,61.90251120002358,62.53651900001569,62.53651900001569,63.03762610000558,45,45,63.03762610000558,63.03762610000558,63.03762610000558,63.03762610000558,63.03762610000558,63.03762610000558,63.03762610000558,63.03762610000558,63.03762610000558,63.40393950001453,63.40393950001453,63.40393950001453,63.40393950001453,63.40393950001453,63.40393950001453,63.40393950001453,63.40393950001453,63.40393950001453,23,0,,,63.40393950001453,63.60409820001223,0.0,63.60409820001223,0,0.0,0,1,1000,num_1,0.6414398000051733,,18,6,2026-03-02_10h45.01.314,2026A_exp2,2022.2.4,59.950672584380264,
0,0,4.9,3.7,1,0,7,7,13,,,,,64.27149610000197,64.92221129999962,64.92221129999962,65.40658380000968,315,315,65.40658380000968,65.40658380000968,65.40658380000968,65.40658380000968,65.40658380000968,65.40658380000968,65.40658380000968,65.40658380000968,65.40658380000968,65.77295620000223,65.77295620000223,65.77295620000223,65.77295620000223,65.77295620000223,65.77295620000223,65.77295620000223,65.77295620000223,65.77295620000223,23,0,,,65.77295620000223,65.97337540000444,4.9,65.97337540000444,0,4.9,1,0,1000,num_1,2.128436700004386,,18,6,2026-03-02_10h45.01.314,2026A_exp2,2022.2.4,59.950672584380264,
1,0,6.1,3.7,0,0,8,8,79,,,,,68.12561129999813,68.77604690002045,68.77604690002045,69.2605801000027,45,315,69.2605801000027,69.2605801000027,69.2605801000027,69.2605801000027,69.2605801000027,69.2605801000027,69.2605801000027,69.2605801000027,69.2605801000027,69.6268437000108,69.6268437000108,69.6268437000108,69.6268437000108,69.6268437000108,69.6268437000108,69.6268437000108,69.6268437000108,69.6268437000108,23,0,,,69.6268437000108,69.8273795999994,6.1,69.8273795999994,1,6.1,1,1,1000,num_4,0.418256900011329,,18,6,2026-03-02_10h45.01.314,2026A_exp2,2022.2.4,59.950672584380264,
1,0,0.0,6.1,1,0,9,9,39,,,,,70.27765220002038,70.91156090001459,70.91156090001459,71.41288240000722,315,315,71.41288240000722,71.41288240000722,71.41288240000722,71.41288240000722,71.41288240000722,71.41288240000722,71.41288240000722,71.41288240000722,71.41288240000722,71.7789815000142,71.7789815000142,71.7789815000142,71.7789815000142,71.7789815000142,71.7789815000142,71.7789815000142,71.7789815000142,71.7789815000142,23,0,,,71.7789815000142,71.97919380001258,6.1,71.97919380001258,1,6.1,1,1,1000,num_4,0.4110056000063196,,18,6,2026-03-02_10h45.01.314,2026A_exp2,2022.2.4,59.950672584380264,
1000,1,0.0,0.0,1,0,10,10,72,,,,,72.41304290000699,73.06365630001528,73.06365630001528,73.54836620000424,45,45,73.54836620000424,73.54836620000424,73.54836620000424,73.54836620000424,73.54836620000424,73.54836620000424,73.54836620000424,73.54836620000424,73.54836620000424,73.91468580000219,73.91468580000219,73.91468580000219,73.91468580000219,73.91468580000219,73.91468580000219,73.91468580000219,73.91468580000219,73.91468580000219,23,0,,,73.91468580000219,74.11475540001993,1000,74.11475540001993,1000,1000,1000,1000,1,num_2,0.6027958999911789,,18,6,2026-03-02_10h45.01.314,2026A_exp2,2022.2.4,59.950672584380264,
1000,1,4.9,4.9,0,0,11,11,36,,,,,74.74881230000756,75.3993696999969,75.3993696999969,75.90039429999888,315,45,75.90039429999888,75.90039429999888,75.90039429999888,75.90039429999888,75.90039429999888,75.90039429999888,75.90039429999888,75.90039429999888,75.90039429999888,76.26687760002096,76.26687760002096,76.26687760002096,76.26687760002096,76.26687760002096,76.26687760002096,76.26687760002096,76.26687760002096,76.26687760002096,23,0,,,76.26687760002096,76.46746060001897,1000,76.46746060001897,1000,1000,1000,1000,0,num_3,0.5783171000075527,,18,6,2026-03-02_10h45.01.314,2026A_exp2,2022.2.4,59.950672584380264,
1,0,3.7,0.0,1,0,12,12,55,,,,,77.06779930001358,77.70250990000204,77.70250990000204,78.20283409999683,45,315,78.20283409999683,78.20283409999683,78.20283409999683,78.20283409999683,78.20283409999683,78.20283409999683,78.20283409999683,78.20283409999683,78.20283409999683,78.56907590001356,78.56907590001356,78.56907590001356,78.56907590001356,78.56907590001356,78.56907590001356,78.56907590001356,78.56907590001356,78.56907590001356,23,0,,,78.56907590001356,78.76931679999689,0.0,78.76931679999689,1,0.0,0,0,1000,num_4,0.5401525000052061,,18,6,2026-03-02_10h45.01.314,2026A_exp2,2022.2.4,59.950672584380264,
1,0,4.9,0.0,0,0,13,13,47,,,,,79.33663100001286,79.97064970000065,79.97064970000065,80.47175530000823,315,315,80.47175530000823,80.47175530000823,80.47175530000823,80.47175530000823,80.47175530000823,80.47175530000823,80.47175530000823,80.47175530000823,80.47175530000823,80.83811760001117,80.83811760001117,80.83811760001117,80.83811760001117,80.83811760001117,80.83811760001117,80.83811760001117,80.83811760001117,80.83811760001117,23,0,,,80.83811760001117,81.03821230001631,4.9,81.03821230001631,1,4.9,1,1,1000,num_4,0.3756794999935664,,18,6,2026-03-02_10h45.01.314,2026A_exp2,2022.2.4,59.950672584380264,
1,0,4.9,0.0,0,0,14,14,14,,,,,81.43883620001725,82.07260939999833,82.07260939999833,82.5741119000013,45,45,82.5741119000013,82.5741119000013,82.5741119000013,82.5741119000013,82.5741119000013,82.5741119000013,82.5741119000013,82.5741119000013,82.5741119000013,82.94049280000036,82.94049280000036,82.94049280000036,82.94049280000036,82.94049280000036,82.94049280000036,82.94049280000036,82.94049280000036,82.94049280000036,23,0,,,82.94049280000036,83.14069749999908,4.9,83.14069749999908,1,4.9,1,1,1000,num_4,0.36955940001644194,,18,6,2026-03-02_10h45.01.314,2026A_exp2,2022.2.4,59.950672584380264,
1,0,0.0,4.9,0,0,15,15,9,,,,,83.54083169999649,,84.19184080002015,,315,315,84.69283760001417,84.69283760001417,84.69283760001417,84.69283760001417,84.69283760001417,84.69283760001417,84.69283760001417,84.69283760001417,84.69283760001417,85.04304220000631,85.04304220000631,85.04304220000631,85.04304220000631,85.04304220000631,85.04304220000631,85.04304220000631,85.04304220000631,85.04304220000631,22,0,,,85.04304220000631,85.24245930000325,0.0,85.24245930000325,1,0.0,0,0,1000,num_4,0.4117738999775611,,18,6,2026-03-02_10h45.01.314,2026A_exp2,2022.2.4,59.950672584380264,
1,0,0.0,0.0,0,0,16,16,75,,,,,85.67627870000433,86.32717020000564,86.32717020000564,86.81124840001576,45,315,86.81124840001576,86.81124840001576,86.81124840001576,86.81124840001576,86.81124840001576,86.81124840001576,86.81124840001576,86.81124840001576,86.81124840001576,87.1777454999974,87.1777454999974,87.1777454999974,87.1777454999974,87.1777454999974,87.1777454999974,87.1777454999974,87.1777454999974,87.1777454999974,23,0,,,87.1777454999974,87.37814450002043,0.0,87.37814450002043,1,0.0,0,0,1000,num_4,0.41202389998943545,,18,6,2026-03-02_10h45.01.314,2026A_exp2,2022.2.4,59.950672584380264,
1000,1,0.0,0.0,1,0,17,17,37,,,,,87.81180260001565,88.46255570001085,88.46255570001085,88.9470519000024,45,45,88.9470519000024,88.9470519000024,88.9470519000024,88.9470519000024,88.9470519000024,88.9470519000024,88.9470519000024,88.9470519000024,88.9470519000024,89.3132001000049,89.3132001000049,89.3132001000049,89.3132001000049,89.3132001000049,89.3132001000049,89.3132001000049,89.3132001000049,89.3132001000049,23,0,,,89.3132001000049,89.51362360001076,1000,89.51362360001076,1000,1000,1000,1000,1,num_2,0.5884890999877825,,18,6,2026-03-02_10h45.01.314,2026A_exp2,2022.2.4,59.950672584380264,
1,0,0.0,3.7,1,0,18,18,83,,,,,90.13086210002075,90.78153700000257,90.78153700000257,91.26575270001194,315,45,91.26575270001194,91.26575270001194,91.26575270001194,91.26575270001194,91.26575270001194,91.26575270001194,91.26575270001194,91.26575270001194,91.26575270001194,91.63249810002162,91.63249810002162,91.63249810002162,91.63249810002162,91.63249810002162,91.63249810002162,91.63249810002162,91.63249810002162,91.63249810002162,23,0,,,91.63249810002162,91.8325042000215,3.7,91.8325042000215,1,3.7,1,1,1000,num_4,0.5817792000016198,,18,6,2026-03-02_10h45.01.314,2026A_exp2,2022.2.4,59.950672584380264,
1,0,0.0,3.7,0,0,19,19,34,,,,,92.43305330001749,93.06706130001112,93.06706130001112,93.56818280002335,45,45,93.56818280002335,93.56818280002335,93.56818280002335,93.56818280002335,93.56818280002335,93.56818280002335,93.56818280002335,93.56818280002335,93.56818280002335,93.9344936000125,93.9344936000125,93.9344936000125,93.9344936000125,93.9344936000125,93.9344936000125,93.9344936000125,93.9344936000125,93.9344936000125,23,0,,,93.9344936000125,94.13498920001439,0.0,94.13498920001439,1,0.0,0,0,1000,num_4,0.47120619998895563,,18,6,2026-03-02_10h45.01.314,2026A_exp2,2022.2.4,59.950672584380264,
1000,1,4.9,6.1,0,0,20,20,35,,,,,94.63592400000198,95.26946740000858,95.26946740000858,95.77045070001623,45,45,95.77045070001623,95.77045070001623,95.77045070001623,95.77045070001623,95.77045070001623,95.77045070001623,95.77045070001623,95.77045070001623,95.77045070001623,96.13684910000302,96.13684910000302,96.13684910000302,96.13684910000302,96.13684910000302,96.13684910000302,96.13684910000302,96.13684910000302,96.13684910000302,23,0,,,96.13684910000302,96.33706130000064,1000,96.33706130000064,1000,1000,1000,1000,0,num_3,0.6604022000101395,,18,6,2026-03-02_10h45.01.314,2026A_exp2,2022.2.4,59.950672584380264,
1000,1,4.9,3.7,0,0,21,21,26,,,,,97.02099580000504,97.6718983000028,97.6718983000028,98.15610010002274,315,315,98.15610010002274,98.15610010002274,98.15610010002274,98.15610010002274,98.15610010002274,98.15610010002274,98.15610010002274,98.15610010002274,98.15610010002274,98.52242250001291,98.52242250001291,98.52242250001291,98.52242250001291,98.52242250001291,98.52242250001291,98.52242250001291,98.52242250001291,98.52242250001291,23,0,,,98.52242250001291,98.72269590001088,1000,98.72269590001088,1000,1000,1000,1000,0,num_3,0.5388284999935422,,18,6,2026-03-02_10h45.01.314,2026A_exp2,2022.2.4,59.950672584380264,
1000,1,0.0,6.1,1,0,22,22,40,,,,,99.29007889999775,99.92562789999647,99.92562789999647,100.4250977000047,45,315,100.4250977000047,100.4250977000047,100.4250977000047,100.4250977000047,100.4250977000047,100.4250977000047,100.4250977000047,100.4250977000047,100.4250977000047,100.79131410000264,100.79131410000264,100.79131410000264,100.79131410000264,100.79131410000264,100.79131410000264,100.79131410000264,100.79131410000264,100.79131410000264,23,0,,,100.79131410000264,100.99187130000792,1000,100.99187130000792,1000,1000,1000,1000,1,num_2,0.5183328999846708,,18,6,2026-03-02_10h45.01.314,2026A_exp2,2022.2.4,59.950672584380264,
1000,1,0.0,3.7,1,0,23,23,81,,,,,101.52545230000396,102.17607780001708,102.17607780001708,102.67715940001654,315,45,102.67715940001654,102.67715940001654,102.67715940001654,102.67715940001654,102.67715940001654,102.67715940001654,102.67715940001654,102.67715940001654,102.67715940001654,103.04327330001979,103.04327330001979,103.04327330001979,103.04327330001979,103.04327330001979,103.04327330001979,103.04327330001979,103.04327330001979,103.04327330001979,23,0,,,103.04327330001979,103.24383580000722,1000,103.24383580000722,1000,1000,1000,1000,0,num_3,0.7778687000100035,,18,6,2026-03-02_10h45.01.314,2026A_exp2,2022.2.4,59.950672584380264,
1000,1,4.9,4.9,1,0,24,24,67,,,,,104.04487100002007,104.6950442000234,104.6950442000234,105.17969650001032,45,45,105.17969650001032,105.17969650001032,105.17969650001032,105.17969650001032,105.17969650001032,105.17969650001032,105.17969650001032,105.17969650001032,105.17969650001032,105.54623580002226,105.54623580002226,105.54623580002226,105.54623580002226,105.54623580002226,105.54623580002226,105.54623580002226,105.54623580002226,105.54623580002226,23,0,,,105.54623580002226,105.74635370000033,1000,105.74635370000033,1000,1000,1000,1000,0,num_3,0.5156775000214111,,18,6,2026-03-02_10h45.01.314,2026A_exp2,2022.2.4,59.950672584380264,
1000,1,0.0,3.7,0,0,25,25,21,,,,,106.28036870001233,106.93090050001047,106.93090050001047,107.4154961000022,315,45,107.4154961000022,107.4154961000022,107.4154961000022,107.4154961000022,107.4154961000022,107.4154961000022,107.4154961000022,107.4154961000022,107.4154961000022,107.7817064000119,107.7817064000119,107.7817064000119,107.7817064000119,107.7817064000119,107.7817064000119,107.7817064000119,107.7817064000119,107.7817064000119,23,0,,,107.7817064000119,107.98215200001141,1000,107.98215200001141,1000,1000,1000,1000,0,num_3,0.48013899999205023,,18,6,2026-03-02_10h45.01.314,2026A_exp2,2022.2.4,59.950672584380264,
1,0,3.7,0.0,1,0,26,26,73,,,,,108.4828247000114,109.13296450002235,109.13296450002235,109.63409540001885,45,315,109.63409540001885,109.63409540001885,109.63409540001885,109.63409540001885,109.63409540001885,109.63409540001885,109.63409540001885,109.63409540001885,109.63409540001885,109.98383510002168,109.98383510002168,109.98383510002168,109.98383510002168,109.98383510002168,109.98383510002168,109.98383510002168,109.98383510002168,109.98383510002168,22,0,,,109.98383510002168,110.18408550001914,0.0,110.18408550001914,0,0.0,0,1,1000,num_1,0.806248200009577,,18,6,2026-03-02_10h45.01.314,2026A_exp2,2022.2.4,59.950672584380264,
1,0,0.0,0.0,1,0,27,27,60,,,,,111.0183917999966,111.65260319999652,111.65260319999652,112.15350730001228,315,45,112.15350730001228,112.15350730001228,112.15350730001228,112.15350730001228,112.15350730001228,112.15350730001228,112.15350730001228,112.15350730001228,112.15350730001228,112.5203526999976,112.5203526999976,112.5203526999976,112.5203526999976,112.5203526999976,112.5203526999976,112.5203526999976,112.5203526999976,112.5203526999976,23,0,,,112.5203526999976,112.72021640001913,0.0,112.72021640001913,0,0.0,0,1,1000,num_1,0.4771424999926239,,18,6,2026-03-02_10h45.01.314,2026A_exp2,2022.2.4,59.950672584380264,
1000,1,0.0,0.0,1,0,28,28,80,,,,,113.22067450001487,113.87146829999983,113.87146829999983,114.3558307000203,45,315,114.3558307000203,114.3558307000203,114.3558307000203,114.3558307000203,114.3558307000203,114.3558307000203,114.3558307000203,114.3558307000203,114.3558307000203,114.72264700001688,114.72264700001688,114.72264700001688,114.72264700001688,114.72264700001688,114.72264700001688,114.72264700001688,114.72264700001688,114.72264700001688,23,0,,,114.72264700001688,114.92347960002371,1000,114.92347960002371,1000,1000,1000,1000,0,num_3,0.7618841999792494,,18,6,2026-03-02_10h45.01.314,2026A_exp2,2022.2.4,59.950672584380264,
1000,1,0.0,0.0,1,0,29,29,8,,,,,115.70648010002333,116.35701030000928,116.35701030000928,116.84195010000258,315,315,116.84195010000258,116.84195010000258,116.84195010000258,116.84195010000258,116.84195010000258,116.84195010000258,116.84195010000258,116.84195010000258,116.84195010000258,117.20774199999869,117.20774199999869,117.20774199999869,117.20774199999869,117.20774199999869,117.20774199999869,117.20774199999869,117.20774199999869,117.20774199999869,23,0,,,117.20774199999869,117.40804800001206,1000,117.40804800001206,1000,1000,1000,1000,0,num_3,0.8061344000161625,,18,6,2026-03-02_10h45.01.314,2026A_exp2,2022.2.4,59.950672584380264,
1,0,4.9,3.7,0,0,30,30,89,,,,,118.24229000002379,118.87636000002385,118.87636000002385,119.37690110001131,45,45,119.37690110001131,119.37690110001131,119.37690110001131,119.37690110001131,119.37690110001131,119.37690110001131,119.37690110001131,119.37690110001131,119.37690110001131,119.7432982000173,119.7432982000173,119.7432982000173,119.7432982000173,119.7432982000173,119.7432982000173,119.7432982000173,119.7432982000173,119.7432982000173,23,0,,,119.7432982000173,119.94396030000644,4.9,119.94396030000644,1,4.9,1,1,1000,num_4,0.5985164000012446,,18,6,2026-03-02_10h45.01.314,2026A_exp2,2022.2.4,59.950672584380264,
1000,1,0.0,3.7,0,0,31,31,18,,,,,120.56131590000587,121.2118459000194,121.2118459000194,121.69606290000957,315,315,121.69606290000957,121.69606290000957,121.69606290000957,121.69606290000957,121.69606290000957,121.69606290000957,121.69606290000957,121.69606290000957,121.69606290000957,122.06231470001512,122.06231470001512,122.06231470001512,122.06231470001512,122.06231470001512,122.06231470001512,122.06231470001512,122.06231470001512,122.06231470001512,23,0,,,122.06231470001512,122.26306550001027,1000,122.26306550001027,1000,1000,1000,1000,1,num_2,0.5831250000046566,,18,6,2026-03-02_10h45.01.314,2026A_exp2,2022.2.4,59.950672584380264,
1,0,6.1,0.0,1,0,32,32,29,,,,,122.86400030000368,123.51441540001542,123.51441540001542,124.01504270001897,315,315,124.01504270001897,124.01504270001897,124.01504270001897,124.01504270001897,124.01504270001897,124.01504270001897,124.01504270001897,124.01504270001897,124.01504270001897,124.36511910002446,124.36511910002446,124.36511910002446,124.36511910002446,124.36511910002446,124.36511910002446,124.36511910002446,124.36511910002446,124.36511910002446,22,0,,,124.36511910002446,124.56524620001437,0.0,124.56524620001437,0,0.0,0,1,1000,num_1,1.0489260999893304,,18,6,2026-03-02_10h45.01.314,2026A_exp2,2022.2.4,59.950672584380264,
1,0,0.0,6.1,0,0,33,33,3,,,,,125.63322220000555,126.26693150002393,126.26693150002393,126.76810030001798,315,45,126.76810030001798,126.76810030001798,126.76810030001798,126.76810030001798,126.76810030001798,126.76810030001798,126.76810030001798,126.76810030001798,126.76810030001798,127.13441310002236,127.13441310002236,127.13441310002236,127.13441310002236,127.13441310002236,127.13441310002236,127.13441310002236,127.13441310002236,127.13441310002236,23,0,,,127.13441310002236,127.33486630002153,0.0,127.33486630002153,0,0.0,0,1,1000,num_1,0.5988610000058543,,18,6,2026-03-02_10h45.01.314,2026A_exp2,2022.2.4,59.950672584380264,
1000,1,0.0,4.9,1,0,34,34,51,,,,,127.95204100001138,128.60238950001076,128.60238950001076,129.08693479999783,315,315,129.08693479999783,129.08693479999783,129.08693479999783,129.08693479999783,129.08693479999783,129.08693479999783,129.08693479999783,129.08693479999783,129.08693479999783,129.4534593000135,129.4534593000135,129.4534593000135,129.4534593000135,129.4534593000135,129.4534593000135,129.4534593000135,129.4534593000135,129.4534593000135,23,0,,,129.4534593000135,129.65361629999825,1000,129.65361629999825,1000,1000,1000,1000,1,num_2,0.6960197000007611,,18,6,2026-03-02_10h45.01.314,2026A_exp2,2022.2.4,59.950672584380264,
1,0,4.9,0.0,1,0,35,35,52,,,,,130.37104530000943,131.021598500025,131.021598500025,131.5060311999987,315,45,131.5060311999987,131.5060311999987,131.5060311999987,131.5060311999987,131.5060311999987,131.5060311999987,131.5060311999987,131.5060311999987,131.5060311999987,131.872400799999,131.872400799999,131.872400799999,131.872400799999,131.872400799999,131.872400799999,131.872400799999,131.872400799999,131.872400799999,23,0,,,131.872400799999,132.07267400002456,0.0,132.07267400002456,0,0.0,0,1,1000,num_1,0.47691119997762144,,18,6,2026-03-02_10h45.01.314,2026A_exp2,2022.2.4,59.950672584380264,
1000,1,6.1,0.0,1,0,36,36,61,,,,,132.57320830001845,133.20712040000944,133.20712040000944,133.70794420002494,45,315,133.70794420002494,133.70794420002494,133.70794420002494,133.70794420002494,133.70794420002494,133.70794420002494,133.70794420002494,133.70794420002494,133.70794420002494,134.07459100001142,134.07459100001142,134.07459100001142,134.07459100001142,134.07459100001142,134.07459100001142,134.07459100001142,134.07459100001142,134.07459100001142,23,0,,,134.07459100001142,134.27488450001692,1000,134.27488450001692,1000,1000,1000,1000,0,num_3,0.6990004999970552,,18,6,2026-03-02_10h45.01.314,2026A_exp2,2022.2.4,59.950672584380264,
1,0,0.0,0.0,1,0,37,37,68,,,,,134.99238510002033,135.64293030000408,135.64293030000408,136.14432900000247,315,315,136.14432900000247,136.14432900000247,136.14432900000247,136.14432900000247,136.14432900000247,136.14432900000247,136.14432900000247,136.14432900000247,136.14432900000247,136.49439010000788,136.49439010000788,136.49439010000788,136.49439010000788,136.49439010000788,136.49439010000788,136.49439010000788,136.49439010000788,136.49439010000788,22,0,,,136.49439010000788,136.69404610001948,0.0,136.69404610001948,0,0.0,0,1,1000,num_1,1.4075473000120837,,18,6,2026-03-02_10h45.01.314,2026A_exp2,2022.2.4,59.950672584380264,
1,0,0.0,0.0,1,0,38,38,24,,,,,138.12918380001793,138.7627640000137,138.7627640000137,139.26376640002127,45,315,139.26376640002127,139.26376640002127,139.26376640002127,139.26376640002127,139.26376640002127,139.26376640002127,139.26376640002127,139.26376640002127,139.26376640002127,139.63022370002,139.63022370002,139.63022370002,139.63022370002,139.63022370002,139.63022370002,139.63022370002,139.63022370002,139.63022370002,23,0,,,139.63022370002,139.83054920000723,0.0,139.83054920000723,0,0.0,0,1,1000,num_1,0.4791069999919273,,18,6,2026-03-02_10h45.01.314,2026A_exp2,2022.2.4,59.950672584380264,
1000,1,0.0,0.0,1,0,39,39,63,,,,,140.33101980001084,140.98145780002233,140.98145780002233,141.46651310002198,45,315,141.46651310002198,141.46651310002198,141.46651310002198,141.46651310002198,141.46651310002198,141.46651310002198,141.46651310002198,141.46651310002198,141.46651310002198,141.83222800001386,141.83222800001386,141.83222800001386,141.83222800001386,141.83222800001386,141.83222800001386,141.83222800001386,141.83222800001386,141.83222800001386,23,0,,,141.83222800001386,142.03241460002027,1000,142.03241460002027,1000,1000,1000,1000,0,num_3,0.7178243999951519,,18,6,2026-03-02_10h45.01.314,2026A_exp2,2022.2.4,59.950672584380264,
1,0,3.7,3.7,0,0,40,40,69,,,,,142.76708800002234,143.40107530000387,143.40107530000387,143.9185672000167,315,315,143.9185672000167,143.9185672000167,143.9185672000167,143.9185672000167,143.9185672000167,143.9185672000167,143.9185672000167,143.9185672000167,143.9185672000167,144.26821790001122,144.26821790001122,144.26821790001122,144.26821790001122,144.26821790001122,144.26821790001122,144.26821790001122,144.26821790001122,144.26821790001122,22,0,,,144.26821790001122,144.46879590000026,3.7,144.46879590000026,0,3.7,1,0,1000,num_1,0.9767033999960404,,18,6,2026-03-02_10h45.01.314,2026A_exp2,2022.2.4,59.950672584380264,
1000,1,4.9,3.7,1,0,41,41,46,,,,,145.4694889000093,146.1198568000109,146.1198568000109,146.60445110002183,45,315,146.60445110002183,146.60445110002183,146.60445110002183,146.60445110002183,146.60445110002183,146.60445110002183,146.60445110002183,146.60445110002183,146.60445110002183,146.9709075000137,146.9709075000137,146.9709075000137,146.9709075000137,146.9709075000137,146.9709075000137,146.9709075000137,146.9709075000137,146.9709075000137,23,0,,,146.9709075000137,147.17110830001184,1000,147.17110830001184,1000,1000,1000,1000,1,num_2,0.731003899971256,,18,6,2026-03-02_10h45.01.314,2026A_exp2,2022.2.4,59.950672584380264,
1000,1,4.9,6.1,0,0,42,42,59,,,,,147.92189480000525,148.57274850000977,148.57274850000977,149.05674510000972,315,45,149.05674510000972,149.05674510000972,149.05674510000972,149.05674510000972,149.05674510000972,149.05674510000972,149.05674510000972,149.05674510000972,149.05674510000972,149.4237197000184,149.4237197000184,149.4237197000184,149.4237197000184,149.4237197000184,149.4237197000184,149.4237197000184,149.4237197000184,149.4237197000184,23,0,,,149.4237197000184,149.62357240001438,1000,149.62357240001438,1000,1000,1000,1000,0,num_3,0.5338271000073291,,18,6,2026-03-02_10h45.01.314,2026A_exp2,2022.2.4,59.950672584380264,
1000,1,6.1,0.0,1,0,43,43,71,,,,,150.17434720002348,150.82480250002118,150.82480250002118,151.3256997000135,315,45,151.3256997000135,151.3256997000135,151.3256997000135,151.3256997000135,151.3256997000135,151.3256997000135,151.3256997000135,151.3256997000135,151.3256997000135,151.6754293999984,151.6754293999984,151.6754293999984,151.6754293999984,151.6754293999984,151.6754293999984,151.6754293999984,151.6754293999984,151.6754293999984,22,0,,,151.6754293999984,151.87588259999757,1000,151.87588259999757,1000,1000,1000,1000,1,num_2,0.7459194999828469,,18,6,2026-03-02_10h45.01.314,2026A_exp2,2022.2.4,59.950672584380264,
0,0,4.9,6.1,0,0,44,44,1,,,,,152.64315420002094,153.29380900002434,153.29380900002434,153.79543250001734,45,315,153.79543250001734,153.79543250001734,153.79543250001734,153.79543250001734,153.79543250001734,153.79543250001734,153.79543250001734,153.79543250001734,153.79543250001734,154.16117110001505,154.16117110001505,154.16117110001505,154.16117110001505,154.16117110001505,154.16117110001505,154.16117110001505,154.16117110001505,154.16117110001505,23,0,,,154.16117110001505,154.36162740000873,6.1,154.36162740000873,0,6.1,1,0,1000,num_1,1.0116959000006318,,18,6,2026-03-02_10h45.01.314,2026A_exp2,2022.2.4,59.950672584380264,
1,0,4.9,6.1,1,0,45,45,62,,,,,155.3961845000158,156.03026960001444,156.03026960001444,156.53106780000962,315,45,156.53106780000962,156.53106780000962,156.53106780000962,156.53106780000962,156.53106780000962,156.53106780000962,156.53106780000962,156.53106780000962,156.53106780000962,156.89772670000093,156.89772670000093,156.89772670000093,156.89772670000093,156.89772670000093,156.89772670000093,156.89772670000093,156.89772670000093,156.89772670000093,23,0,,,156.89772670000093,157.09782059999998,6.1,157.09782059999998,1,6.1,1,1,1000,num_4,0.6279645999893546,,18,6,2026-03-02_10h45.01.314,2026A_exp2,2022.2.4,59.950672584380264,
1,0,0.0,6.1,1,0,46,46,17,,,,,157.748355800024,158.38229619999765,158.38229619999765,158.88333890002104,45,45,158.88333890002104,158.88333890002104,158.88333890002104,158.88333890002104,158.88333890002104,158.88333890002104,158.88333890002104,158.88333890002104,158.88333890002104,159.24984120001318,159.24984120001318,159.24984120001318,159.24984120001318,159.24984120001318,159.24984120001318,159.24984120001318,159.24984120001318,159.24984120001318,23,0,,,159.24984120001318,159.44991250001476,6.1,159.44991250001476,1,6.1,1,1,1000,num_4,0.4433859999990091,,18,6,2026-03-02_10h45.01.314,2026A_exp2,2022.2.4,59.950672584380264,
1,0,0.0,0.0,0,0,47,47,87,,,,,159.91719940002076,160.55119769999874,160.55119769999874,161.05223470000783,45,45,161.05223470000783,161.05223470000783,161.05223470000783,161.05223470000783,161.05223470000783,161.05223470000783,161.05223470000783,161.05223470000783,161.05223470000783,161.41883460001554,161.41883460001554,161.41883460001554,161.41883460001554,161.41883460001554,161.41883460001554,161.41883460001554,161.41883460001554,161.41883460001554,23,0,,,161.41883460001554,161.61884660000214,0.0,161.61884660000214,1,0.0,0,0,1000,num_4,0.8429948999837507,,18,6,2026-03-02_10h45.01.314,2026A_exp2,2022.2.4,59.950672584380264,
1,0,0.0,0.0,0,0,48,48,64,,,,,162.486327599996,163.12048630000209,163.12048630000209,163.62159110000357,315,315,163.62159110000357,163.62159110000357,163.62159110000357,163.62159110000357,163.62159110000357,163.62159110000357,163.62159110000357,163.62159110000357,163.62159110000357,163.98789670001133,163.98789670001133,163.98789670001133,163.98789670001133,163.98789670001133,163.98789670001133,163.98789670001133,163.98789670001133,163.98789670001133,23,0,,,163.98789670001133,164.1884565000073,0.0,164.1884565000073,0,0.0,0,1,1000,num_1,0.3853192999958992,,18,6,2026-03-02_10h45.01.314,2026A_exp2,2022.2.4,59.950672584380264,
1,0,6.1,0.0,0,0,49,49,58,,,,,164.60518110002158,165.2391464000102,165.2391464000102,165.74030279999715,315,315,165.74030279999715,165.74030279999715,165.74030279999715,165.74030279999715,165.74030279999715,165.74030279999715,165.74030279999715,165.74030279999715,165.74030279999715,166.10684690001654,166.10684690001654,166.10684690001654,166.10684690001654,166.10684690001654,166.10684690001654,166.10684690001654,166.10684690001654,166.10684690001654,23,0,,,166.10684690001654,166.3069304000237,6.1,166.3069304000237,1,6.1,1,1,1000,num_4,0.37036700002499856,,18,6,2026-03-02_10h45.01.314,2026A_exp2,2022.2.4,59.950672584380264,
1,0,6.1,4.9,1,0,50,50,38,,,,,166.70744800000102,167.35789680000744,167.35789680000744,167.85915679999744,315,315,167.85915679999744,167.85915679999744,167.85915679999744,167.85915679999744,167.85915679999744,167.85915679999744,167.85915679999744,167.85915679999744,167.85915679999744,168.20899840001948,168.20899840001948,168.20899840001948,168.20899840001948,168.20899840001948,168.20899840001948,168.20899840001948,168.20899840001948,168.20899840001948,22,0,,,168.20899840001948,168.4092150000215,4.9,168.4092150000215,1,4.9,1,1,1000,num_4,0.3645276000024751,,18,6,2026-03-02_10h45.01.314,2026A_exp2,2022.2.4,59.950672584380264,
0,0,0.0,6.1,1,0,51,51,84,,,,,168.79290530001163,169.44329950000974,169.44329950000974,169.9277812000073,315,315,169.9277812000073,169.9277812000073,169.9277812000073,169.9277812000073,169.9277812000073,169.9277812000073,169.9277812000073,169.9277812000073,169.9277812000073,170.29402530001244,170.29402530001244,170.29402530001244,170.29402530001244,170.29402530001244,170.29402530001244,170.29402530001244,170.29402530001244,170.29402530001244,23,0,,,170.29402530001244,170.49458369999775,0.0,170.49458369999775,0,0.0,0,1,1000,num_1,0.7193237000028603,,18,6,2026-03-02_10h45.01.314,2026A_exp2,2022.2.4,59.950672584380264,
1,0,4.9,4.9,1,0,52,52,32,,,,,171.2452089000144,171.8958989000239,171.8958989000239,172.3804697000014,45,315,172.3804697000014,172.3804697000014,172.3804697000014,172.3804697000014,172.3804697000014,172.3804697000014,172.3804697000014,172.3804697000014,172.3804697000014,172.74719419999747,172.74719419999747,172.74719419999747,172.74719419999747,172.74719419999747,172.74719419999747,172.74719419999747,172.74719419999747,172.74719419999747,23,0,,,172.74719419999747,172.9471085999976,4.9,172.9471085999976,1,4.9,1,1,1000,num_4,0.298839199997019,,18,6,2026-03-02_10h45.01.314,2026A_exp2,2022.2.4,59.950672584380264,
1000,1,0.0,6.1,0,0,53,53,5,,,,,173.26423210001667,173.91479609999806,173.91479609999806,174.39905000000726,315,45,174.39905000000726,174.39905000000726,174.39905000000726,174.39905000000726,174.39905000000726,174.39905000000726,174.39905000000726,174.39905000000726,174.39905000000726,174.76603130000876,174.76603130000876,174.76603130000876,174.76603130000876,174.76603130000876,174.76603130000876,174.76603130000876,174.76603130000876,174.76603130000876,23,0,,,174.76603130000876,174.9658008000115,1000,174.9658008000115,1000,1000,1000,1000,1,num_2,0.80765989999054,,18,6,2026-03-02_10h45.01.314,2026A_exp2,2022.2.4,59.950672584380264,
1,0,6.1,0.0,0,0,54,54,22,,,,,175.79980400000932,176.43559120001737,176.43559120001737,176.93554100001347,315,315,176.93554100001347,176.93554100001347,176.93554100001347,176.93554100001347,176.93554100001347,176.93554100001347,176.93554100001347,176.93554100001347,176.93554100001347,177.30176640002173,177.30176640002173,177.30176640002173,177.30176640002173,177.30176640002173,177.30176640002173,177.30176640002173,177.30176640002173,177.30176640002173,23,0,,,177.30176640002173,177.501662100025,6.1,177.501662100025,1,6.1,1,1,1000,num_4,0.44783610000740737,,18,6,2026-03-02_10h45.01.314,2026A_exp2,2022.2.4,59.950672584380264,
1000,1,0.0,3.7,1,0,55,55,86,,,,,177.96873000002233,178.60252040001797,178.60252040001797,179.10372430001735,315,45,179.10372430001735,179.10372430001735,179.10372430001735,179.10372430001735,179.10372430001735,179.10372430001735,179.10372430001735,179.10372430001735,179.10372430001735,179.47029190001194,179.47029190001194,179.47029190001194,179.47029190001194,179.47029190001194,179.47029190001194,179.47029190001194,179.47029190001194,179.47029190001194,23,0,,,179.47029190001194,179.6704344000027,1000,179.6704344000027,1000,1000,1000,1000,1,num_2,1.168060099997092,,18,6,2026-03-02_10h45.01.314,2026A_exp2,2022.2.4,59.950672584380264,
0,0,0.0,0.0,0,0,56,56,20,,,,,180.85497400001623,181.5053683000151,181.5053683000151,182.006861700007,45,315,182.006861700007,182.006861700007,182.006861700007,182.006861700007,182.006861700007,182.006861700007,182.006861700007,182.006861700007,182.006861700007,182.37288760000956,182.37288760000956,182.37288760000956,182.37288760000956,182.37288760000956,182.37288760000956,182.37288760000956,182.37288760000956,182.37288760000956,23,0,,,182.37288760000956,182.57346710001002,0.0,182.57346710001002,1,0.0,0,0,1000,num_4,0.7602237999963108,,18,6,2026-03-02_10h45.01.314,2026A_exp2,2022.2.4,59.950672584380264,
1,0,6.1,0.0,1,0,57,57,53,,,,,183.35732790001202,183.9915456000017,183.9915456000017,184.49243530002423,45,45,184.49243530002423,184.49243530002423,184.49243530002423,184.49243530002423,184.49243530002423,184.49243530002423,184.49243530002423,184.49243530002423,184.49243530002423,184.85871310002403,184.85871310002403,184.85871310002403,184.85871310002403,184.85871310002403,184.85871310002403,184.85871310002403,184.85871310002403,184.85871310002403,23,0,,,184.85871310002403,185.05919510000967,0.0,185.05919510000967,0,0.0,0,1,1000,num_1,1.1701270999910776,,18,6,2026-03-02_10h45.01.314,2026A_exp2,2022.2.4,59.950672584380264,
1000,1,4.9,6.1,1,0,58,58,4,,,,,186.26102170001832,186.9110473000037,186.9110473000037,187.3962606000132,315,45,187.3962606000132,187.3962606000132,187.3962606000132,187.3962606000132,187.3962606000132,187.3962606000132,187.3962606000132,187.3962606000132,187.3962606000132,187.7618626000185,187.7618626000185,187.7618626000185,187.7618626000185,187.7618626000185,187.7618626000185,187.7618626000185,187.7618626000185,187.7618626000185,23,0,,,187.7618626000185,187.96194400000968,1000,187.96194400000968,1000,1000,1000,1000,1,num_2,0.6117098999966402,,18,6,2026-03-02_10h45.01.314,2026A_exp2,2022.2.4,59.950672584380264,
1,0,0.0,0.0,0,0,59,59,31,,,,,188.59599000000162,189.24669640001957,189.24669640001957,189.7312682000047,45,45,189.7312682000047,189.7312682000047,189.7312682000047,189.7312682000047,189.7312682000047,189.7312682000047,189.7312682000047,189.7312682000047,189.7312682000047,190.09775149999768,190.09775149999768,190.09775149999768,190.09775149999768,190.09775149999768,190.09775149999768,190.09775149999768,190.09775149999768,190.09775149999768,23,0,,,190.09775149999768,190.29774629999883,0.0,190.29774629999883,0,0.0,0,1,1000,num_1,0.619691799976863,,18,6,2026-03-02_10h45.01.314,2026A_exp2,2022.2.4,59.950672584380264,
1000,1,4.9,0.0,0,0,60,60,82,,,,,190.94842640002025,191.5821874999965,191.5821874999965,192.08317650001845,315,45,192.08317650001845,192.08317650001845,192.08317650001845,192.08317650001845,192.08317650001845,192.08317650001845,192.08317650001845,192.08317650001845,192.08317650001845,192.44966540002497,192.44966540002497,192.44966540002497,192.44966540002497,192.44966540002497,192.44966540002497,192.44966540002497,192.44966540002497,192.44966540002497,23,0,,,192.44966540002497,192.65007800000603,1000,192.65007800000603,1000,1000,1000,1000,0,num_3,0.9155394999834243,,18,6,2026-03-02_10h45.01.314,2026A_exp2,2022.2.4,59.950672584380264,
1000,1,3.7,3.7,1,0,61,61,25,,,,,193.58413329999894,194.23480120001477,194.23480120001477,194.71977190001053,45,315,194.71977190001053,194.71977190001053,194.71977190001053,194.71977190001053,194.71977190001053,194.71977190001053,194.71977190001053,194.71977190001053,194.71977190001053,195.0857719000196,195.0857719000196,195.0857719000196,195.0857719000196,195.0857719000196,195.0857719000196,195.0857719000196,195.0857719000196,195.0857719000196,23,0,,,195.0857719000196,195.2860595000093,1000,195.2860595000093,1000,1000,1000,1000,1,num_2,0.5281205000064801,,18,6,2026-03-02_10h45.01.314,2026A_exp2,2022.2.4,59.950672584380264,
1,0,4.9,0.0,0,0,62,62,57,,,,,195.83658260002267,196.48711899999762,196.48711899999762,196.98851550000836,45,45,196.98851550000836,196.98851550000836,196.98851550000836,196.98851550000836,196.98851550000836,196.98851550000836,196.98851550000836,196.98851550000836,196.98851550000836,197.33800660000998,197.33800660000998,197.33800660000998,197.33800660000998,197.33800660000998,197.33800660000998,197.33800660000998,197.33800660000998,197.33800660000998,22,0,,,197.33800660000998,197.5381422000064,4.9,197.55478980002226,1,4.9,1,1,1000,num_4,0.4586657999898307,,18,6,2026-03-02_10h45.01.314,2026A_exp2,2022.2.4,59.950672584380264,
0,0,6.1,0.0,0,0,63,63,65,,,,,198.03860520001035,198.67263780001667,198.67263780001667,199.17393230000744,45,315,199.17393230000744,199.17393230000744,199.17393230000744,199.17393230000744,199.17393230000744,199.17393230000744,199.17393230000744,199.17393230000744,199.17393230000744,199.54033200000413,199.54033200000413,199.54033200000413,199.54033200000413,199.54033200000413,199.54033200000413,199.54033200000413,199.54033200000413,199.54033200000413,23,0,,,199.54033200000413,199.740523400018,0.0,199.740523400018,0,0.0,0,1,1000,num_1,0.6974614000064321,,18,6,2026-03-02_10h45.01.314,2026A_exp2,2022.2.4,59.950672584380264,
0,0,4.9,4.9,0,0,64,64,88,,,,,200.45771630000672,201.0922383000143,201.0922383000143,201.60959760000696,315,45,201.60959760000696,201.60959760000696,201.60959760000696,201.60959760000696,201.60959760000696,201.60959760000696,201.60959760000696,201.60959760000696,201.60959760000696,201.9591743000201,201.9591743000201,201.9591743000201,201.9591743000201,201.9591743000201,201.9591743000201,201.9591743000201,201.9591743000201,201.9591743000201,22,0,,,201.9591743000201,202.15953070000978,4.9,202.15953070000978,0,4.9,1,0,1000,num_1,0.7097854999883566,,18,6,2026-03-02_10h45.01.314,2026A_exp2,2022.2.4,59.950672584380264,
1000,1,0.0,6.1,0,0,65,65,85,,,,,202.89374960001442,203.5278095000249,203.5278095000249,204.0287598000141,45,45,204.0287598000141,204.0287598000141,204.0287598000141,204.0287598000141,204.0287598000141,204.0287598000141,204.0287598000141,204.0287598000141,204.0287598000141,204.3966132000205,204.3966132000205,204.3966132000205,204.3966132000205,204.3966132000205,204.3966132000205,204.3966132000205,204.3966132000205,204.3966132000205,23,0,,,204.3966132000205,204.59597550000763,1000,204.59597550000763,1000,1000,1000,1000,1,num_2,0.801790900004562,,18,6,2026-03-02_10h45.01.314,2026A_exp2,2022.2.4,59.950672584380264,
1,0,0.0,0.0,1,0,66,66,56,,,,,205.42969820002327,206.0799937999982,206.0799937999982,206.56437440001173,45,315,206.56437440001173,206.56437440001173,206.56437440001173,206.56437440001173,206.56437440001173,206.56437440001173,206.56437440001173,206.56437440001173,206.56437440001173,206.93115519999992,206.93115519999992,206.93115519999992,206.93115519999992,206.93115519999992,206.93115519999992,206.93115519999992,206.93115519999992,206.93115519999992,23,0,,,206.93115519999992,207.13123490000726,0.0,207.13123490000726,1,0.0,0,0,1000,num_4,0.7064857000077609,,18,6,2026-03-02_10h45.01.314,2026A_exp2,2022.2.4,59.950672584380264,
1,0,0.0,0.0,1,0,67,67,42,,,,,207.8652151999995,208.4991050999961,208.4991050999961,209.00019970000722,315,45,209.00019970000722,209.00019970000722,209.00019970000722,209.00019970000722,209.00019970000722,209.00019970000722,209.00019970000722,209.00019970000722,209.00019970000722,209.36661890000687,209.36661890000687,209.36661890000687,209.36661890000687,209.36661890000687,209.36661890000687,209.36661890000687,209.36661890000687,209.36661890000687,23,0,,,209.36661890000687,209.5668298000237,0.0,209.5668298000237,1,0.0,0,0,1000,num_4,0.6712171999970451,,18,6,2026-03-02_10h45.01.314,2026A_exp2,2022.2.4,59.950672584380264,
1000,1,0.0,0.0,1,0,68,68,27,,,,,210.26761680000345,210.90152710000984,210.90152710000984,211.40255420000176,45,45,211.40255420000176,211.40255420000176,211.40255420000176,211.40255420000176,211.40255420000176,211.40255420000176,211.40255420000176,211.40255420000176,211.40255420000176,211.76911059999838,211.76911059999838,211.76911059999838,211.76911059999838,211.76911059999838,211.76911059999838,211.76911059999838,211.76911059999838,211.76911059999838,23,0,,,211.76911059999838,211.96933829999762,1000,211.96933829999762,1000,1000,1000,1000,0,num_3,0.9404702000028919,,18,6,2026-03-02_10h45.01.314,2026A_exp2,2022.2.4,59.950672584380264,
1,0,0.0,4.9,1,0,69,69,2,,,,,212.93703709999681,213.58768009999767,213.58768009999767,214.07197879999876,45,315,214.07197879999876,214.07197879999876,214.07197879999876,214.07197879999876,214.07197879999876,214.07197879999876,214.07197879999876,214.07197879999876,214.07197879999876,214.43837470002472,214.43837470002472,214.43837470002472,214.43837470002472,214.43837470002472,214.43837470002472,214.43837470002472,214.43837470002472,214.43837470002472,23,0,,,214.43837470002472,214.63863500001025,4.9,214.63863500001025,1,4.9,1,1,1000,num_4,0.7594884999853093,,18,6,2026-03-02_10h45.01.314,2026A_exp2,2022.2.4,59.950672584380264,
1000,1,0.0,0.0,0,0,70,70,33,,,,,215.42347320000408,216.05661910001072,216.05661910001072,216.55777300000773,315,315,216.55777300000773,216.55777300000773,216.55777300000773,216.55777300000773,216.55777300000773,216.55777300000773,216.55777300000773,216.55777300000773,216.55777300000773,216.92425999999978,216.92425999999978,216.92425999999978,216.92425999999978,216.92425999999978,216.92425999999978,216.92425999999978,216.92425999999978,216.92425999999978,23,0,,,216.92425999999978,217.12448080000468,1000,217.12448080000468,1000,1000,1000,1000,0,num_3,0.7692851999890991,,18,6,2026-03-02_10h45.01.314,2026A_exp2,2022.2.4,59.950672584380264,
1,0,6.1,3.7,1,0,71,71,45,,,,,217.92521760001546,218.57615190002252,218.57615190002252,219.06012989999726,45,45,219.06012989999726,219.06012989999726,219.06012989999726,219.06012989999726,219.06012989999726,219.06012989999726,219.06012989999726,219.06012989999726,219.06012989999726,219.4266128000163,219.4266128000163,219.4266128000163,219.4266128000163,219.4266128000163,219.4266128000163,219.4266128000163,219.4266128000163,219.4266128000163,23,0,,,219.4266128000163,219.62829580000835,3.7,219.62829580000835,0,3.7,1,0,1000,num_1,0.6173641000059433,,18,6,2026-03-02_10h45.01.314,2026A_exp2,2022.2.4,59.950672584380264,
1000,1,6.1,3.7,0,0,72,72,43,,,,,220.27784419999807,220.9283129000105,220.9283129000105,221.41288600000553,315,45,221.41288600000553,221.41288600000553,221.41288600000553,221.41288600000553,221.41288600000553,221.41288600000553,221.41288600000553,221.41288600000553,221.41288600000553,221.77907190000406,221.77907190000406,221.77907190000406,221.77907190000406,221.77907190000406,221.77907190000406,221.77907190000406,221.77907190000406,221.77907190000406,23,0,,,221.77907190000406,221.97989909999887,1000,221.97989909999887,1000,1000,1000,1000,0,num_3,0.705409200018039,,18,6,2026-03-02_10h45.01.314,2026A_exp2,2022.2.4,59.950672584380264,
0,0,0.0,6.1,0,0,73,73,30,,,,,222.71349600001122,223.3639648000244,223.3639648000244,223.8486557000142,315,45,223.8486557000142,223.8486557000142,223.8486557000142,223.8486557000142,223.8486557000142,223.8486557000142,223.8486557000142,223.8486557000142,223.8486557000142,224.21463360000052,224.21463360000052,224.21463360000052,224.21463360000052,224.21463360000052,224.21463360000052,224.21463360000052,224.21463360000052,224.21463360000052,23,0,,,224.21463360000052,224.41511790000368,6.1,224.41511790000368,0,6.1,1,0,1000,num_1,0.5511406000005081,,18,6,2026-03-02_10h45.01.314,2026A_exp2,2022.2.4,59.950672584380264,
1000,1,0.0,3.7,1,0,74,74,7,,,,,224.98209110001335,225.61629500001436,225.61629500001436,226.1173572000116,45,315,226.1173572000116,226.1173572000116,226.1173572000116,226.1173572000116,226.1173572000116,226.1173572000116,226.1173572000116,226.1173572000116,226.1173572000116,226.4838058000023,226.4838058000023,226.4838058000023,226.4838058000023,226.4838058000023,226.4838058000023,226.4838058000023,226.4838058000023,226.4838058000023,23,0,,,226.4838058000023,226.6841961000173,1000,226.6841961000173,1000,1000,1000,1000,1,num_2,0.7779908000084106,,18,6,2026-03-02_10h45.01.314,2026A_exp2,2022.2.4,59.950672584380264,
1000,1,3.7,3.7,0,0,75,75,76,,,,,227.4847680000239,228.1354996000009,228.1354996000009,228.63705030002166,45,315,228.63705030002166,228.63705030002166,228.63705030002166,228.63705030002166,228.63705030002166,228.63705030002166,228.63705030002166,228.63705030002166,228.63705030002166,228.98622829999658,228.98622829999658,228.98622829999658,228.98622829999658,228.98622829999658,228.98622829999658,228.98622829999658,228.98622829999658,228.98622829999658,22,0,,,228.98622829999658,229.18675320001785,1000,229.18675320001785,1000,1000,1000,1000,0,num_3,0.4986971999751404,,18,6,2026-03-02_10h45.01.314,2026A_exp2,2022.2.4,59.950672584380264,
1,0,6.1,0.0,1,0,76,76,41,,,,,229.7034815000079,230.35440500002005,230.35440500002005,230.85554800002137,315,315,230.85554800002137,230.85554800002137,230.85554800002137,230.85554800002137,230.85554800002137,230.85554800002137,230.85554800002137,230.85554800002137,230.85554800002137,231.22173670001212,231.22173670001212,231.22173670001212,231.22173670001212,231.22173670001212,231.22173670001212,231.22173670001212,231.22173670001212,231.22173670001212,23,0,,,231.22173670001212,231.42213920000358,0.0,231.42213920000358,0,0.0,0,1,1000,num_1,0.9999658000015188,,18,6,2026-03-02_10h45.01.314,2026A_exp2,2022.2.4,59.950672584380264,
1000,1,4.9,6.1,0,0,77,77,49,,,,,232.43982270002016,233.07364330001292,233.07364330001292,233.57503930001985,45,315,233.57503930001985,233.57503930001985,233.57503930001985,233.57503930001985,233.57503930001985,233.57503930001985,233.57503930001985,233.57503930001985,233.57503930001985,233.94303360002232,233.94303360002232,233.94303360002232,233.94303360002232,233.94303360002232,233.94303360002232,233.94303360002232,233.94303360002232,233.94303360002232,23,0,,,233.94303360002232,,1000,234.15818860000581,1000,1000,1000,1000,0,num_3,0.567408200004138,,18,6,2026-03-02_10h45.01.314,2026A_exp2,2022.2.4,59.950672584380264,
0,0,3.7,0.0,0,0,78,78,16,,,,,234.74234890000662,235.39232470002025,235.39232470002025,235.89387110000825,315,45,235.89387110000825,235.89387110000825,235.89387110000825,235.89387110000825,235.89387110000825,235.89387110000825,235.89387110000825,235.89387110000825,235.89387110000825,236.2604365000152,236.2604365000152,236.2604365000152,236.2604365000152,236.2604365000152,236.2604365000152,236.2604365000152,236.2604365000152,236.2604365000152,23,0,,,236.2604365000152,236.46034020002116,0.0,236.46034020002116,1,0.0,0,0,1000,num_4,0.8977417999994941,,18,6,2026-03-02_10h45.01.314,2026A_exp2,2022.2.4,59.950672584380264,
1,0,0.0,4.9,1,0,79,79,44,,,,,237.37811550000333,238.02879630000098,238.02879630000098,238.5131634999998,45,45,238.5131634999998,238.5131634999998,238.5131634999998,238.5131634999998,238.5131634999998,238.5131634999998,238.5131634999998,238.5131634999998,238.5131634999998,238.87990250001894,238.87990250001894,238.87990250001894,238.87990250001894,238.87990250001894,238.87990250001894,238.87990250001894,238.87990250001894,238.87990250001894,23,0,,,238.87990250001894,239.07972850001534,4.9,239.07972850001534,1,4.9,1,1,1000,num_4,0.6064812999975402,,18,6,2026-03-02_10h45.01.314,2026A_exp2,2022.2.4,59.950672584380264,
1,0,3.7,3.7,1,0,80,80,11,,,,,239.7136495000159,240.34808230001363,240.34808230001363,240.84877979999874,315,45,240.84877979999874,240.84877979999874,240.84877979999874,240.84877979999874,240.84877979999874,240.84877979999874,240.84877979999874,240.84877979999874,240.84877979999874,241.21511370001826,241.21511370001826,241.21511370001826,241.21511370001826,241.21511370001826,241.21511370001826,241.21511370001826,241.21511370001826,241.21511370001826,23,0,,,241.21511370001826,241.4153237999999,3.7,241.4153237999999,1,3.7,1,1,1000,num_4,0.3991471999906935,,18,6,2026-03-02_10h45.01.314,2026A_exp2,2022.2.4,59.950672584380264,
1,0,4.9,0.0,0,0,81,81,19,,,,,241.83265260001644,242.46651520000887,242.46651520000887,242.96742640002049,315,45,242.96742640002049,242.96742640002049,242.96742640002049,242.96742640002049,242.96742640002049,242.96742640002049,242.96742640002049,242.96742640002049,242.96742640002049,243.33393849999993,243.33393849999993,243.33393849999993,243.33393849999993,243.33393849999993,243.33393849999993,243.33393849999993,243.33393849999993,243.33393849999993,23,0,,,243.33393849999993,243.53431550000096,4.9,243.53431550000096,1,4.9,1,1,1000,num_4,0.4157771999889519,,18,6,2026-03-02_10h45.01.314,2026A_exp2,2022.2.4,59.950672584380264,
1000,1,3.7,0.0,1,0,82,82,54,,,,,243.96773750000284,244.60191810000106,244.60191810000106,245.10287670002435,45,45,245.10287670002435,245.10287670002435,245.10287670002435,245.10287670002435,245.10287670002435,245.10287670002435,245.10287670002435,245.10287670002435,245.10287670002435,245.46929200002342,245.46929200002342,245.46929200002342,245.46929200002342,245.46929200002342,245.46929200002342,245.46929200002342,245.46929200002342,245.46929200002342,23,0,,,245.46929200002342,245.66994340001838,1000,245.66994340001838,1000,1000,1000,1000,1,num_2,1.3599875000072643,,18,6,2026-03-02_10h45.01.314,2026A_exp2,2022.2.4,59.950672584380264,
0,0,0.0,6.1,0,0,83,83,12,,,,,247.05459990000236,247.70488470001146,247.70488470001146,248.18940030000522,315,45,248.18940030000522,248.18940030000522,248.18940030000522,248.18940030000522,248.18940030000522,248.18940030000522,248.18940030000522,248.18940030000522,248.18940030000522,248.55572470001061,248.55572470001061,248.55572470001061,248.55572470001061,248.55572470001061,248.55572470001061,248.55572470001061,248.55572470001061,248.55572470001061,23,0,,,248.55572470001061,248.75587429999723,6.1,248.75587429999723,1,6.1,1,1,1000,num_4,0.9539063000120223,,18,6,2026-03-02_10h45.01.314,2026A_exp2,2022.2.4,59.950672584380264,
1,0,3.7,4.9,0,0,84,84,70,,,,,249.74023039999884,250.37524510000367,250.37524510000367,250.87555360002443,45,45,250.87555360002443,250.87555360002443,250.87555360002443,250.87555360002443,250.87555360002443,250.87555360002443,250.87555360002443,250.87555360002443,250.87555360002443,251.2419417000201,251.2419417000201,251.2419417000201,251.2419417000201,251.2419417000201,251.2419417000201,251.2419417000201,251.2419417000201,251.2419417000201,23,0,,,251.2419417000201,251.44204730002093,3.7,251.44204730002093,1,3.7,1,1,1000,num_4,0.5801116000220645,,18,6,2026-03-02_10h45.01.314,2026A_exp2,2022.2.4,59.950672584380264,
1000,1,0.0,4.9,0,0,85,85,50,,,,,252.04295020000427,252.69348909999826,252.69348909999826,253.1776422999974,45,315,253.1776422999974,253.1776422999974,253.1776422999974,253.1776422999974,253.1776422999974,253.1776422999974,253.1776422999974,253.1776422999974,253.1776422999974,253.54410450000432,253.54410450000432,253.54410450000432,253.54410450000432,253.54410450000432,253.54410450000432,253.54410450000432,253.54410450000432,253.54410450000432,23,0,,,253.54410450000432,253.7443929000001,1000,253.7443929000001,1000,1000,1000,1000,1,num_2,0.7733059000165667,,18,6,2026-03-02_10h45.01.314,2026A_exp2,2022.2.4,59.950672584380264,
1,0,6.1,0.0,1,0,86,86,23,,,,,254.54527390000294,255.17916390000028,255.17916390000028,255.68034740001895,45,315,255.68034740001895,255.68034740001895,255.68034740001895,255.68034740001895,255.68034740001895,255.68034740001895,255.68034740001895,255.68034740001895,255.68034740001895,256.0468621000182,256.0468621000182,256.0468621000182,256.0468621000182,256.0468621000182,256.0468621000182,256.0468621000182,256.0468621000182,256.0468621000182,23,0,,,256.0468621000182,256.24698540000827,0.0,256.24698540000827,0,0.0,0,1,1000,num_1,0.7587032999726944,,18,6,2026-03-02_10h45.01.314,2026A_exp2,2022.2.4,59.950672584380264,
0,0,0.0,0.0,0,0,87,87,10,,,,,257.0320433000161,257.68161570001394,257.68161570001394,258.16605660002097,315,45,258.16605660002097,258.16605660002097,258.16605660002097,258.16605660002097,258.16605660002097,258.16605660002097,258.16605660002097,258.16605660002097,258.16605660002097,258.53241909999633,258.53241909999633,258.53241909999633,258.53241909999633,258.53241909999633,258.53241909999633,258.53241909999633,258.53241909999633,258.53241909999633,23,0,,,258.53241909999633,258.73302410001634,0.0,258.73302410001634,1,0.0,0,0,1000,num_4,1.3205363000161014,,18,6,2026-03-02_10h45.01.314,2026A_exp2,2022.2.4,59.950672584380264,
1000,1,4.9,4.9,0,0,88,88,6,,,,,260.08399250000366,260.7179906000092,260.7179906000092,261.2192701000022,45,45,261.2192701000022,261.2192701000022,261.2192701000022,261.2192701000022,261.2192701000022,261.2192701000022,261.2192701000022,261.2192701000022,261.2192701000022,261.58542460002354,261.58542460002354,261.58542460002354,261.58542460002354,261.58542460002354,261.58542460002354,261.58542460002354,261.58542460002354,261.58542460002354,23,0,,,261.58542460002354,261.7859881000186,1000,261.7859881000186,1000,1000,1000,1000,0,num_3,0.5401054999965709,,18,6,2026-03-02_10h45.01.314,2026A_exp2,2022.2.4,59.950672584380264,
1,0,0.0,0.0,1,0,89,89,66,,,,,262.35307930002455,263.0035984000133,263.0035984000133,263.48878360001254,45,315,263.48878360001254,263.48878360001254,263.48878360001254,263.48878360001254,263.48878360001254,263.48878360001254,263.48878360001254,263.48878360001254,263.48878360001254,263.8547307999979,263.8547307999979,263.8547307999979,263.8547307999979,263.8547307999979,263.8547307999979,263.8547307999979,263.8547307999979,263.8547307999979,23,0,,,263.8547307999979,264.054658500012,0.0,264.054658500012,0,0.0,0,1,1000,num_1,0.4150992000068072,,18,6,2026-03-02_10h45.01.314,2026A_exp2,2022.2.4,59.950672584380264,
,,,,,,,,,,,,,,,,,,,,,,,,,,,,,,,,,,,,,,,,,,,,,,,,,,,,264.49439070001245,,,,,,,
