validity,detectorcomp,contrastCW,contrastCCW,precueCWorCCW,block_80trials.thisRepN,block_80trials.thisTrialN,block_80trials.thisN,block_80trials.thisIndex,etRecord.started,etRecord.stopped,text.started,text.stopped,text_4.started,text_4.stopped,text_6.started,text_6.stopped,oriCW,oriCCW,roi_2.started,grating_UR.started,grating_UL.started,grating_LR.started,grating_LL.started,noise_UR.started,noise_UL.started,noise_LR.started,noise_LL.started,roi_2.stopped,grating_UR.stopped,grating_UL.stopped,grating_LR.stopped,grating_LL.stopped,noise_UR.stopped,noise_UL.stopped,noise_LR.stopped,noise_LL.stopped,outframe,roi_2.numLooks,roi_2.timesOn,roi_2.timesOff,text_2.started,text_2.stopped,probedcontrast,key_resp.started,respdetect,relevantContrast,correctDetect,TorFdetect,respCWorCCW,key_resp.keys,key_resp.rt,feedback_display_.started,participantNo,blockNo,date,expName,psychopyVersion,frameRate,
1,0,0.0,3.7,0,0,0,0,31,3.899997682310641e-05,3.899997682310641e-05,67.37213869998232,69.38341109998873,69.38341109998873,70.0266386999865,70.0266386999865,70.5338475999888,45,315,70.5338475999888,70.5338475999888,70.5338475999888,70.5338475999888,70.5338475999888,70.5338475999888,70.5338475999888,70.5338475999888,70.5338475999888,70.8940318999812,70.8940318999812,70.8940318999812,70.8940318999812,70.8940318999812,70.8940318999812,70.8940318999812,70.8940318999812,70.8940318999812,0,1,[0.001052400009939447],[0.38335480002569966],70.8940318999812,71.0943341999955,0.0,71.0943341999955,0,0.0,0,1,1000,num_1,0.5057706999941729,,21,15,2026-03-02_18h33.28.988,2026A_exp2,2022.2.4,60.14078959628727,
1000,1,4.9,0.0,1,0,1,1,84,,,,,71.62812869998743,72.26217289999477,72.26217289999477,72.76308179998887,45,45,72.76308179998887,72.76308179998887,72.76308179998887,72.76308179998887,72.76308179998887,72.76308179998887,72.76308179998887,72.76308179998887,72.76308179998887,73.12953439998091,73.12953439998091,73.12953439998091,73.12953439998091,73.12953439998091,73.12953439998091,73.12953439998091,73.12953439998091,73.12953439998091,0,1,[0.0007623000128660351],[0.3675742000050377],73.12953439998091,73.33466229998157,1000,73.33466229998157,1000,1000,1000,1000,0,num_3,0.6170122999756131,,21,15,2026-03-02_18h33.28.988,2026A_exp2,2022.2.4,60.14078959628727,
1,0,0.0,0.0,1,0,2,2,20,,,,,73.98059849999845,74.63104239999666,74.63104239999666,75.13219609999214,315,45,75.13219609999214,75.13219609999214,75.13219609999214,75.13219609999214,75.13219609999214,75.13219609999214,75.13219609999214,75.13219609999214,75.13219609999214,75.48194389999844,75.48194389999844,75.48194389999844,75.48194389999844,75.48194389999844,75.48194389999844,75.48194389999844,75.48194389999844,75.48194389999844,0,1,[0.0012115999998059124],[0.35049149999395013],75.48194389999844,75.6822185999772,0.0,75.6987612999801,0,0.0,0,1,1000,num_1,0.5166117000044324,,21,15,2026-03-02_18h33.28.988,2026A_exp2,2022.2.4,60.14078959628727,
1000,1,3.7,0.0,0,0,3,3,81,,,,,76.23269619999337,76.88361249997979,76.88361249997979,77.36772799998289,45,45,77.36772799998289,77.36772799998289,77.36772799998289,77.36772799998289,77.36772799998289,77.36772799998289,77.36772799998289,77.36772799998289,77.36772799998289,77.73431119997986,77.73431119997986,77.73431119997986,77.73431119997986,77.73431119997986,77.73431119997986,77.73431119997986,77.73431119997986,77.73431119997986,0,1,[0.0012184999941382557],[0.36726400000043213],77.73431119997986,77.93620329999248,1000,77.93620329999248,1000,1000,1000,1000,0,num_3,0.575690699974075,,21,15,2026-03-02_18h33.28.988,2026A_exp2,2022.2.4,60.14078959628727,
1000,1,0.0,4.9,1,0,4,4,72,,,,,78.53507990000071,79.18577079998795,79.18577079998795,79.68690339999739,315,45,79.68690339999739,79.68690339999739,79.68690339999739,79.68690339999739,79.68690339999739,79.68690339999739,79.68690339999739,79.68690339999739,79.68690339999739,80.05313399998704,80.05313399998704,80.05313399998704,80.05313399998704,80.05313399998704,80.05313399998704,80.05313399998704,80.05313399998704,80.05313399998704,0,1,[0.0012063999893143773],[0.36687899997923523],80.05313399998704,80.25509940000484,1000,80.25509940000484,1000,1000,1000,1000,0,num_3,0.7771814000152517,,21,15,2026-03-02_18h33.28.988,2026A_exp2,2022.2.4,60.14078959628727,
1,0,3.7,0.0,0,0,5,5,7,,,,,81.0542610999837,81.70494909997797,81.70494909997797,82.18937119998736,45,315,82.18937119998736,82.18937119998736,82.18937119998736,82.18937119998736,82.18937119998736,82.18937119998736,82.18937119998736,82.18937119998736,82.18937119998736,82.55543609999586,82.55543609999586,82.55543609999586,82.55543609999586,82.55543609999586,82.55543609999586,82.55543609999586,82.55543609999586,82.55543609999586,0,1,[0.0012219000200275332],[0.36675950000062585],82.55543609999586,82.75590079999529,3.7,82.75590079999529,1,3.7,1,1,1000,num_4,1.1555473000044003,,21,15,2026-03-02_18h33.28.988,2026A_exp2,2022.2.4,60.14078959628727,
1000,1,6.1,4.9,1,0,6,6,15,,,,,83.94028909999179,84.57415989998844,84.57415989998844,85.07534329997725,45,315,85.07534329997725,85.07534329997725,85.07534329997725,85.07534329997725,85.07534329997725,85.07534329997725,85.07534329997725,85.07534329997725,85.07534329997725,85.44169019997935,85.44169019997935,85.44169019997935,85.44169019997935,85.44169019997935,85.44169019997935,85.44169019997935,85.44169019997935,85.44169019997935,0,1,[0.0010162999969907105],[0.3668820000020787],85.44169019997935,85.6421933999809,1000,85.6421933999809,1000,1000,1000,1000,0,num_3,0.5010825999779627,,21,15,2026-03-02_18h33.28.988,2026A_exp2,2022.2.4,60.14078959628727,
1,0,0.0,3.7,1,0,7,7,30,,,,,86.15957989997696,86.8096459999797,86.8096459999797,87.294058999978,315,315,87.294058999978,87.294058999978,87.294058999978,87.294058999978,87.294058999978,87.294058999978,87.294058999978,87.294058999978,87.294058999978,87.66059699998004,87.66059699998004,87.66059699998004,87.66059699998004,87.66059699998004,87.66059699998004,87.66059699998004,87.66059699998004,87.66059699998004,0,1,[0.0007301000005099922],[0.3668642999837175],87.66059699998004,87.86061059997883,3.7,87.86061059997883,0,3.7,1,0,1000,num_1,0.387003600015305,,21,15,2026-03-02_18h33.28.988,2026A_exp2,2022.2.4,60.14078959628727,
1000,1,4.9,0.0,0,0,8,8,12,,,,,88.27795129999868,88.92875049999566,88.92875049999566,89.41318869998213,45,45,89.41318869998213,89.41318869998213,89.41318869998213,89.41318869998213,89.41318869998213,89.41318869998213,89.41318869998213,89.41318869998213,89.41318869998213,89.77959729998838,89.77959729998838,89.77959729998838,89.77959729998838,89.77959729998838,89.77959729998838,89.77959729998838,89.77959729998838,89.77959729998838,0,1,[0.001288400002522394],[0.36705880000954494],89.77959729998838,89.98191420000512,1000,89.98191420000512,1000,1000,1000,1000,0,num_3,0.4904270999832079,,21,15,2026-03-02_18h33.28.988,2026A_exp2,2022.2.4,60.14078959628727,
1000,1,4.9,0.0,0,0,9,9,37,,,,,90.49698199998238,91.14763839999796,91.14763839999796,91.64865149999969,315,45,91.64865149999969,91.64865149999969,91.64865149999969,91.64865149999969,91.64865149999969,91.64865149999969,91.64865149999969,91.64865149999969,91.64865149999969,91.99853009998333,91.99853009998333,91.99853009998333,91.99853009998333,91.99853009998333,91.99853009998333,91.99853009998333,91.99853009998333,91.99853009998333,0,1,[0.001199499994982034],[0.350520099978894],91.99853009998333,92.20077870000387,1000,92.20077870000387,1000,1000,1000,1000,0,num_3,0.43027230000006966,,21,15,2026-03-02_18h33.28.988,2026A_exp2,2022.2.4,60.14078959628727,
1000,1,6.1,6.1,1,0,10,10,53,,,,,92.64904789999127,93.29980720000458,93.29980720000458,93.80098030000227,45,315,93.80098030000227,93.80098030000227,93.80098030000227,93.80098030000227,93.80098030000227,93.80098030000227,93.80098030000227,93.80098030000227,93.80098030000227,94.15059469998232,94.15059469998232,94.15059469998232,94.15059469998232,94.15059469998232,94.15059469998232,94.15059469998232,94.15059469998232,94.15059469998232,0,1,[0.0012162000057287514],[0.3506428000109736],94.15059469998232,94.35343759998796,1000,94.35343759998796,1000,1000,1000,1000,1,num_2,0.8709158999845386,,21,15,2026-03-02_18h33.28.988,2026A_exp2,2022.2.4,60.14078959628727,
1,0,3.7,0.0,0,0,11,11,9,,,,,95.25170249998337,95.90249529998982,95.90249529998982,96.403590300004,45,315,96.403590300004,96.403590300004,96.403590300004,96.403590300004,96.403590300004,96.403590300004,96.403590300004,96.403590300004,96.403590300004,96.75320449998253,96.75320449998253,96.75320449998253,96.75320449998253,96.75320449998253,96.75320449998253,96.75320449998253,96.75320449998253,96.75320449998253,0,1,[0.0012138000165577978],[0.3508215000038035],96.75320449998253,96.95333989997744,3.7,96.97020189999603,1,3.7,1,1,1000,num_4,0.6926817999919876,,21,15,2026-03-02_18h33.28.988,2026A_exp2,2022.2.4,60.14078959628727,
1,0,0.0,0.0,0,0,12,12,32,,,,,97.68740699999034,98.3382975999848,98.3382975999848,98.82286179999937,315,45,98.82286179999937,98.82286179999937,98.82286179999937,98.82286179999937,98.82286179999937,98.82286179999937,98.82286179999937,98.82286179999937,98.82286179999937,99.18897129999823,99.18897129999823,99.18897129999823,99.18897129999823,99.18897129999823,99.18897129999823,99.18897129999823,99.18897129999823,99.18897129999823,0,1,[0.0007310000073630363],[0.3678387000109069],99.18897129999823,99.38928809997742,0.0,99.38928809997742,0,0.0,0,1,1000,num_1,0.3378480999963358,,21,15,2026-03-02_18h33.28.988,2026A_exp2,2022.2.4,60.14078959628727,
0,0,6.1,4.9,1,0,13,13,42,,,,,99.7562771999801,100.39019720000215,100.39019720000215,100.89115219999803,315,315,100.89115219999803,100.89115219999803,100.89115219999803,100.89115219999803,100.89115219999803,100.89115219999803,100.89115219999803,100.89115219999803,100.89115219999803,101.25775859999703,101.25775859999703,101.25775859999703,101.25775859999703,101.25775859999703,101.25775859999703,101.25775859999703,101.25775859999703,101.25775859999703,8,1,[0.13400210000691004],[0.36738729997887276],101.25775859999703,101.45796749999863,6.1,101.45796749999863,1,6.1,1,1,1000,num_4,1.2138950999942608,,21,15,2026-03-02_18h33.28.988,2026A_exp2,2022.2.4,60.14078959628727,
1000,1,3.7,0.0,1,0,14,14,78,,,,,102.69236489999457,103.34324479999486,103.34324479999486,103.82755149999866,315,45,103.82755149999866,103.82755149999866,103.82755149999866,103.82755149999866,103.82755149999866,103.82755149999866,103.82755149999866,103.82755149999866,103.82755149999866,104.19412639999064,104.19412639999064,104.19412639999064,104.19412639999064,104.19412639999064,104.19412639999064,104.19412639999064,104.19412639999064,104.19412639999064,0,1,[0.0007835000287741423],[0.3674716000095941],104.19412639999064,104.39635619998444,1000,104.39635619998444,1000,1000,1000,1000,0,num_3,0.5391813000023831,,21,15,2026-03-02_18h33.28.988,2026A_exp2,2022.2.4,60.14078959628727,
1,0,4.9,6.1,0,0,15,15,29,,,,,104.96131699997932,105.61200369999278,105.61200369999278,106.09652659998392,315,315,106.09652659998392,106.09652659998392,106.09652659998392,106.09652659998392,106.09652659998392,106.09652659998392,106.09652659998392,106.09652659998392,106.09652659998392,106.46297439999762,106.46297439999762,106.46297439999762,106.46297439999762,106.46297439999762,106.46297439999762,106.46297439999762,106.46297439999762,106.46297439999762,0,1,[0.001212100003613159],[0.36705780000193045],106.46297439999762,106.6631073000026,4.9,106.6631073000026,1,4.9,1,1,1000,num_4,1.1198790999769699,,21,15,2026-03-02_18h33.28.988,2026A_exp2,2022.2.4,60.14078959628727,
0,0,0.0,4.9,0,0,16,16,65,,,,,107.81405250000535,108.4649981999828,108.4649981999828,108.94932630000403,45,315,108.94932630000403,108.94932630000403,108.94932630000403,108.94932630000403,108.94932630000403,108.94932630000403,108.94932630000403,108.94932630000403,108.94932630000403,109.31569970000419,109.31569970000419,109.31569970000419,109.31569970000419,109.31569970000419,109.31569970000419,109.31569970000419,109.31569970000419,109.31569970000419,0,1,[0.0009024000028148293],[0.3675945000140928],109.31569970000419,109.51602999999886,4.9,109.51602999999886,1,4.9,1,1,1000,num_4,0.7961742999905255,,21,15,2026-03-02_18h33.28.988,2026A_exp2,2022.2.4,60.14078959628727,
1000,1,0.0,0.0,0,0,17,17,13,,,,,110.33353539998643,110.967467999988,110.967467999988,111.46851229999447,315,45,111.46851229999447,111.46851229999447,111.46851229999447,111.46851229999447,111.46851229999447,111.46851229999447,111.46851229999447,111.46851229999447,111.46851229999447,111.8349788999767,111.8349788999767,111.8349788999767,111.8349788999767,111.8349788999767,111.8349788999767,111.8349788999767,111.8349788999767,111.8349788999767,0,1,[0.0013030999980401248],[0.3671346000046469],111.8349788999767,112.03677229999448,1000,112.03677229999448,1000,1000,1000,1000,0,num_3,0.8669069999887142,,21,15,2026-03-02_18h33.28.988,2026A_exp2,2022.2.4,60.14078959628727,
1,0,0.0,0.0,0,0,18,18,61,,,,,112.91940169999725,113.5700794000004,113.5700794000004,114.07105739999679,45,45,114.07105739999679,114.07105739999679,114.07105739999679,114.07105739999679,114.07105739999679,114.07105739999679,114.07105739999679,114.07105739999679,114.07105739999679,114.43765209999401,114.43765209999401,114.43765209999401,114.43765209999401,114.43765209999401,114.43765209999401,114.43765209999401,114.43765209999401,114.43765209999401,0,1,[0.00173789999098517],[0.3668642999837175],114.43765209999401,114.63783699998748,0.0,114.63783699998748,0,0.0,0,1,1000,num_1,0.3777917000115849,,21,15,2026-03-02_18h33.28.988,2026A_exp2,2022.2.4,60.14078959628727,
1,0,4.9,3.7,1,0,19,19,71,,,,,115.03813959998661,115.68855099999928,115.68855099999928,116.18967859999975,45,315,116.18967859999975,116.18967859999975,116.18967859999975,116.18967859999975,116.18967859999975,116.18967859999975,116.18967859999975,116.18967859999975,116.18967859999975,116.53972649999196,116.53972649999196,116.53972649999196,116.53972649999196,116.53972649999196,116.53972649999196,116.53972649999196,116.53972649999196,116.53972649999196,0,1,[0.0013300999999046326],[0.350591299997177],116.53972649999196,116.73990590000176,3.7,116.73990590000176,0,3.7,1,0,1000,num_1,0.6434137999895029,,21,15,2026-03-02_18h33.28.988,2026A_exp2,2022.2.4,60.14078959628727,
1000,1,0.0,4.9,0,0,20,20,23,,,,,117.40704639998148,118.05791750000208,118.05791750000208,118.54231219997746,45,315,118.54231219997746,118.54231219997746,118.54231219997746,118.54231219997746,118.54231219997746,118.54231219997746,118.54231219997746,118.54231219997746,118.54231219997746,118.90894559997832,118.90894559997832,118.90894559997832,118.90894559997832,118.90894559997832,118.90894559997832,118.90894559997832,118.90894559997832,118.90894559997832,0,1,[0.0010686000168789178],[0.3670278000063263],118.90894559997832,119.11061679999693,1000,119.11061679999693,1000,1000,1000,1000,1,num_2,0.5765379999938887,,21,15,2026-03-02_18h33.28.988,2026A_exp2,2022.2.4,60.14078959628727,
1000,1,3.7,4.9,0,0,21,21,25,,,,,119.70940639998298,120.36008270000457,120.36008270000457,120.86653539998224,45,315,120.86653539998224,120.86653539998224,120.86653539998224,120.86653539998224,120.86653539998224,120.86653539998224,120.86653539998224,120.86653539998224,120.86653539998224,121.22758969999268,121.22758969999268,121.22758969999268,121.22758969999268,121.22758969999268,121.22758969999268,121.22758969999268,121.22758969999268,121.22758969999268,0,1,[0.002593300014268607],[0.36615710001206025],121.22758969999268,121.42992769999546,1000,121.42992769999546,1000,1000,1000,1000,0,num_3,0.6899878999975044,,21,15,2026-03-02_18h33.28.988,2026A_exp2,2022.2.4,60.14078959628727,
0,0,4.9,0.0,1,0,22,22,26,,,,,122.14522589999251,122.79599149999558,122.79599149999558,123.2984790999908,315,45,123.2984790999908,123.2984790999908,123.2984790999908,123.2984790999908,123.2984790999908,123.2984790999908,123.2984790999908,123.2984790999908,123.2984790999908,123.66359539999394,123.66359539999394,123.66359539999394,123.66359539999394,123.66359539999394,123.66359539999394,123.66359539999394,123.66359539999394,123.66359539999394,23,0,,,123.66359539999394,123.86360559999594,4.9,123.86360559999594,1,4.9,1,1,1000,num_4,0.7673949000018183,,21,15,2026-03-02_18h33.28.988,2026A_exp2,2022.2.4,60.14078959628727,
1,0,0.0,0.0,1,0,23,23,58,,,,,124.64772929999162,125.29838920000475,125.29838920000475,125.78280449999147,45,45,125.78280449999147,125.78280449999147,125.78280449999147,125.78280449999147,125.78280449999147,125.78280449999147,125.78280449999147,125.78280449999147,125.78280449999147,126.14933719998226,126.14933719998226,126.14933719998226,126.14933719998226,126.14933719998226,126.14933719998226,126.14933719998226,126.14933719998226,126.14933719998226,21,1,[0.3505062999902293],[0.3671141999948304],126.14933719998226,126.34938840000541,0.0,126.34938840000541,0,0.0,0,1,1000,num_1,0.6023543999763206,,21,15,2026-03-02_18h33.28.988,2026A_exp2,2022.2.4,60.14078959628727,
1,0,0.0,4.9,1,0,24,24,41,,,,,126.98348470000201,127.63421819999348,127.63421819999348,128.11852439999348,45,45,128.11852439999348,128.11852439999348,128.11852439999348,128.11852439999348,128.11852439999348,128.11852439999348,128.11852439999348,128.11852439999348,128.11852439999348,128.48493939999025,128.48493939999025,128.48493939999025,128.48493939999025,128.48493939999025,128.48493939999025,128.48493939999025,128.48493939999025,128.48493939999025,16,2,"[0.11692850000690669, 0.21692770000663586]","[0.16708069999003783, 0.267114499991294]",128.48493939999025,128.68534009999712,4.9,128.68534009999712,1,4.9,1,1,1000,num_4,1.7779335999803152,,21,15,2026-03-02_18h33.28.988,2026A_exp2,2022.2.4,60.14078959628727,
1,0,6.1,3.7,1,0,25,25,83,,,,,130.48698439999134,131.12098049998167,131.12098049998167,131.6221602000005,315,45,131.6221602000005,131.6221602000005,131.6221602000005,131.6221602000005,131.6221602000005,131.6221602000005,131.6221602000005,131.6221602000005,131.6221602000005,131.98849429999245,131.98849429999245,131.98849429999245,131.98849429999245,131.98849429999245,131.98849429999245,131.98849429999245,131.98849429999245,131.98849429999245,5,4,"[0.017467500001657754, 0.1833082000084687, 0.2837588000111282, 0.31718670000554994]","[0.16704060000483878, 0.2670570000191219, 0.3003876000002492, 0.3672929000167642]",131.98849429999245,132.18856690000393,3.7,132.18856690000393,0,3.7,1,0,1000,num_1,0.970988999994006,,21,15,2026-03-02_18h33.28.988,2026A_exp2,2022.2.4,60.14078959628727,
1,0,3.7,0.0,0,0,26,26,10,,,,,133.1895943999989,133.82364039999084,133.82364039999084,134.32465349999256,315,45,134.32465349999256,134.32465349999256,134.32465349999256,134.32465349999256,134.32465349999256,134.32465349999256,134.32465349999256,134.32465349999256,134.32465349999256,134.6910794999858,134.6910794999858,134.6910794999858,134.6910794999858,134.6910794999858,134.6910794999858,134.6910794999858,134.6910794999858,134.6910794999858,1,2,"[0.0012020000140182674, 0.33386690000770614]","[0.31710660000680946, 0.3670453999948222]",134.6910794999858,134.8911509999889,3.7,134.8911509999889,1,3.7,1,1,1000,num_4,0.3732381999725476,,21,15,2026-03-02_18h33.28.988,2026A_exp2,2022.2.4,60.14078959628727,
1000,1,0.0,0.0,1,0,27,27,68,,,,,135.29177699997672,135.9257951999898,135.9257951999898,136.42682069999864,45,315,136.42682069999864,136.42682069999864,136.42682069999864,136.42682069999864,136.42682069999864,136.42682069999864,136.42682069999864,136.42682069999864,136.42682069999864,136.7933125999989,136.7933125999989,136.7933125999989,136.7933125999989,136.7933125999989,136.7933125999989,136.7933125999989,136.7933125999989,136.7933125999989,23,0,,,136.7933125999989,136.99357880000025,1000,136.99357880000025,1000,1000,1000,1000,0,num_3,0.7261534999997821,,21,15,2026-03-02_18h33.28.988,2026A_exp2,2022.2.4,60.14078959628727,
1,0,0.0,0.0,0,0,28,28,39,,,,,137.744432699983,138.39487679998274,138.39487679998274,138.87928470000043,315,315,138.87928470000043,138.87928470000043,138.87928470000043,138.87928470000043,138.87928470000043,138.87928470000043,138.87928470000043,138.87928470000043,138.87928470000043,139.2457868999918,139.2457868999918,139.2457868999918,139.2457868999918,139.2457868999918,139.2457868999918,139.2457868999918,139.2457868999918,139.2457868999918,23,0,,,139.2457868999918,139.44583449998754,0.0,139.44583449998754,0,0.0,0,1,1000,num_1,1.162053099978948,,21,15,2026-03-02_18h33.28.988,2026A_exp2,2022.2.4,60.14078959628727,
1,0,4.9,4.9,0,0,29,29,28,,,,,140.63041419998626,141.28111989999888,141.28111989999888,141.76559070000076,45,315,141.76559070000076,141.76559070000076,141.76559070000076,141.76559070000076,141.76559070000076,141.76559070000076,141.76559070000076,141.76559070000076,141.76559070000076,142.13200409998535,142.13200409998535,142.13200409998535,142.13200409998535,142.13200409998535,142.13200409998535,142.13200409998535,142.13200409998535,142.13200409998535,23,0,,,142.13200409998535,142.3322263000009,4.9,142.3322263000009,1,4.9,1,1,1000,num_4,0.5396202999982052,,21,15,2026-03-02_18h33.28.988,2026A_exp2,2022.2.4,60.14078959628727,
1,0,3.7,3.7,0,0,30,30,8,,,,,142.89924519998021,143.55008699998143,143.55008699998143,144.03443659999175,315,45,144.03443659999175,144.03443659999175,144.03443659999175,144.03443659999175,144.03443659999175,144.03443659999175,144.03443659999175,144.03443659999175,144.03443659999175,144.40095149999252,144.40095149999252,144.40095149999252,144.40095149999252,144.40095149999252,144.40095149999252,144.40095149999252,144.40095149999252,144.40095149999252,23,0,,,144.40095149999252,144.60118739999598,3.7,144.60118739999598,1,3.7,1,1,1000,num_4,0.7181913999957033,,21,15,2026-03-02_18h33.28.988,2026A_exp2,2022.2.4,60.14078959628727,
1,0,0.0,6.1,1,0,31,31,5,,,,,145.3350898999779,145.9858333999873,145.9858333999873,146.4702857999946,315,45,146.4702857999946,146.4702857999946,146.4702857999946,146.4702857999946,146.4702857999946,146.4702857999946,146.4702857999946,146.4702857999946,146.4702857999946,146.83665039998596,146.83665039998596,146.83665039998596,146.83665039998596,146.83665039998596,146.83665039998596,146.83665039998596,146.83665039998596,146.83665039998596,15,4,"[0.08360120002180338, 0.1671426000248175, 0.2004531999991741, 0.26717760000610724]","[0.13361070002429187, 0.18374420001055114, 0.25054580002324656, 0.28385659999912605]",146.83665039998596,147.0369445999968,6.1,147.0369445999968,1,6.1,1,1,1000,num_4,0.49118179999641143,,21,15,2026-03-02_18h33.28.988,2026A_exp2,2022.2.4,60.14078959628727,
1000,1,0.0,0.0,0,0,32,32,24,,,,,147.55392029997893,148.2046739999787,148.2046739999787,148.68904789999942,315,45,148.68904789999942,148.68904789999942,148.68904789999942,148.68904789999942,148.68904789999942,148.68904789999942,148.68904789999942,148.68904789999942,148.68904789999942,149.05560049999622,149.05560049999622,149.05560049999622,149.05560049999622,149.05560049999622,149.05560049999622,149.05560049999622,149.05560049999622,149.05560049999622,23,0,,,149.05560049999622,149.26130159999593,1000,149.26130159999593,1000,1000,1000,1000,0,num_3,1.0742840999737382,,21,15,2026-03-02_18h33.28.988,2026A_exp2,2022.2.4,60.14078959628727,
1,0,0.0,0.0,1,0,33,33,59,,,,,150.35675269999774,151.0075638999988,151.0075638999988,151.50871009999537,315,315,151.50871009999537,151.50871009999537,151.50871009999537,151.50871009999537,151.50871009999537,151.50871009999537,151.50871009999537,151.50871009999537,151.50871009999537,151.87517299997853,151.87517299997853,151.87517299997853,151.87517299997853,151.87517299997853,151.87517299997853,151.87517299997853,151.87517299997853,151.87517299997853,23,0,,,151.87517299997853,152.07516009997926,0.0,152.07516009997926,0,0.0,0,1,1000,num_1,0.5412652999802958,,21,15,2026-03-02_18h33.28.988,2026A_exp2,2022.2.4,60.14078959628727,
1,0,3.7,6.1,1,0,34,34,75,,,,,152.64236759999767,153.29322709998814,153.29322709998814,153.77739609999117,315,315,153.77739609999117,153.77739609999117,153.77739609999117,153.77739609999117,153.77739609999117,153.77739609999117,153.77739609999117,153.77739609999117,153.77739609999117,154.14396919999854,154.14396919999854,154.14396919999854,154.14396919999854,154.14396919999854,154.14396919999854,154.14396919999854,154.14396919999854,154.14396919999854,21,1,[0.08519260000321083],[0.11663309999858029],154.14396919999854,154.344154099992,6.1,154.344154099992,1,6.1,1,1,1000,num_4,0.383101399987936,,21,15,2026-03-02_18h33.28.988,2026A_exp2,2022.2.4,60.14078959628727,
0,0,0.0,4.9,1,0,35,35,0,,,,,154.74430999998003,155.3952619000047,155.3952619000047,155.89530099998228,45,45,155.89530099998228,155.89530099998228,155.89530099998228,155.89530099998228,155.89530099998228,155.89530099998228,155.89530099998228,155.89530099998228,155.89530099998228,156.24610599997686,156.24610599997686,156.24610599997686,156.24610599997686,156.24610599997686,156.24610599997686,156.24610599997686,156.24610599997686,156.24610599997686,23,0,,,156.24610599997686,156.44627220000257,0.0,156.44627220000257,0,0.0,0,1,1000,num_1,1.19385740000871,,21,15,2026-03-02_18h33.28.988,2026A_exp2,2022.2.4,60.14078959628727,
1000,1,6.1,4.9,1,0,36,36,86,,,,,157.6640008999966,158.31469979998656,158.31469979998656,158.79931989999022,45,45,158.79931989999022,158.79931989999022,158.79931989999022,158.79931989999022,158.79931989999022,158.79931989999022,158.79931989999022,158.79931989999022,158.79931989999022,159.16571279999334,159.16571279999334,159.16571279999334,159.16571279999334,159.16571279999334,159.16571279999334,159.16571279999334,159.16571279999334,159.16571279999334,9,3,"[0.0011998999980278313, 0.18414719999418594, 0.26705729999230243]","[0.13371900000493042, 0.2170371999964118, 0.33386409998638555]",159.16571279999334,159.36770750000142,1000,159.36770750000142,1000,1000,1000,1000,0,num_3,0.551776999986032,,21,15,2026-03-02_18h33.28.988,2026A_exp2,2022.2.4,60.14078959628727,
1000,1,0.0,0.0,0,0,37,37,79,,,,,159.94962070000474,160.60048219998134,160.60048219998134,161.10158739998587,45,315,161.10158739998587,161.10158739998587,161.10158739998587,161.10158739998587,161.10158739998587,161.10158739998587,161.10158739998587,161.10158739998587,161.10158739998587,161.4678525000054,161.4678525000054,161.4678525000054,161.4678525000054,161.4678525000054,161.4678525000054,161.4678525000054,161.4678525000054,161.4678525000054,23,0,,,161.4678525000054,161.67034989999956,1000,161.67034989999956,1000,1000,1000,1000,1,num_2,0.9453610999917146,,21,15,2026-03-02_18h33.28.988,2026A_exp2,2022.2.4,60.14078959628727,
1,0,3.7,0.0,0,0,38,38,3,,,,,162.63565729997936,163.2863298000011,163.2863298000011,163.78764709999086,315,45,163.78764709999086,163.78764709999086,163.78764709999086,163.78764709999086,163.78764709999086,163.78764709999086,163.78764709999086,163.78764709999086,163.78764709999086,164.15394389998983,164.15394389998983,164.15394389998983,164.15394389998983,164.15394389998983,164.15394389998983,164.15394389998983,164.15394389998983,164.15394389998983,23,0,,,164.15394389998983,164.35422599999583,3.7,164.35422599999583,1,3.7,1,1,1000,num_4,0.5976493000052869,,21,15,2026-03-02_18h33.28.988,2026A_exp2,2022.2.4,60.14078959628727,
1,0,3.7,3.7,0,0,39,39,60,,,,,164.97139890000108,165.6220098999911,165.6220098999911,166.1063574999862,315,45,166.1063574999862,166.1063574999862,166.1063574999862,166.1063574999862,166.1063574999862,166.1063574999862,166.1063574999862,166.1063574999862,166.1063574999862,166.473027,166.473027,166.473027,166.473027,166.473027,166.473027,166.473027,166.473027,166.473027,23,0,,,166.473027,166.6730456999794,3.7,166.6730456999794,1,3.7,1,1,1000,num_4,0.40700399997876957,,21,15,2026-03-02_18h33.28.988,2026A_exp2,2022.2.4,60.14078959628727,
1,0,6.1,6.1,0,0,40,40,89,,,,,167.1068277999875,167.7574582999805,167.7574582999805,168.24194159999024,45,315,168.24194159999024,168.24194159999024,168.24194159999024,168.24194159999024,168.24194159999024,168.24194159999024,168.24194159999024,168.24194159999024,168.24194159999024,168.6084634999861,168.6084634999861,168.6084634999861,168.6084634999861,168.6084634999861,168.6084634999861,168.6084634999861,168.6084634999861,168.6084634999861,23,0,,,168.6084634999861,168.80878739999025,6.1,168.80878739999025,1,6.1,1,1,1000,num_4,0.39081030001398176,,21,15,2026-03-02_18h33.28.988,2026A_exp2,2022.2.4,60.14078959628727,
1,0,0.0,4.9,1,0,41,41,73,,,,,169.2255609999993,169.87633549998282,169.87633549998282,170.36069119998137,315,315,170.36069119998137,170.36069119998137,170.36069119998137,170.36069119998137,170.36069119998137,170.36069119998137,170.36069119998137,170.36069119998137,170.36069119998137,170.72730179998325,170.72730179998325,170.72730179998325,170.72730179998325,170.72730179998325,170.72730179998325,170.72730179998325,170.72730179998325,170.72730179998325,23,0,,,170.72730179998325,170.92749499998172,4.9,170.92749499998172,1,4.9,1,1,1000,num_4,0.4563318999717012,,21,15,2026-03-02_18h33.28.988,2026A_exp2,2022.2.4,60.14078959628727,
1,0,6.1,0.0,0,0,42,42,51,,,,,171.41125959999044,172.06190669999341,172.06190669999341,172.54637480000383,315,315,172.54637480000383,172.54637480000383,172.54637480000383,172.54637480000383,172.54637480000383,172.54637480000383,172.54637480000383,172.54637480000383,172.54637480000383,172.91277019999688,172.91277019999688,172.91277019999688,172.91277019999688,172.91277019999688,172.91277019999688,172.91277019999688,172.91277019999688,172.91277019999688,23,0,,,172.91277019999688,173.11287209999864,6.1,173.11287209999864,1,6.1,1,1,1000,num_4,0.3510195999988355,,21,15,2026-03-02_18h33.28.988,2026A_exp2,2022.2.4,60.14078959628727,
1000,1,6.1,0.0,0,0,43,43,69,,,,,173.4799112000037,174.1306044999801,174.1306044999801,174.61505649998435,315,315,174.61505649998435,174.61505649998435,174.61505649998435,174.61505649998435,174.61505649998435,174.61505649998435,174.61505649998435,174.61505649998435,174.61505649998435,174.98133379998035,174.98133379998035,174.98133379998035,174.98133379998035,174.98133379998035,174.98133379998035,174.98133379998035,174.98133379998035,174.98133379998035,23,0,,,174.98133379998035,175.1838573999994,1000,175.1838573999994,1000,1000,1000,1000,0,num_3,0.6554719999840017,,21,15,2026-03-02_18h33.28.988,2026A_exp2,2022.2.4,60.14078959628727,
1000,1,0.0,3.7,0,0,44,44,50,,,,,175.8654775999894,176.51623499998823,176.51623499998823,177.000729899999,45,45,177.000729899999,177.000729899999,177.000729899999,177.000729899999,177.000729899999,177.000729899999,177.000729899999,177.000729899999,177.000729899999,177.3672249999945,177.3672249999945,177.3672249999945,177.3672249999945,177.3672249999945,177.3672249999945,177.3672249999945,177.3672249999945,177.3672249999945,20,2,"[0.28373789999750443, 0.3171608000120614]","[0.3004903999972157, 0.3506858999899123]",177.3672249999945,177.5696700999979,1000,177.5696700999979,1000,1000,1000,1000,0,num_3,0.709392899996601,,21,15,2026-03-02_18h33.28.988,2026A_exp2,2022.2.4,60.14078959628727,
1,0,0.0,0.0,1,0,45,45,66,,,,,178.30133279997972,178.9521234999993,178.9521234999993,179.43658259999938,315,315,179.43658259999938,179.43658259999938,179.43658259999938,179.43658259999938,179.43658259999938,179.43658259999938,179.43658259999938,179.43658259999938,179.43658259999938,179.8029447000008,179.8029447000008,179.8029447000008,179.8029447000008,179.8029447000008,179.8029447000008,179.8029447000008,179.8029447000008,179.8029447000008,23,0,,,179.8029447000008,180.00312029998167,0.0,180.00312029998167,0,0.0,0,1,1000,num_1,0.6366214999870863,,21,15,2026-03-02_18h33.28.988,2026A_exp2,2022.2.4,60.14078959628727,
0,0,4.9,6.1,1,0,46,46,70,,,,,180.6703414999938,181.32116559997667,181.32116559997667,181.8056016000046,315,315,181.8056016000046,181.8056016000046,181.8056016000046,181.8056016000046,181.8056016000046,181.8056016000046,181.8056016000046,181.8056016000046,181.8056016000046,182.17203200000222,182.17203200000222,182.17203200000222,182.17203200000222,182.17203200000222,182.17203200000222,182.17203200000222,182.17203200000222,182.17203200000222,23,0,,,182.17203200000222,182.3720248999889,4.9,182.3720248999889,1,4.9,1,1,1000,num_4,1.9554417000035755,,21,15,2026-03-02_18h33.28.988,2026A_exp2,2022.2.4,60.14078959628727,
1,0,6.1,0.0,0,0,47,47,77,,,,,184.3574272999831,185.0081569000031,185.0081569000031,185.49266239997814,315,315,185.49266239997814,185.49266239997814,185.49266239997814,185.49266239997814,185.49266239997814,185.49266239997814,185.49266239997814,185.49266239997814,185.49266239997814,185.858897099999,185.858897099999,185.858897099999,185.858897099999,185.858897099999,185.858897099999,185.858897099999,185.858897099999,185.858897099999,6,3,"[0.001231899979757145, 0.1667260999965947, 0.25051369998254813]","[0.13368599998648278, 0.1833590999885928, 0.3672476999927312]",185.858897099999,186.05921929999022,6.1,186.05921929999022,1,6.1,1,1,1000,num_4,0.3797539000224788,,21,15,2026-03-02_18h33.28.988,2026A_exp2,2022.2.4,60.14078959628727,
1,0,0.0,3.7,0,0,48,48,64,,,,,186.45951079999213,187.11030219998793,187.11030219998793,187.5946078999841,45,45,187.5946078999841,187.5946078999841,187.5946078999841,187.5946078999841,187.5946078999841,187.5946078999841,187.5946078999841,187.5946078999841,187.5946078999841,187.96110399998724,187.96110399998724,187.96110399998724,187.96110399998724,187.96110399998724,187.96110399998724,187.96110399998724,187.96110399998724,187.96110399998724,23,0,,,187.96110399998724,188.1613071000029,0.0,188.1613071000029,0,0.0,0,1,1000,num_1,0.6466018999926746,,21,15,2026-03-02_18h33.28.988,2026A_exp2,2022.2.4,60.14078959628727,
1000,1,4.9,3.7,0,0,49,49,40,,,,,188.82870419998653,189.47896869998658,189.47896869998658,189.96382789997733,45,315,189.96382789997733,189.96382789997733,189.96382789997733,189.96382789997733,189.96382789997733,189.96382789997733,189.96382789997733,189.96382789997733,189.96382789997733,190.330097500002,190.330097500002,190.330097500002,190.330097500002,190.330097500002,190.330097500002,190.330097500002,190.330097500002,190.330097500002,23,0,,,190.330097500002,190.5319191000017,1000,190.5319191000017,1000,1000,1000,1000,0,num_3,0.6355158999795094,,21,15,2026-03-02_18h33.28.988,2026A_exp2,2022.2.4,60.14078959628727,
1000,1,3.7,0.0,1,0,50,50,38,,,,,191.19760749998386,191.84841979999328,191.84841979999328,192.3493009999802,315,45,192.3493009999802,192.3493009999802,192.3493009999802,192.3493009999802,192.3493009999802,192.3493009999802,192.3493009999802,192.3493009999802,192.3493009999802,192.71572789998027,192.71572789998027,192.71572789998027,192.71572789998027,192.71572789998027,192.71572789998027,192.71572789998027,192.71572789998027,192.71572789998027,23,0,,,192.71572789998027,192.9180742999888,1000,192.9180742999888,1000,1000,1000,1000,0,num_3,0.46522720000939444,,21,15,2026-03-02_18h33.28.988,2026A_exp2,2022.2.4,60.14078959628727,
1,0,6.1,3.7,1,0,51,51,16,,,,,193.39986340000178,194.05060289998073,194.05060289998073,194.5517201999901,45,45,194.5517201999901,194.5517201999901,194.5517201999901,194.5517201999901,194.5517201999901,194.5517201999901,194.5517201999901,194.5517201999901,194.5517201999901,194.90141479999875,194.90141479999875,194.90141479999875,194.90141479999875,194.90141479999875,194.90141479999875,194.90141479999875,194.90141479999875,194.90141479999875,22,0,,,194.90141479999875,195.10165909997886,3.7,195.11832829998457,0,3.7,1,0,1000,num_1,0.576960100006545,,21,15,2026-03-02_18h33.28.988,2026A_exp2,2022.2.4,60.14078959628727,
1000,1,3.7,0.0,1,0,52,52,19,,,,,195.71876119999797,196.36948799999664,196.36948799999664,196.85402569998405,315,45,196.85402569998405,196.85402569998405,196.85402569998405,196.85402569998405,196.85402569998405,196.85402569998405,196.85402569998405,196.85402569998405,196.85402569998405,197.2204153999919,197.2204153999919,197.2204153999919,197.2204153999919,197.2204153999919,197.2204153999919,197.2204153999919,197.2204153999919,197.2204153999919,23,0,,,197.2204153999919,197.42281200000434,1000,197.42281200000434,1000,1000,1000,1000,0,num_3,0.4891066999989562,,21,15,2026-03-02_18h33.28.988,2026A_exp2,2022.2.4,60.14078959628727,
1,0,0.0,0.0,0,0,53,53,11,,,,,197.93800049999845,198.58839259998058,198.58839259998058,199.072909599985,45,45,199.072909599985,199.072909599985,199.072909599985,199.072909599985,199.072909599985,199.072909599985,199.072909599985,199.072909599985,199.072909599985,199.43922529998235,199.43922529998235,199.43922529998235,199.43922529998235,199.43922529998235,199.43922529998235,199.43922529998235,199.43922529998235,199.43922529998235,23,0,,,199.43922529998235,199.6395566999854,0.0,199.6395566999854,0,0.0,0,1,1000,num_1,0.4479024999891408,,21,15,2026-03-02_18h33.28.988,2026A_exp2,2022.2.4,60.14078959628727,
1000,1,4.9,0.0,1,0,54,54,56,,,,,200.10647420000168,200.7572789999831,200.7572789999831,201.24137859998154,45,45,201.24137859998154,201.24137859998154,201.24137859998154,201.24137859998154,201.24137859998154,201.24137859998154,201.24137859998154,201.24137859998154,201.24137859998154,201.60803020000458,201.60803020000458,201.60803020000458,201.60803020000458,201.60803020000458,201.60803020000458,201.60803020000458,201.60803020000458,201.60803020000458,23,0,,,201.60803020000458,201.81066920000012,1000,201.81066920000012,1000,1000,1000,1000,0,num_3,0.4375497000000905,,21,15,2026-03-02_18h33.28.988,2026A_exp2,2022.2.4,60.14078959628727,
1000,1,0.0,0.0,1,0,55,55,44,,,,,202.2753548999899,202.92602559999796,202.92602559999796,203.42721419999725,45,315,203.42721419999725,203.42721419999725,203.42721419999725,203.42721419999725,203.42721419999725,203.42721419999725,203.42721419999725,203.42721419999725,203.42721419999725,203.77680189997773,203.77680189997773,203.77680189997773,203.77680189997773,203.77680189997773,203.77680189997773,203.77680189997773,203.77680189997773,203.77680189997773,22,0,,,203.77680189997773,203.97817089999444,1000,203.97817089999444,1000,1000,1000,1000,0,num_3,0.9733616999874357,,21,15,2026-03-02_18h33.28.988,2026A_exp2,2022.2.4,60.14078959628727,
1000,1,0.0,3.7,1,0,56,56,67,,,,,204.97808099997928,205.62886919997982,205.62886919997982,206.12997369997902,45,315,206.12997369997902,206.12997369997902,206.12997369997902,206.12997369997902,206.12997369997902,206.12997369997902,206.12997369997902,206.12997369997902,206.12997369997902,206.4795890999958,206.4795890999958,206.4795890999958,206.4795890999958,206.4795890999958,206.4795890999958,206.4795890999958,206.4795890999958,206.4795890999958,9,2,"[0.05017890001181513, 0.13353009999264032]","[0.10027769999578595, 0.2669457999872975]",206.4795890999958,206.6817325000011,1000,206.6965510000009,1000,1000,1000,1000,1,num_2,0.4471819000027608,,21,15,2026-03-02_18h33.28.988,2026A_exp2,2022.2.4,60.14078959628727,
1000,1,0.0,0.0,1,0,57,57,34,,,,,207.16356379998615,207.81423570000334,207.81423570000334,208.31546149999485,315,45,208.31546149999485,208.31546149999485,208.31546149999485,208.31546149999485,208.31546149999485,208.31546149999485,208.31546149999485,208.31546149999485,208.31546149999485,208.6819228999957,208.6819228999957,208.6819228999957,208.6819228999957,208.6819228999957,208.6819228999957,208.6819228999957,208.6819228999957,208.6819228999957,23,0,,,208.6819228999957,208.8827565999818,1000,208.8827565999818,1000,1000,1000,1000,0,num_3,0.5967243000050075,,21,15,2026-03-02_18h33.28.988,2026A_exp2,2022.2.4,60.14078959628727,
0,0,0.0,6.1,1,0,58,58,46,,,,,209.49929769997834,210.15000449999934,210.15000449999934,210.65093979999074,45,45,210.65093979999074,210.65093979999074,210.65093979999074,210.65093979999074,210.65093979999074,210.65093979999074,210.65093979999074,210.65093979999074,210.65093979999074,211.01734589997795,211.01734589997795,211.01734589997795,211.01734589997795,211.01734589997795,211.01734589997795,211.01734589997795,211.01734589997795,211.01734589997795,22,1,[0.3340498000034131],[0.35069120000116527],211.01734589997795,211.2177841999801,0.0,211.2177841999801,0,0.0,0,1,1000,num_1,0.6133245999808423,,21,15,2026-03-02_18h33.28.988,2026A_exp2,2022.2.4,60.14078959628727,
1000,1,0.0,3.7,1,0,59,59,1,,,,,211.85158899999806,212.50237309999648,212.50237309999648,212.98684979998507,45,315,212.98684979998507,212.98684979998507,212.98684979998507,212.98684979998507,212.98684979998507,212.98684979998507,212.98684979998507,212.98684979998507,212.98684979998507,213.35341179999523,213.35341179999523,213.35341179999523,213.35341179999523,213.35341179999523,213.35341179999523,213.35341179999523,213.35341179999523,213.35341179999523,23,0,,,213.35341179999523,213.55555429999367,1000,213.55555429999367,1000,1000,1000,1000,1,num_2,0.7313693999894895,,21,15,2026-03-02_18h33.28.988,2026A_exp2,2022.2.4,60.14078959628727,
0,0,0.0,0.0,1,0,60,60,80,,,,,214.30404059999273,214.9548762999766,214.9548762999766,215.45579290000023,45,315,215.45579290000023,215.45579290000023,215.45579290000023,215.45579290000023,215.45579290000023,215.45579290000023,215.45579290000023,215.45579290000023,215.45579290000023,215.80560639998293,215.80560639998293,215.80560639998293,215.80560639998293,215.80560639998293,215.80560639998293,215.80560639998293,215.80560639998293,215.80560639998293,22,0,,,215.80560639998293,216.00575129999197,0.0,216.00575129999197,0,0.0,0,1,1000,num_1,0.4427203999948688,,21,15,2026-03-02_18h33.28.988,2026A_exp2,2022.2.4,60.14078959628727,
1000,1,4.9,0.0,0,0,61,61,45,,,,,216.4728671000048,217.12362499997835,217.12362499997835,217.60803069997928,45,315,217.60803069997928,217.60803069997928,217.60803069997928,217.60803069997928,217.60803069997928,217.60803069997928,217.60803069997928,217.60803069997928,217.60803069997928,217.9746007999929,217.9746007999929,217.9746007999929,217.9746007999929,217.9746007999929,217.9746007999929,217.9746007999929,217.9746007999929,217.9746007999929,23,0,,,217.9746007999929,218.17629010000383,1000,218.17629010000383,1000,1000,1000,1000,0,num_3,0.40737189998617396,,21,15,2026-03-02_18h33.28.988,2026A_exp2,2022.2.4,60.14078959628727,
1,0,4.9,0.0,0,0,62,62,47,,,,,218.60830269998405,219.25915719999466,219.25915719999466,219.7602680999844,45,45,219.7602680999844,219.7602680999844,219.7602680999844,219.7602680999844,219.7602680999844,219.7602680999844,219.7602680999844,219.7602680999844,219.7602680999844,220.1266442000051,220.1266442000051,220.1266442000051,220.1266442000051,220.1266442000051,220.1266442000051,220.1266442000051,220.1266442000051,220.1266442000051,23,0,,,220.1266442000051,220.32677250000415,4.9,220.32677250000415,1,4.9,1,1,1000,num_4,0.7055064000014681,,21,15,2026-03-02_18h33.28.988,2026A_exp2,2022.2.4,60.14078959628727,
1000,1,3.7,6.1,1,0,63,63,43,,,,,221.06083319999743,221.69482780000544,221.69482780000544,222.19582339999033,45,315,222.19582339999033,222.19582339999033,222.19582339999033,222.19582339999033,222.19582339999033,222.19582339999033,222.19582339999033,222.19582339999033,222.19582339999033,222.56244579999475,222.56244579999475,222.56244579999475,222.56244579999475,222.56244579999475,222.56244579999475,222.56244579999475,222.56244579999475,222.56244579999475,23,0,,,222.56244579999475,222.7643015999929,1000,222.7643015999929,1000,1000,1000,1000,1,num_2,0.6671450999856461,,21,15,2026-03-02_18h33.28.988,2026A_exp2,2022.2.4,60.14078959628727,
0,0,6.1,6.1,1,0,64,64,48,,,,,223.4465333999833,224.0971634000016,224.0971634000016,224.59817699997802,315,45,224.59817699997802,224.59817699997802,224.59817699997802,224.59817699997802,224.59817699997802,224.59817699997802,224.59817699997802,224.59817699997802,224.59817699997802,224.96475439998903,224.96475439998903,224.96475439998903,224.96475439998903,224.96475439998903,224.96475439998903,224.96475439998903,224.96475439998903,224.96475439998903,23,0,,,224.96475439998903,225.1646624999994,6.1,225.1646624999994,1,6.1,1,1,1000,num_4,0.9068021000130102,,21,15,2026-03-02_18h33.28.988,2026A_exp2,2022.2.4,60.14078959628727,
0,0,0.0,4.9,1,0,65,65,33,,,,,226.09902140000486,226.74345559999347,226.74345559999347,227.23437479999848,315,315,227.23437479999848,227.23437479999848,227.23437479999848,227.23437479999848,227.23437479999848,227.23437479999848,227.23437479999848,227.23437479999848,227.23437479999848,227.60066749999532,227.60066749999532,227.60066749999532,227.60066749999532,227.60066749999532,227.60066749999532,227.60066749999532,227.60066749999532,227.60066749999532,23,0,,,227.60066749999532,227.80102089999127,0.0,227.80102089999127,0,0.0,0,1,1000,num_1,0.5902471000154037,,21,15,2026-03-02_18h33.28.988,2026A_exp2,2022.2.4,60.14078959628727,
1,0,4.9,6.1,1,0,66,66,36,,,,,228.41823559999466,229.05229769999278,229.05229769999278,229.55335259999265,45,45,229.55335259999265,229.55335259999265,229.55335259999265,229.55335259999265,229.55335259999265,229.55335259999265,229.55335259999265,229.55335259999265,229.55335259999265,229.91962709999643,229.91962709999643,229.91962709999643,229.91962709999643,229.91962709999643,229.91962709999643,229.91962709999643,229.91962709999643,229.91962709999643,23,0,,,229.91962709999643,230.12003109999932,6.1,230.12003109999932,1,6.1,1,1,1000,num_4,0.47122700000181794,,21,15,2026-03-02_18h33.28.988,2026A_exp2,2022.2.4,60.14078959628727,
1000,1,0.0,0.0,0,0,67,67,2,,,,,230.62031739999657,231.27110549999634,231.27110549999634,231.75546319998102,45,315,231.75546319998102,231.75546319998102,231.75546319998102,231.75546319998102,231.75546319998102,231.75546319998102,231.75546319998102,231.75546319998102,231.75546319998102,232.12193369999295,232.12193369999295,232.12193369999295,232.12193369999295,232.12193369999295,232.12193369999295,232.12193369999295,232.12193369999295,232.12193369999295,23,0,,,232.12193369999295,232.32389840000542,1000,232.32389840000542,1000,1000,1000,1000,0,num_3,0.972096599987708,,21,15,2026-03-02_18h33.28.988,2026A_exp2,2022.2.4,60.14078959628727,
1,0,0.0,0.0,0,0,68,68,6,,,,,233.32317109999713,233.97381669998867,233.97381669998867,234.45803079998586,45,45,234.45803079998586,234.45803079998586,234.45803079998586,234.45803079998586,234.45803079998586,234.45803079998586,234.45803079998586,234.45803079998586,234.45803079998586,234.82463859999552,234.82463859999552,234.82463859999552,234.82463859999552,234.82463859999552,234.82463859999552,234.82463859999552,234.82463859999552,234.82463859999552,23,0,,,234.82463859999552,235.02893919998314,0.0,235.02893919998314,0,0.0,0,1,1000,num_1,0.7707645000191405,,21,15,2026-03-02_18h33.28.988,2026A_exp2,2022.2.4,60.14078959628727,
1,0,4.9,4.9,1,0,69,69,18,,,,,235.82551179997972,236.47625159999006,236.47625159999006,236.96117929997854,315,315,236.96117929997854,236.96117929997854,236.96117929997854,236.96117929997854,236.96117929997854,236.96117929997854,236.96117929997854,236.96117929997854,236.96117929997854,237.32708379998803,237.32708379998803,237.32708379998803,237.32708379998803,237.32708379998803,237.32708379998803,237.32708379998803,237.32708379998803,237.32708379998803,23,0,,,237.32708379998803,237.52738559999852,4.9,237.52738559999852,1,4.9,1,1,1000,num_4,1.0964186000055633,,21,15,2026-03-02_18h33.28.988,2026A_exp2,2022.2.4,60.14078959628727,
1000,1,0.0,6.1,0,0,70,70,27,,,,,238.64517400000477,239.27916789997835,239.27916789997835,239.77999759998056,315,45,239.77999759998056,239.77999759998056,239.77999759998056,239.77999759998056,239.77999759998056,239.77999759998056,239.77999759998056,239.77999759998056,239.77999759998056,240.14659940000274,240.14659940000274,240.14659940000274,240.14659940000274,240.14659940000274,240.14659940000274,240.14659940000274,240.14659940000274,240.14659940000274,23,0,,,240.14659940000274,240.34892719998606,1000,240.34892719998606,1000,1000,1000,1000,1,num_2,0.5714708999730647,,21,15,2026-03-02_18h33.28.988,2026A_exp2,2022.2.4,60.14078959628727,
1000,1,0.0,0.0,1,0,71,71,35,,,,,240.9473814999801,241.59808249998605,241.59808249998605,242.0991156999953,45,45,242.0991156999953,242.0991156999953,242.0991156999953,242.0991156999953,242.0991156999953,242.0991156999953,242.0991156999953,242.0991156999953,242.0991156999953,242.44880589999957,242.44880589999957,242.44880589999957,242.44880589999957,242.44880589999957,242.44880589999957,242.44880589999957,242.44880589999957,242.44880589999957,22,0,,,242.44880589999957,242.6513879999984,1000,242.6513879999984,1000,1000,1000,1000,1,num_2,0.8448441999789793,,21,15,2026-03-02_18h33.28.988,2026A_exp2,2022.2.4,60.14078959628727,
1,0,0.0,0.0,1,0,72,72,4,,,,,243.51659099999233,244.16733880000538,244.16733880000538,244.66837430000305,315,315,244.66837430000305,244.66837430000305,244.66837430000305,244.66837430000305,244.66837430000305,244.66837430000305,244.66837430000305,244.66837430000305,244.66837430000305,245.0181063999771,245.0181063999771,245.0181063999771,245.0181063999771,245.0181063999771,245.0181063999771,245.0181063999771,245.0181063999771,245.0181063999771,22,0,,,245.0181063999771,245.21833949998836,0.0,245.21833949998836,0,0.0,0,1,1000,num_1,0.6371179999841843,,21,15,2026-03-02_18h33.28.988,2026A_exp2,2022.2.4,60.14078959628727,
1000,1,3.7,0.0,1,0,73,73,52,,,,,245.88555409997934,246.5408300999843,246.5408300999843,247.02066719997674,315,315,247.02066719997674,247.02066719997674,247.02066719997674,247.02066719997674,247.02066719997674,247.02066719997674,247.02066719997674,247.02066719997674,247.02066719997674,247.3872713999881,247.3872713999881,247.3872713999881,247.3872713999881,247.3872713999881,247.3872713999881,247.3872713999881,247.3872713999881,247.3872713999881,23,0,,,247.3872713999881,247.58919139998034,1000,247.58919139998034,1000,1000,1000,1000,0,num_3,0.5867318999953568,,21,15,2026-03-02_18h33.28.988,2026A_exp2,2022.2.4,60.14078959628727,
1,0,6.1,6.1,1,0,74,74,49,,,,,248.2046100999869,248.8553966000036,248.8553966000036,249.35625429998618,315,45,249.35625429998618,249.35625429998618,249.35625429998618,249.35625429998618,249.35625429998618,249.35625429998618,249.35625429998618,249.35625429998618,249.35625429998618,249.70627789999708,249.70627789999708,249.70627789999708,249.70627789999708,249.70627789999708,249.70627789999708,249.70627789999708,249.70627789999708,249.70627789999708,22,0,,,249.70627789999708,249.90635939998901,6.1,249.92316249999567,1,6.1,1,1,1000,num_4,0.7399384999880567,,21,15,2026-03-02_18h33.28.988,2026A_exp2,2022.2.4,60.14078959628727,
1000,1,3.7,0.0,0,0,75,75,55,,,,,250.6904258999857,251.3412501999992,251.3412501999992,251.82566829997813,45,315,251.82566829997813,251.82566829997813,251.82566829997813,251.82566829997813,251.82566829997813,251.82566829997813,251.82566829997813,251.82566829997813,251.82566829997813,252.1919756999996,252.1919756999996,252.1919756999996,252.1919756999996,252.1919756999996,252.1919756999996,252.1919756999996,252.1919756999996,252.1919756999996,23,0,,,252.1919756999996,252.39391569999862,1000,252.39391569999862,1000,1000,1000,1000,0,num_3,0.5337508000084199,,21,15,2026-03-02_18h33.28.988,2026A_exp2,2022.2.4,60.14078959628727,
0,0,0.0,0.0,1,0,76,76,14,,,,,252.94266760000028,253.59336519998033,253.59336519998033,254.09442799998214,315,315,254.09442799998214,254.09442799998214,254.09442799998214,254.09442799998214,254.09442799998214,254.09442799998214,254.09442799998214,254.09442799998214,254.09442799998214,254.4609788999951,254.4609788999951,254.4609788999951,254.4609788999951,254.4609788999951,254.4609788999951,254.4609788999951,254.4609788999951,254.4609788999951,23,0,,,254.4609788999951,254.66103709998424,0.0,254.66103709998424,0,0.0,0,1,1000,num_1,0.3701370000198949,,21,15,2026-03-02_18h33.28.988,2026A_exp2,2022.2.4,60.14078959628727,
1000,1,0.0,0.0,1,0,77,77,63,,,,,255.06151390000014,255.71227089999593,255.71227089999593,256.19654859998263,315,315,256.19654859998263,256.19654859998263,256.19654859998263,256.19654859998263,256.19654859998263,256.19654859998263,256.19654859998263,256.19654859998263,256.19654859998263,256.5630200000014,256.5630200000014,256.5630200000014,256.5630200000014,256.5630200000014,256.5630200000014,256.5630200000014,256.5630200000014,256.5630200000014,23,0,,,256.5630200000014,256.7655695999856,1000,256.7655695999856,1000,1000,1000,1000,0,num_3,0.9861846000130754,,21,15,2026-03-02_18h33.28.988,2026A_exp2,2022.2.4,60.14078959628727,
1000,1,3.7,3.7,1,0,78,78,54,,,,,257.7808496999787,258.4314312999777,258.4314312999777,258.93275330000324,45,45,258.93275330000324,258.93275330000324,258.93275330000324,258.93275330000324,258.93275330000324,258.93275330000324,258.93275330000324,258.93275330000324,258.93275330000324,259.29909009998664,259.29909009998664,259.29909009998664,259.29909009998664,259.29909009998664,259.29909009998664,259.29909009998664,259.29909009998664,259.29909009998664,23,0,,,259.29909009998664,259.50162159997853,1000,259.50162159997853,1000,1000,1000,1000,0,num_3,0.4093980999896303,,21,15,2026-03-02_18h33.28.988,2026A_exp2,2022.2.4,60.14078959628727,
1000,1,6.1,6.1,0,0,79,79,87,,,,,259.9327505999827,260.5671084999922,260.5671084999922,261.06806869999855,45,315,261.06806869999855,261.06806869999855,261.06806869999855,261.06806869999855,261.06806869999855,261.06806869999855,261.06806869999855,261.06806869999855,261.06806869999855,261.4346953999775,261.4346953999775,261.4346953999775,261.4346953999775,261.4346953999775,261.4346953999775,261.4346953999775,261.4346953999775,261.4346953999775,23,0,,,261.4346953999775,261.6372333999898,1000,261.6372333999898,1000,1000,1000,1000,0,num_3,0.4020916000008583,,21,15,2026-03-02_18h33.28.988,2026A_exp2,2022.2.4,60.14078959628727,
1,0,0.0,3.7,0,0,80,80,76,,,,,262.0683769999887,262.71924710000167,262.71924710000167,263.2202169999946,315,45,263.2202169999946,263.2202169999946,263.2202169999946,263.2202169999946,263.2202169999946,263.2202169999946,263.2202169999946,263.2202169999946,263.2202169999946,263.57002230000217,263.57002230000217,263.57002230000217,263.57002230000217,263.57002230000217,263.57002230000217,263.57002230000217,263.57002230000217,263.57002230000217,22,0,,,263.57002230000217,263.7703573000035,0.0,263.7703573000035,0,0.0,0,1,1000,num_1,1.1647270000248682,,21,15,2026-03-02_18h33.28.988,2026A_exp2,2022.2.4,60.14078959628727,
1,0,6.1,0.0,1,0,81,81,17,,,,,264.95486759999767,265.60549319998245,265.60549319998245,266.08977510000113,45,315,266.08977510000113,266.08977510000113,266.08977510000113,266.08977510000113,266.08977510000113,266.08977510000113,266.08977510000113,266.08977510000113,266.08977510000113,266.45613799997955,266.45613799997955,266.45613799997955,266.45613799997955,266.45613799997955,266.45613799997955,266.45613799997955,266.45613799997955,266.45613799997955,23,0,,,266.45613799997955,266.6563960999774,0.0,266.6563960999774,0,0.0,0,1,1000,num_1,0.6388889999943785,,21,15,2026-03-02_18h33.28.988,2026A_exp2,2022.2.4,60.14078959628727,
1000,1,0.0,0.0,1,0,82,82,88,,,,,267.3236337999988,267.97441880000406,267.97441880000406,268.45893769999384,315,315,268.45893769999384,268.45893769999384,268.45893769999384,268.45893769999384,268.45893769999384,268.45893769999384,268.45893769999384,268.45893769999384,268.45893769999384,268.8253050999774,268.8253050999774,268.8253050999774,268.8253050999774,268.8253050999774,268.8253050999774,268.8253050999774,268.8253050999774,268.8253050999774,23,0,,,268.8253050999774,269.0275710999849,1000,269.0275710999849,1000,1000,1000,1000,0,num_3,0.8353626000171062,,21,15,2026-03-02_18h33.28.988,2026A_exp2,2022.2.4,60.14078959628727,
1,0,0.0,0.0,0,0,83,83,85,,,,,269.89297639997676,270.54379629998584,270.54379629998584,271.04468110000016,315,315,271.04468110000016,271.04468110000016,271.04468110000016,271.04468110000016,271.04468110000016,271.04468110000016,271.04468110000016,271.04468110000016,271.04468110000016,271.4112234999775,271.4112234999775,271.4112234999775,271.4112234999775,271.4112234999775,271.4112234999775,271.4112234999775,271.4112234999775,271.4112234999775,23,0,,,271.4112234999775,271.6113769999938,0.0,271.6113769999938,0,0.0,0,1,1000,num_1,0.676779900008114,,21,15,2026-03-02_18h33.28.988,2026A_exp2,2022.2.4,60.14078959628727,
0,0,3.7,3.7,1,0,84,84,62,,,,,272.3120864999946,272.9627511999861,272.9627511999861,273.4471750999801,45,45,273.4471750999801,273.4471750999801,273.4471750999801,273.4471750999801,273.4471750999801,273.4471750999801,273.4471750999801,273.4471750999801,273.4471750999801,273.8134055999981,273.8134055999981,273.8134055999981,273.8134055999981,273.8134055999981,273.8134055999981,273.8134055999981,273.8134055999981,273.8134055999981,23,0,,,273.8134055999981,274.0137626999931,3.7,274.0137626999931,1,3.7,1,1,1000,num_4,0.8817217999894638,,21,15,2026-03-02_18h33.28.988,2026A_exp2,2022.2.4,60.14078959628727,
1000,1,0.0,3.7,1,0,85,85,82,,,,,274.9146345999907,275.56540719998884,275.56540719998884,276.0498022999964,45,45,276.0498022999964,276.0498022999964,276.0498022999964,276.0498022999964,276.0498022999964,276.0498022999964,276.0498022999964,276.0498022999964,276.0498022999964,276.41632259998005,276.41632259998005,276.41632259998005,276.41632259998005,276.41632259998005,276.41632259998005,276.41632259998005,276.41632259998005,276.41632259998005,23,0,,,276.41632259998005,276.6180996999901,1000,276.6180996999901,1000,1000,1000,1000,0,num_3,0.7169360999832861,,21,15,2026-03-02_18h33.28.988,2026A_exp2,2022.2.4,60.14078959628727,
1000,1,6.1,0.0,0,0,86,86,21,,,,,277.35047209999175,278.00109380000504,278.00109380000504,278.5023072999902,45,315,278.5023072999902,278.5023072999902,278.5023072999902,278.5023072999902,278.5023072999902,278.5023072999902,278.5023072999902,278.5023072999902,278.5023072999902,278.8686818999995,278.8686818999995,278.8686818999995,278.8686818999995,278.8686818999995,278.8686818999995,278.8686818999995,278.8686818999995,278.8686818999995,23,0,,,278.8686818999995,279.07094000000507,1000,279.07094000000507,1000,1000,1000,1000,0,num_3,0.529175400006352,,21,15,2026-03-02_18h33.28.988,2026A_exp2,2022.2.4,60.14078959628727,
1000,1,4.9,0.0,1,0,87,87,74,,,,,279.6194477999816,280.2701404999825,280.2701404999825,280.77115459999186,45,45,280.77115459999186,280.77115459999186,280.77115459999186,280.77115459999186,280.77115459999186,280.77115459999186,280.77115459999186,280.77115459999186,280.77115459999186,281.12079529999755,281.12079529999755,281.12079529999755,281.12079529999755,281.12079529999755,281.12079529999755,281.12079529999755,281.12079529999755,281.12079529999755,22,0,,,281.12079529999755,281.3231095999945,1000,281.3231095999945,1000,1000,1000,1000,0,num_3,0.40512939999462105,,21,15,2026-03-02_18h33.28.988,2026A_exp2,2022.2.4,60.14078959628727,
1,0,0.0,0.0,0,0,88,88,22,,,,,281.7548264999932,282.405351399997,282.405351399997,282.9066698999959,45,315,282.9066698999959,282.9066698999959,282.9066698999959,282.9066698999959,282.9066698999959,282.9066698999959,282.9066698999959,282.9066698999959,282.9066698999959,283.2562665999867,283.2562665999867,283.2562665999867,283.2562665999867,283.2562665999867,283.2562665999867,283.2562665999867,283.2562665999867,283.2562665999867,22,0,,,283.2562665999867,283.4565908999939,0.0,283.4565908999939,0,0.0,0,1,1000,num_1,0.3833538999897428,,21,15,2026-03-02_18h33.28.988,2026A_exp2,2022.2.4,60.14078959628727,
1000,1,0.0,4.9,1,0,89,89,57,,,,,283.8569072999817,284.5076690999849,284.5076690999849,284.99212189999525,45,315,284.99212189999525,284.99212189999525,284.99212189999525,284.99212189999525,284.99212189999525,284.99212189999525,284.99212189999525,284.99212189999525,284.99212189999525,285.358811299986,285.358811299986,285.358811299986,285.358811299986,285.358811299986,285.358811299986,285.358811299986,285.358811299986,285.358811299986,23,0,,,285.358811299986,285.5603185999789,1000,285.5603185999789,1000,1000,1000,1000,1,num_2,0.5109776000026613,,21,15,2026-03-02_18h33.28.988,2026A_exp2,2022.2.4,60.14078959628727,
,,,,,,,,,,,,,,,,,,,,,,,,,,,,,,,,,,,,,,,,,,,,,,,,,,,,286.10206019997713,,,,,,,
