validity,detectorcomp,contrastCW,contrastCCW,precueCWorCCW,block_80trials.thisRepN,block_80trials.thisTrialN,block_80trials.thisN,block_80trials.thisIndex,etRecord.started,etRecord.stopped,text.started,text.stopped,text_4.started,text_4.stopped,text_6.started,text_6.stopped,oriCW,oriCCW,roi_2.started,grating_UR.started,grating_UL.started,grating_LR.started,grating_LL.started,noise_UR.started,noise_UL.started,noise_LR.started,noise_LL.started,roi_2.stopped,grating_UR.stopped,grating_UL.stopped,grating_LR.stopped,grating_LL.stopped,noise_UR.stopped,noise_UL.stopped,noise_LR.stopped,noise_LL.stopped,outframe,roi_2.numLooks,roi_2.timesOn,roi_2.timesOff,text_2.started,text_2.stopped,probedcontrast,key_resp.started,respdetect,relevantContrast,correctDetect,TorFdetect,respCWorCCW,key_resp.keys,key_resp.rt,feedback_display_.started,participantNo,blockNo,date,expName,psychopyVersion,frameRate,
1000,1,4.9,6.1,0,0,0,0,35,3.610015846788883e-05,3.610015846788883e-05,56.41746810008772,58.419749199878424,58.419749199878424,59.07024700008333,59.07024700008333,59.57250589993782,45,45,59.57250589993782,59.57250589993782,59.57250589993782,59.57250589993782,59.57250589993782,59.57250589993782,59.57250589993782,59.57250589993782,59.57250589993782,59.921029600081965,59.921029600081965,59.921029600081965,59.921029600081965,59.921029600081965,59.921029600081965,59.921029600081965,59.921029600081965,59.921029600081965,23,0,,,59.921029600081965,60.12823879998177,1000,60.12823879998177,1000,1000,1000,1000,1,num_2,1.0989792000036687,,37,6,2026-03-13_17h54.27.364,2026A_exp2,2022.2.4,59.76714720264216,
1000,1,0.0,6.1,1,0,1,1,40,,,,,61.25575829995796,61.906393100041896,61.906393100041896,62.40751709998585,315,315,62.40751709998585,62.40751709998585,62.40751709998585,62.40751709998585,62.40751709998585,62.40751709998585,62.40751709998585,62.40751709998585,62.40751709998585,62.75708510004915,62.75708510004915,62.75708510004915,62.75708510004915,62.75708510004915,62.75708510004915,62.75708510004915,62.75708510004915,62.75708510004915,22,0,,,62.75708510004915,62.95919690001756,1000,62.95919690001756,1000,1000,1000,1000,1,num_2,0.6364976002369076,,37,6,2026-03-13_17h54.27.364,2026A_exp2,2022.2.4,59.76714720264216,
1000,1,6.1,3.7,0,0,2,2,43,,,,,63.62471479992382,64.27530279988423,64.27530279988423,64.77637959993444,315,45,64.77637959993444,64.77637959993444,64.77637959993444,64.77637959993444,64.77637959993444,64.77637959993444,64.77637959993444,64.77637959993444,64.77637959993444,65.1429709000513,65.1429709000513,65.1429709000513,65.1429709000513,65.1429709000513,65.1429709000513,65.1429709000513,65.1429709000513,65.1429709000513,23,0,,,65.1429709000513,65.3446857999079,1000,65.3446857999079,1000,1000,1000,1000,0,num_3,0.4594443002715707,,37,6,2026-03-13_17h54.27.364,2026A_exp2,2022.2.4,59.76714720264216,
1,0,0.0,4.9,1,0,3,3,2,,,,,65.82685790001415,66.47737569990568,66.47737569990568,66.97875660005957,315,315,66.97875660005957,66.97875660005957,66.97875660005957,66.97875660005957,66.97875660005957,66.97875660005957,66.97875660005957,66.97875660005957,66.97875660005957,67.34516249992885,67.34516249992885,67.34516249992885,67.34516249992885,67.34516249992885,67.34516249992885,67.34516249992885,67.34516249992885,67.34516249992885,22,1,[0.30070070014335215],[0.3173394000623375],67.34516249992885,67.54533119988628,4.9,67.54533119988628,1,4.9,1,1,1000,num_4,1.458298500161618,,37,6,2026-03-13_17h54.27.364,2026A_exp2,2022.2.4,59.76714720264216,
1,0,6.1,0.0,1,0,4,4,41,,,,,69.0301296999678,69.68080480000935,69.68080480000935,70.16508199996315,315,315,70.16508199996315,70.16508199996315,70.16508199996315,70.16508199996315,70.16508199996315,70.16508199996315,70.16508199996315,70.16508199996315,70.16508199996315,70.53144819987938,70.53144819987938,70.53144819987938,70.53144819987938,70.53144819987938,70.53144819987938,70.53144819987938,70.53144819987938,70.53144819987938,0,1,[0.0012713000178337097],[0.36705869995057583],70.53144819987938,70.73169460007921,0.0,70.73169460007921,0,0.0,0,1,1000,num_1,0.8801189002115279,,37,6,2026-03-13_17h54.27.364,2026A_exp2,2022.2.4,59.76714720264216,
1000,1,3.7,3.7,1,0,5,5,25,,,,,71.63265709998086,72.28326399996877,72.28326399996877,72.76769590005279,45,45,72.76769590005279,72.76769590005279,72.76769590005279,72.76769590005279,72.76769590005279,72.76769590005279,72.76769590005279,72.76769590005279,72.76769590005279,73.13422330003232,73.13422330003232,73.13422330003232,73.13422330003232,73.13422330003232,73.13422330003232,73.13422330003232,73.13422330003232,73.13422330003232,0,1,[0.0011975998058915138],[0.3671064998488873],73.13422330003232,73.3344739000313,1000,73.3344739000313,1000,1000,1000,1000,1,num_2,0.7657248002942652,,37,6,2026-03-13_17h54.27.364,2026A_exp2,2022.2.4,59.76714720264216,
1,0,6.1,0.0,1,0,6,6,23,,,,,74.11843029991724,74.76893209991977,74.76893209991977,75.27022990002297,315,45,75.27022990002297,75.27022990002297,75.27022990002297,75.27022990002297,75.27022990002297,75.27022990002297,75.27022990002297,75.27022990002297,75.27022990002297,75.63676759996451,75.63676759996451,75.63676759996451,75.63676759996451,75.63676759996451,75.63676759996451,75.63676759996451,75.63676759996451,75.63676759996451,23,0,,,75.63676759996451,75.83699600002728,0.0,75.83699600002728,0,0.0,0,1,1000,num_1,1.094925600104034,,37,6,2026-03-13_17h54.27.364,2026A_exp2,2022.2.4,59.76714720264216,
1000,1,3.7,0.0,0,0,7,7,28,,,,,76.95566540001892,77.60616660001688,77.60616660001688,78.1065152999945,315,315,78.1065152999945,78.1065152999945,78.1065152999945,78.1065152999945,78.1065152999945,78.1065152999945,78.1065152999945,78.1065152999945,78.1065152999945,78.47280910005793,78.47280910005793,78.47280910005793,78.47280910005793,78.47280910005793,78.47280910005793,78.47280910005793,78.47280910005793,78.47280910005793,23,0,,,78.47280910005793,78.67501139990054,1000,78.67501139990054,1000,1000,1000,1000,0,num_3,0.5447138000745326,,37,6,2026-03-13_17h54.27.364,2026A_exp2,2022.2.4,59.76714720264216,
1,0,0.0,4.9,1,0,8,8,44,,,,,79.24184200004674,79.89965240005404,79.89965240005404,80.39336410001852,45,45,80.39336410001852,80.39336410001852,80.39336410001852,80.39336410001852,80.39336410001852,80.39336410001852,80.39336410001852,80.39336410001852,80.39336410001852,80.75854799989611,80.75854799989611,80.75854799989611,80.75854799989611,80.75854799989611,80.75854799989611,80.75854799989611,80.75854799989611,80.75854799989611,23,0,,,80.75854799989611,80.95831650006585,4.9,80.95831650006585,1,4.9,1,1,1000,num_4,0.9089966001920402,,37,6,2026-03-13_17h54.27.364,2026A_exp2,2022.2.4,59.76714720264216,
0,0,0.0,0.0,0,0,9,9,20,,,,,81.89284290000796,82.54360920004547,82.54360920004547,83.0279991000425,45,315,83.0279991000425,83.0279991000425,83.0279991000425,83.0279991000425,83.0279991000425,83.0279991000425,83.0279991000425,83.0279991000425,83.0279991000425,83.39448460005224,83.39448460005224,83.39448460005224,83.39448460005224,83.39448460005224,83.39448460005224,83.39448460005224,83.39448460005224,83.39448460005224,21,2,"[0.10003850003704429, 0.18376200017519295]","[0.11658980022184551, 0.2004427001811564]",83.39448460005224,83.59473929996602,0.0,83.59473929996602,1,0.0,0,0,1000,num_4,1.5844189003109932,,37,6,2026-03-13_17h54.27.364,2026A_exp2,2022.2.4,59.76714720264216,
1000,1,0.0,3.7,0,0,10,10,21,,,,,85.19597520004027,85.84914930001833,85.84914930001833,86.33683919999748,45,315,86.33683919999748,86.33683919999748,86.33683919999748,86.33683919999748,86.33683919999748,86.33683919999748,86.33683919999748,86.33683919999748,86.33683919999748,86.69749270007014,86.69749270007014,86.69749270007014,86.69749270007014,86.69749270007014,86.69749270007014,86.69749270007014,86.69749270007014,86.69749270007014,0,1,[0.002647500019520521],[0.3657759998459369],86.69749270007014,86.90004369989038,1000,86.90004369989038,1000,1000,1000,1000,1,num_2,0.7197883001063019,,37,6,2026-03-13_17h54.27.364,2026A_exp2,2022.2.4,59.76714720264216,
1000,1,4.9,4.9,0,0,11,11,36,,,,,87.64868159987964,88.29928110004403,88.29928110004403,88.8004334999714,315,45,88.8004334999714,88.8004334999714,88.8004334999714,88.8004334999714,88.8004334999714,88.8004334999714,88.8004334999714,88.8004334999714,88.8004334999714,89.16691279993393,89.16691279993393,89.16691279993393,89.16691279993393,89.16691279993393,89.16691279993393,89.16691279993393,89.16691279993393,89.16691279993393,0,1,[0.001331200124695897],[0.3670520999003202],89.16691279993393,89.36725190002471,1000,89.36725190002471,1000,1000,1000,1000,1,num_2,0.900170500157401,,37,6,2026-03-13_17h54.27.364,2026A_exp2,2022.2.4,59.76714720264216,
1,0,4.9,3.7,0,0,12,12,89,,,,,90.28459890000522,90.93534730002284,90.93534730002284,91.43639719998464,45,45,91.43639719998464,91.43639719998464,91.43639719998464,91.43639719998464,91.43639719998464,91.43639719998464,91.43639719998464,91.43639719998464,91.43639719998464,91.8028957999777,91.8028957999777,91.8028957999777,91.8028957999777,91.8028957999777,91.8028957999777,91.8028957999777,91.8028957999777,91.8028957999777,1,2,"[0.001210399903357029, 0.367019800003618]","[0.35030109994113445, 0.36702480004169047]",91.8028957999777,92.00301190000027,4.9,92.00301190000027,1,4.9,1,1,1000,num_4,0.7608314002864063,,37,6,2026-03-13_17h54.27.364,2026A_exp2,2022.2.4,59.76714720264216,
1,0,3.7,6.1,0,0,13,13,74,,,,,92.78706409991719,93.4377806999255,93.4377806999255,93.92217919998802,315,45,93.92217919998802,93.92217919998802,93.92217919998802,93.92217919998802,93.92217919998802,93.92217919998802,93.92217919998802,93.92217919998802,93.92217919998802,94.28870379994623,94.28870379994623,94.28870379994623,94.28870379994623,94.28870379994623,94.28870379994623,94.28870379994623,94.28870379994623,94.28870379994623,9,3,"[0.0013864000793546438, 0.1502582998946309, 0.31709289993159473]","[0.033387899864465, 0.2836976998951286, 0.3669986000750214]",94.28870379994623,94.48885009996593,3.7,94.48885009996593,0,3.7,1,0,1000,num_1,2.379697300028056,,37,6,2026-03-13_17h54.27.364,2026A_exp2,2022.2.4,59.76714720264216,
1,0,0.0,0.0,0,0,14,14,75,,,,,96.89120549988002,97.54197579994798,97.54197579994798,98.02652109996416,45,45,98.02652109996416,98.02652109996416,98.02652109996416,98.02652109996416,98.02652109996416,98.02652109996416,98.02652109996416,98.02652109996416,98.02652109996416,98.39288039994426,98.39288039994426,98.39288039994426,98.39288039994426,98.39288039994426,98.39288039994426,98.39288039994426,98.39288039994426,98.39288039994426,0,1,[0.001182599924504757],[0.36718109995126724],98.39288039994426,98.5930081999395,0.0,98.5930081999395,1,0.0,0,0,1000,num_4,1.9947041999548674,,37,6,2026-03-13_17h54.27.364,2026A_exp2,2022.2.4,59.76714720264216,
1000,1,0.0,3.7,1,0,15,15,81,,,,,100.6115311998874,101.26242749998346,101.26242749998346,101.76339149987325,45,45,101.76339149987325,101.76339149987325,101.76339149987325,101.76339149987325,101.76339149987325,101.76339149987325,101.76339149987325,101.76339149987325,101.76339149987325,102.11317280004732,102.11317280004732,102.11317280004732,102.11317280004732,102.11317280004732,102.11317280004732,102.11317280004732,102.11317280004732,102.11317280004732,22,0,,,102.11317280004732,102.33429399994202,1000,102.33429399994202,1000,1000,1000,1000,1,num_2,0.7013886000495404,,37,6,2026-03-13_17h54.27.364,2026A_exp2,2022.2.4,59.76714720264216,
1000,1,0.0,0.0,1,0,16,16,27,,,,,103.06426870007999,103.71489319996908,103.71489319996908,104.21580559993163,315,315,104.21580559993163,104.21580559993163,104.21580559993163,104.21580559993163,104.21580559993163,104.21580559993163,104.21580559993163,104.21580559993163,104.21580559993163,104.58229809999466,104.58229809999466,104.58229809999466,104.58229809999466,104.58229809999466,104.58229809999466,104.58229809999466,104.58229809999466,104.58229809999466,23,0,,,104.58229809999466,104.7844652000349,1000,104.7844652000349,1000,1000,1000,1000,0,num_3,0.7308430001139641,,37,6,2026-03-13_17h54.27.364,2026A_exp2,2022.2.4,59.76714720264216,
1000,1,0.0,4.9,1,0,17,17,51,,,,,105.5332778999582,106.18391470005736,106.18391470005736,106.6849402000662,45,45,106.6849402000662,106.6849402000662,106.6849402000662,106.6849402000662,106.6849402000662,106.6849402000662,106.6849402000662,106.6849402000662,106.6849402000662,107.0515608000569,107.0515608000569,107.0515608000569,107.0515608000569,107.0515608000569,107.0515608000569,107.0515608000569,107.0515608000569,107.0515608000569,14,2,"[0.18341629998758435, 0.2666668000165373]","[0.25045159994624555, 0.3668684000149369]",107.0515608000569,107.2533972999081,1000,107.2533972999081,1000,1000,1000,1000,1,num_2,1.462058100150898,,37,6,2026-03-13_17h54.27.364,2026A_exp2,2022.2.4,59.76714720264216,
1,0,0.0,0.0,1,0,18,18,77,,,,,108.73642580001615,109.38718579988927,109.38718579988927,109.8881868000608,45,45,109.8881868000608,109.8881868000608,109.8881868000608,109.8881868000608,109.8881868000608,109.8881868000608,109.8881868000608,109.8881868000608,109.8881868000608,110.25468569993973,110.25468569993973,110.25468569993973,110.25468569993973,110.25468569993973,110.25468569993973,110.25468569993973,110.25468569993973,110.25468569993973,0,1,[0.0012481999583542347],[0.36709539988078177],110.25468569993973,110.45489909988828,0.0,110.45489909988828,1,0.0,0,0,1000,num_4,1.4126909002661705,,37,6,2026-03-13_17h54.27.364,2026A_exp2,2022.2.4,59.76714720264216,
1,0,4.9,4.9,1,0,19,19,32,,,,,111.88989780005068,112.54044310003519,112.54044310003519,113.04130159993656,315,45,113.04130159993656,113.04130159993656,113.04130159993656,113.04130159993656,113.04130159993656,113.04130159993656,113.04130159993656,113.04130159993656,113.04130159993656,113.39121129992418,113.39121129992418,113.39121129992418,113.39121129992418,113.39121129992418,113.39121129992418,113.39121129992418,113.39121129992418,113.39121129992418,22,0,,,113.39121129992418,113.59132819995284,4.9,113.59132819995284,1,4.9,1,1,1000,num_4,3.459868400124833,,37,6,2026-03-13_17h54.27.364,2026A_exp2,2022.2.4,59.76714720264216,
1,0,6.1,3.7,0,0,20,20,79,,,,,117.07808679994196,117.72868350008503,117.72868350008503,118.2132953000255,315,45,118.2132953000255,118.2132953000255,118.2132953000255,118.2132953000255,118.2132953000255,118.2132953000255,118.2132953000255,118.2132953000255,118.2132953000255,118.5796890000347,118.5796890000347,118.5796890000347,118.5796890000347,118.5796890000347,118.5796890000347,118.5796890000347,118.5796890000347,118.5796890000347,23,0,,,118.5796890000347,118.7799617999699,6.1,118.7799617999699,1,6.1,1,1,1000,num_4,0.879915300058201,,37,6,2026-03-13_17h54.27.364,2026A_exp2,2022.2.4,59.76714720264216,
1,0,4.9,0.0,0,0,21,21,47,,,,,119.68066220008768,120.33144819992594,120.33144819992594,120.81567130004987,315,45,120.81567130004987,120.81567130004987,120.81567130004987,120.81567130004987,120.81567130004987,120.81567130004987,120.81567130004987,120.81567130004987,120.81567130004987,121.18227049987763,121.18227049987763,121.18227049987763,121.18227049987763,121.18227049987763,121.18227049987763,121.18227049987763,121.18227049987763,121.18227049987763,23,0,,,121.18227049987763,121.38233739999123,4.9,121.38233739999123,1,4.9,1,1,1000,num_4,0.5326705002225935,,37,6,2026-03-13_17h54.27.364,2026A_exp2,2022.2.4,59.76714720264216,
1,0,0.0,0.0,0,0,22,22,87,,,,,121.93283679988235,122.58370799990371,122.58370799990371,123.0681660999544,315,45,123.0681660999544,123.0681660999544,123.0681660999544,123.0681660999544,123.0681660999544,123.0681660999544,123.0681660999544,123.0681660999544,123.0681660999544,123.43452530005015,123.43452530005015,123.43452530005015,123.43452530005015,123.43452530005015,123.43452530005015,123.43452530005015,123.43452530005015,123.43452530005015,23,0,,,123.43452530005015,123.63465079991147,0.0,123.63465079991147,1,0.0,0,0,1000,num_4,0.6893595000728965,,37,6,2026-03-13_17h54.27.364,2026A_exp2,2022.2.4,59.76714720264216,
1,0,4.9,0.0,0,0,23,23,19,,,,,124.35187439993024,125.0027596000582,125.0027596000582,125.48716629995033,315,315,125.48716629995033,125.48716629995033,125.48716629995033,125.48716629995033,125.48716629995033,125.48716629995033,125.48716629995033,125.48716629995033,125.48716629995033,125.85363200004213,125.85363200004213,125.85363200004213,125.85363200004213,125.85363200004213,125.85363200004213,125.85363200004213,125.85363200004213,125.85363200004213,14,4,"[0.001239800127223134, 0.11674510012380779, 0.18360040010884404, 0.2502624001353979]","[0.0666817999444902, 0.15013230009935796, 0.21687040012329817, 0.2669204999692738]",125.85363200004213,126.05379449995235,4.9,126.05379449995235,1,4.9,1,1,1000,num_4,0.5256099998950958,,37,6,2026-03-13_17h54.27.364,2026A_exp2,2022.2.4,59.76714720264216,
1000,1,0.0,3.7,1,0,24,24,7,,,,,126.60418709996156,127.25494179991074,127.25494179991074,127.75602329988033,315,45,127.75602329988033,127.75602329988033,127.75602329988033,127.75602329988033,127.75602329988033,127.75602329988033,127.75602329988033,127.75602329988033,127.75602329988033,128.1057553999126,128.1057553999126,128.1057553999126,128.1057553999126,128.1057553999126,128.1057553999126,128.1057553999126,128.1057553999126,128.1057553999126,22,0,,,128.1057553999126,128.3081326999236,1000,128.3081326999236,1000,1000,1000,1000,1,num_2,0.654948600102216,,37,6,2026-03-13_17h54.27.364,2026A_exp2,2022.2.4,59.76714720264216,
1,0,3.7,3.7,0,0,25,25,69,,,,,128.99015800002962,129.64067610003985,129.64067610003985,130.14186819992028,45,315,130.14186819992028,130.14186819992028,130.14186819992028,130.14186819992028,130.14186819992028,130.14186819992028,130.14186819992028,130.14186819992028,130.14186819992028,130.4914504000917,130.4914504000917,130.4914504000917,130.4914504000917,130.4914504000917,130.4914504000917,130.4914504000917,130.4914504000917,130.4914504000917,22,0,,,130.4914504000917,130.69183490006253,3.7,130.70851720008068,1,3.7,1,1,1000,num_4,0.9273870002944022,,37,6,2026-03-13_17h54.27.364,2026A_exp2,2022.2.4,59.76714720264216,
1000,1,0.0,4.9,0,0,26,26,50,,,,,131.65928909997456,132.30978800007142,132.30978800007142,132.81108830007724,45,45,132.81108830007724,132.81108830007724,132.81108830007724,132.81108830007724,132.81108830007724,132.81108830007724,132.81108830007724,132.81108830007724,132.81108830007724,133.1608851000201,133.1608851000201,133.1608851000201,133.1608851000201,133.1608851000201,133.1608851000201,133.1608851000201,133.1608851000201,133.1608851000201,2,2,"[0.0011995001696050167, 0.30043770000338554]","[0.2669743001461029, 0.3504859001841396]",133.1608851000201,133.36303299991414,1000,133.36303299991414,1000,1000,1000,1000,1,num_2,0.6326006001327187,,37,6,2026-03-13_17h54.27.364,2026A_exp2,2022.2.4,59.76714720264216,
1,0,0.0,0.0,1,0,27,27,42,,,,,134.0116894999519,134.66228799987584,134.66228799987584,135.16341800009832,45,315,135.16341800009832,135.16341800009832,135.16341800009832,135.16341800009832,135.16341800009832,135.16341800009832,135.16341800009832,135.16341800009832,135.16341800009832,135.5299974998925,135.5299974998925,135.5299974998925,135.5299974998925,135.5299974998925,135.5299974998925,135.5299974998925,135.5299974998925,135.5299974998925,22,1,[0.26690779998898506],[0.28370160004124045],135.5299974998925,135.73022989998572,0.0,135.73022989998572,0,0.0,0,1,1000,num_1,0.993770900182426,,37,6,2026-03-13_17h54.27.364,2026A_exp2,2022.2.4,59.76714720264216,
1,0,0.0,6.1,1,0,28,28,39,,,,,136.74775370000862,137.40949480002746,137.40949480002746,137.88731579994783,315,315,137.88731579994783,137.88731579994783,137.88731579994783,137.88731579994783,137.88731579994783,137.88731579994783,137.88731579994783,137.88731579994783,137.88731579994783,138.24901339993812,138.24901339993812,138.24901339993812,138.24901339993812,138.24901339993812,138.24901339993812,138.24901339993812,138.24901339993812,138.24901339993812,13,3,"[0.002359699923545122, 0.08369320002384484, 0.3338567998725921]","[0.050136599922552705, 0.16699719987809658, 0.3672104999423027]",138.24901339993812,138.44956009997986,6.1,138.44956009997986,1,6.1,1,1,1000,num_4,0.9619921001140028,,37,6,2026-03-13_17h54.27.364,2026A_exp2,2022.2.4,59.76714720264216,
1000,1,3.7,0.0,1,0,29,29,54,,,,,139.43424499989487,140.0897337999195,140.0897337999195,140.58974969992414,45,315,140.58974969992414,140.58974969992414,140.58974969992414,140.58974969992414,140.58974969992414,140.58974969992414,140.58974969992414,140.58974969992414,140.58974969992414,140.95208829990588,140.95208829990588,140.95208829990588,140.95208829990588,140.95208829990588,140.95208829990588,140.95208829990588,140.95208829990588,140.95208829990588,18,3,"[0.0502184999641031, 0.1335306998807937, 0.21691110008396208]","[0.06677890010178089, 0.1501704000402242, 0.26604710007086396]",140.95208829990588,141.152117599966,1000,141.152117599966,1000,1000,1000,1000,0,num_3,0.6910176002420485,,37,6,2026-03-13_17h54.27.364,2026A_exp2,2022.2.4,59.76714720264216,
1,0,4.9,0.0,0,0,30,30,57,,,,,141.86924510006793,142.5203267999459,142.5203267999459,143.0214978000149,45,45,143.0214978000149,143.0214978000149,143.0214978000149,143.0214978000149,143.0214978000149,143.0214978000149,143.0214978000149,143.0214978000149,143.0214978000149,143.38772840006277,143.38772840006277,143.38772840006277,143.38772840006277,143.38772840006277,143.38772840006277,143.38772840006277,143.38772840006277,143.38772840006277,0,1,[0.001217300072312355],[0.3670795999933034],143.38772840006277,143.5879285999108,4.9,143.5879285999108,1,4.9,1,1,1000,num_4,0.8721584002487361,,37,6,2026-03-13_17h54.27.364,2026A_exp2,2022.2.4,59.76714720264216,
1,0,0.0,0.0,0,0,31,31,64,,,,,144.4888396000024,145.13955689989962,145.13955689989962,145.6238585000392,315,315,145.6238585000392,145.6238585000392,145.6238585000392,145.6238585000392,145.6238585000392,145.6238585000392,145.6238585000392,145.6238585000392,145.6238585000392,145.99034389993176,145.99034389993176,145.99034389993176,145.99034389993176,145.99034389993176,145.99034389993176,145.99034389993176,145.99034389993176,145.99034389993176,23,0,,,145.99034389993176,146.1905187999364,0.0,146.1905187999364,0,0.0,0,1,1000,num_1,1.1652875002473593,,37,6,2026-03-13_17h54.27.364,2026A_exp2,2022.2.4,59.76714720264216,
1,0,3.7,3.7,1,0,32,32,11,,,,,147.37522970000282,148.00909200008027,148.00909200008027,148.51011450006627,315,315,148.51011450006627,148.51011450006627,148.51011450006627,148.51011450006627,148.51011450006627,148.51011450006627,148.51011450006627,148.51011450006627,148.51011450006627,148.87664730008692,148.87664730008692,148.87664730008692,148.87664730008692,148.87664730008692,148.87664730008692,148.87664730008692,148.87664730008692,148.87664730008692,20,3,"[0.06700590020045638, 0.1503946001175791, 0.20064420020207763]","[0.0838628001511097, 0.18388660019263625, 0.21713170013390481]",148.87664730008692,149.07677980000153,3.7,149.07677980000153,1,3.7,1,1,1000,num_4,1.166783400112763,,37,6,2026-03-13_17h54.27.364,2026A_exp2,2022.2.4,59.76714720264216,
1,0,0.0,0.0,1,0,33,33,66,,,,,150.2633350000251,150.91964019997977,150.91964019997977,151.413084999891,45,315,151.413084999891,151.413084999891,151.413084999891,151.413084999891,151.413084999891,151.413084999891,151.413084999891,151.413084999891,151.413084999891,151.77950479998253,151.77950479998253,151.77950479998253,151.77950479998253,151.77950479998253,151.77950479998253,151.77950479998253,151.77950479998253,151.77950479998253,23,0,,,151.77950479998253,151.9796495998744,0.0,151.9796495998744,0,0.0,0,1,1000,num_1,1.8717383001931012,,37,6,2026-03-13_17h54.27.364,2026A_exp2,2022.2.4,59.76714720264216,
1,0,6.1,0.0,0,0,34,34,22,,,,,153.88182069989853,154.53227439988405,154.53227439988405,155.0166158999782,45,45,155.0166158999782,155.0166158999782,155.0166158999782,155.0166158999782,155.0166158999782,155.0166158999782,155.0166158999782,155.0166158999782,155.0166158999782,155.38302890001796,155.38302890001796,155.38302890001796,155.38302890001796,155.38302890001796,155.38302890001796,155.38302890001796,155.38302890001796,155.38302890001796,23,0,,,155.38302890001796,155.58331130002625,6.1,155.58331130002625,1,6.1,1,1,1000,num_4,0.5571691002696753,,37,6,2026-03-13_17h54.27.364,2026A_exp2,2022.2.4,59.76714720264216,
1,0,0.0,4.9,0,0,35,35,9,,,,,156.1670917000156,156.8176990998909,156.8176990998909,157.30228479998186,45,315,157.30228479998186,157.30228479998186,157.30228479998186,157.30228479998186,157.30228479998186,157.30228479998186,157.30228479998186,157.30228479998186,157.30228479998186,157.66889299987815,157.66889299987815,157.66889299987815,157.66889299987815,157.66889299987815,157.66889299987815,157.66889299987815,157.66889299987815,157.66889299987815,23,0,,,157.66889299987815,157.86910209991038,0.0,157.86910209991038,0,0.0,0,1,1000,num_1,1.0700382001232356,,37,6,2026-03-13_17h54.27.364,2026A_exp2,2022.2.4,59.76714720264216,
1000,1,4.9,6.1,1,0,36,36,4,,,,,158.96992990002036,159.60433249990456,159.60433249990456,160.1051302999258,315,315,160.1051302999258,160.1051302999258,160.1051302999258,160.1051302999258,160.1051302999258,160.1051302999258,160.1051302999258,160.1051302999258,160.1051302999258,160.47149939998053,160.47149939998053,160.47149939998053,160.47149939998053,160.47149939998053,160.47149939998053,160.47149939998053,160.47149939998053,160.47149939998053,22,0,,,160.47149939998053,160.67335089994594,1000,160.67335089994594,1000,1000,1000,1000,1,num_2,0.850348399952054,,37,6,2026-03-13_17h54.27.364,2026A_exp2,2022.2.4,59.76714720264216,
1000,1,0.0,0.0,1,0,37,37,72,,,,,161.53948879987,162.1899007000029,162.1899007000029,162.69090480008163,315,45,162.69090480008163,162.69090480008163,162.69090480008163,162.69090480008163,162.69090480008163,162.69090480008163,162.69090480008163,162.69090480008163,162.69090480008163,163.04082249989733,163.04082249989733,163.04082249989733,163.04082249989733,163.04082249989733,163.04082249989733,163.04082249989733,163.04082249989733,163.04082249989733,22,0,,,163.04082249989733,163.24285509996116,1000,163.24285509996116,1000,1000,1000,1000,0,num_3,1.288872200064361,,37,6,2026-03-13_17h54.27.364,2026A_exp2,2022.2.4,59.76714720264216,
1,0,3.7,4.9,0,0,38,38,70,,,,,164.55891930009238,165.20964629994705,165.20964629994705,165.71057470003143,45,45,165.71057470003143,165.71057470003143,165.71057470003143,165.71057470003143,165.71057470003143,165.71057470003143,165.71057470003143,165.71057470003143,165.71057470003143,166.06040060007945,166.06040060007945,166.06040060007945,166.06040060007945,166.06040060007945,166.06040060007945,166.06040060007945,166.06040060007945,166.06040060007945,0,1,[0.0012199000921100378],[0.3506457998882979],166.06040060007945,166.26070169988088,3.7,166.27733179996721,1,3.7,1,1,1000,num_4,1.9016650998964906,,37,6,2026-03-13_17h54.27.364,2026A_exp2,2022.2.4,59.76714720264216,
1000,1,0.0,0.0,1,0,39,39,8,,,,,168.19616149994545,168.84665609989315,168.84665609989315,169.3475909999106,315,45,169.3475909999106,169.3475909999106,169.3475909999106,169.3475909999106,169.3475909999106,169.3475909999106,169.3475909999106,169.3475909999106,169.3475909999106,169.69742029998451,169.69742029998451,169.69742029998451,169.69742029998451,169.69742029998451,169.69742029998451,169.69742029998451,169.69742029998451,169.69742029998451,3,4,"[0.0012020000722259283, 0.0335899000056088, 0.06718800007365644, 0.16713430010713637]","[0.01727119996212423, 0.05034970003180206, 0.15044190012849867, 0.35051550017669797]",169.69742029998451,169.8977194998879,1000,169.8977194998879,1000,1000,1000,1000,1,num_2,1.8585323002189398,,37,6,2026-03-13_17h54.27.364,2026A_exp2,2022.2.4,59.76714720264216,
1000,1,6.1,0.0,1,0,40,40,61,,,,,171.782758400077,172.43344970000908,172.43344970000908,172.9346113000065,45,45,172.9346113000065,172.9346113000065,172.9346113000065,172.9346113000065,172.9346113000065,172.9346113000065,172.9346113000065,172.9346113000065,172.9346113000065,173.30104879988357,173.30104879988357,173.30104879988357,173.30104879988357,173.30104879988357,173.30104879988357,173.30104879988357,173.30104879988357,173.30104879988357,23,0,,,173.30104879988357,173.50309460004792,1000,173.50309460004792,1000,1000,1000,1000,0,num_3,0.44497250020504,,37,6,2026-03-13_17h54.27.364,2026A_exp2,2022.2.4,59.76714720264216,
1,0,6.1,0.0,0,0,41,41,58,,,,,173.96824189997278,174.61896930006333,174.61896930006333,175.12018930003978,45,315,175.12018930003978,175.12018930003978,175.12018930003978,175.12018930003978,175.12018930003978,175.12018930003978,175.12018930003978,175.12018930003978,175.12018930003978,,,,,,,,,,22,0,,,175.48641890008003,175.68675170000643,6.1,175.68675170000643,1,6.1,1,1,1000,num_4,0.7328156002331525,,37,6,2026-03-13_17h54.27.364,2026A_exp2,2022.2.4,59.76714720264216,
1,0,0.0,3.7,1,0,42,42,83,,,,,176.43731489987113,177.088141300017,177.088141300017,177.57247769995593,315,45,177.57247769995593,177.57247769995593,177.57247769995593,177.57247769995593,177.57247769995593,177.57247769995593,177.57247769995593,177.57247769995593,177.57247769995593,177.9389869000297,177.9389869000297,177.9389869000297,177.9389869000297,177.9389869000297,177.9389869000297,177.9389869000297,177.9389869000297,177.9389869000297,23,0,,,177.9389869000297,178.13909070007503,3.7,178.13909070007503,1,3.7,1,1,1000,num_4,1.3207796001806855,,37,6,2026-03-13_17h54.27.364,2026A_exp2,2022.2.4,59.76714720264216,
1000,1,3.7,3.7,0,0,43,43,76,,,,,179.4903543998953,180.1244868999347,180.1244868999347,180.6256420998834,315,315,180.6256420998834,180.6256420998834,180.6256420998834,180.6256420998834,180.6256420998834,180.6256420998834,180.6256420998834,180.6256420998834,180.6256420998834,180.9920624999795,180.9920624999795,180.9920624999795,180.9920624999795,180.9920624999795,180.9920624999795,180.9920624999795,180.9920624999795,180.9920624999795,23,0,,,180.9920624999795,181.19405409996398,1000,181.19405409996398,1000,1000,1000,1000,1,num_2,2.537480200175196,,37,6,2026-03-13_17h54.27.364,2026A_exp2,2022.2.4,59.76714720264216,
1,0,0.0,6.1,1,0,44,44,17,,,,,183.76148610003293,184.41203300002962,184.41203300002962,184.91329979989678,315,45,184.91329979989678,184.91329979989678,184.91329979989678,184.91329979989678,184.91329979989678,184.91329979989678,184.91329979989678,184.91329979989678,184.91329979989678,185.27978860004805,185.27978860004805,185.27978860004805,185.27978860004805,185.27978860004805,185.27978860004805,185.27978860004805,185.27978860004805,185.27978860004805,23,0,,,185.27978860004805,185.47993119992316,6.1,185.47993119992316,1,6.1,1,1,1000,num_4,0.6358709002379328,,37,6,2026-03-13_17h54.27.364,2026A_exp2,2022.2.4,59.76714720264216,
1,0,0.0,6.1,0,0,45,45,3,,,,,186.14708829997107,186.79765160009265,186.79765160009265,187.28233269997872,315,315,187.28233269997872,187.28233269997872,187.28233269997872,187.28233269997872,187.28233269997872,187.28233269997872,187.28233269997872,187.28233269997872,187.28233269997872,187.6486343999859,187.6486343999859,187.6486343999859,187.6486343999859,187.6486343999859,187.6486343999859,187.6486343999859,187.6486343999859,187.6486343999859,23,0,,,187.6486343999859,187.8488535999786,0.0,187.8488535999786,0,0.0,0,1,1000,num_1,0.9315376002341509,,37,6,2026-03-13_17h54.27.364,2026A_exp2,2022.2.4,59.76714720264216,
0,0,4.9,3.7,1,0,46,46,13,,,,,188.7999193998985,189.43589109997265,189.43589109997265,189.94003490009345,45,45,189.94003490009345,189.94003490009345,189.94003490009345,189.94003490009345,189.94003490009345,189.94003490009345,189.94003490009345,189.94003490009345,189.94003490009345,190.301407400053,190.301407400053,190.301407400053,190.301407400053,190.301407400053,190.301407400053,190.301407400053,190.301407400053,190.301407400053,23,0,,,190.301407400053,190.50157269998454,4.9,190.50157269998454,1,4.9,1,1,1000,num_4,0.7586537001188844,,37,6,2026-03-13_17h54.27.364,2026A_exp2,2022.2.4,59.76714720264216,
1,0,4.9,6.1,1,0,47,47,62,,,,,191.28554650000297,191.93638950004242,191.93638950004242,192.42074389988557,45,315,192.42074389988557,192.42074389988557,192.42074389988557,192.42074389988557,192.42074389988557,192.42074389988557,192.42074389988557,192.42074389988557,192.42074389988557,192.7871733000502,192.7871733000502,192.7871733000502,192.7871733000502,192.7871733000502,192.7871733000502,192.7871733000502,192.7871733000502,192.7871733000502,23,0,,,192.7871733000502,192.9873444000259,6.1,192.9873444000259,1,6.1,1,1,1000,num_4,0.7047500002663583,,37,6,2026-03-13_17h54.27.364,2026A_exp2,2022.2.4,59.76714720264216,
1000,1,6.1,0.0,1,0,48,48,71,,,,,193.7214401999954,194.37215539999306,194.37215539999306,194.85671230009757,315,45,194.85671230009757,194.85671230009757,194.85671230009757,194.85671230009757,194.85671230009757,194.85671230009757,194.85671230009757,194.85671230009757,194.85671230009757,195.22308390005492,195.22308390005492,195.22308390005492,195.22308390005492,195.22308390005492,195.22308390005492,195.22308390005492,195.22308390005492,195.22308390005492,23,0,,,195.22308390005492,195.42482579988427,1000,195.42482579988427,1000,1000,1000,1000,0,num_3,0.5142078001517802,,37,6,2026-03-13_17h54.27.364,2026A_exp2,2022.2.4,59.76714720264216,
1,0,6.1,3.7,1,0,49,49,45,,,,,195.95692420005798,196.60769680002704,196.60769680002704,197.1088374000974,45,315,197.1088374000974,197.1088374000974,197.1088374000974,197.1088374000974,197.1088374000974,197.1088374000974,197.1088374000974,197.1088374000974,197.1088374000974,197.4751981999725,197.4751981999725,197.4751981999725,197.4751981999725,197.4751981999725,197.4751981999725,197.4751981999725,197.4751981999725,197.4751981999725,23,0,,,197.4751981999725,197.67544639995322,3.7,197.67544639995322,1,3.7,1,1,1000,num_4,1.44839149992913,,37,6,2026-03-13_17h54.27.364,2026A_exp2,2022.2.4,59.76714720264216,
1000,1,0.0,0.0,0,0,50,50,33,,,,,199.14340030006133,199.79424279998057,199.79424279998057,200.27867079991847,315,45,200.27867079991847,200.27867079991847,200.27867079991847,200.27867079991847,200.27867079991847,200.27867079991847,200.27867079991847,200.27867079991847,200.27867079991847,200.64503620006144,200.64503620006144,200.64503620006144,200.64503620006144,200.64503620006144,200.64503620006144,200.64503620006144,200.64503620006144,200.64503620006144,23,0,,,200.64503620006144,200.84737879992463,1000,200.84737879992463,1000,1000,1000,1000,0,num_3,0.9487167000770569,,37,6,2026-03-13_17h54.27.364,2026A_exp2,2022.2.4,59.76714720264216,
1000,1,0.0,0.0,1,0,51,51,37,,,,,201.8127591998782,202.4636144998949,202.4636144998949,202.96470679994673,315,315,202.96470679994673,202.96470679994673,202.96470679994673,202.96470679994673,202.96470679994673,202.96470679994673,202.96470679994673,202.96470679994673,202.96470679994673,203.33110739989206,203.33110739989206,203.33110739989206,203.33110739989206,203.33110739989206,203.33110739989206,203.33110739989206,203.33110739989206,203.33110739989206,23,0,,,203.33110739989206,203.53291300009005,1000,203.53291300009005,1000,1000,1000,1000,0,num_3,0.5505368001759052,,37,6,2026-03-13_17h54.27.364,2026A_exp2,2022.2.4,59.76714720264216,
1000,1,4.9,6.1,0,0,52,52,49,,,,,204.09844080009498,204.74912460008636,204.74912460008636,205.25033010006882,45,45,205.25033010006882,205.25033010006882,205.25033010006882,205.25033010006882,205.25033010006882,205.25033010006882,205.25033010006882,205.25033010006882,205.25033010006882,205.61668749991804,205.61668749991804,205.61668749991804,205.61668749991804,205.61668749991804,205.61668749991804,205.61668749991804,205.61668749991804,205.61668749991804,23,0,,,205.61668749991804,205.8187955999747,1000,205.8187955999747,1000,1000,1000,1000,0,num_3,0.585308600217104,,37,6,2026-03-13_17h54.27.364,2026A_exp2,2022.2.4,59.76714720264216,
1000,1,0.0,6.1,0,0,53,53,85,,,,,206.4342372000683,207.0848387000151,207.0848387000151,207.58568560006097,315,45,207.58568560006097,207.58568560006097,207.58568560006097,207.58568560006097,207.58568560006097,207.58568560006097,207.58568560006097,207.58568560006097,207.58568560006097,207.95245340000838,207.95245340000838,207.95245340000838,207.95245340000838,207.95245340000838,207.95245340000838,207.95245340000838,207.95245340000838,207.95245340000838,23,0,,,207.95245340000838,208.15439040004276,1000,208.15439040004276,1000,1000,1000,1000,1,num_2,0.5295947000849992,,37,6,2026-03-13_17h54.27.364,2026A_exp2,2022.2.4,59.76714720264216,
1,0,6.1,0.0,1,0,54,54,53,,,,,208.70291829993948,209.35383399995044,209.35383399995044,209.8549605999142,315,45,209.8549605999142,209.8549605999142,209.8549605999142,209.8549605999142,209.8549605999142,209.8549605999142,209.8549605999142,209.8549605999142,209.8549605999142,210.22123549995013,210.22123549995013,210.22123549995013,210.22123549995013,210.22123549995013,210.22123549995013,210.22123549995013,210.22123549995013,210.22123549995013,23,0,,,210.22123549995013,210.4214423999656,0.0,210.4214423999656,0,0.0,0,1,1000,num_1,1.0376274001318961,,37,6,2026-03-13_17h54.27.364,2026A_exp2,2022.2.4,59.76714720264216,
1000,1,4.9,3.7,1,0,55,55,46,,,,,211.48932679998688,212.13980589993298,212.13980589993298,212.6242774000857,315,45,212.6242774000857,212.6242774000857,212.6242774000857,212.6242774000857,212.6242774000857,212.6242774000857,212.6242774000857,212.6242774000857,212.6242774000857,212.9906754998956,212.9906754998956,212.9906754998956,212.9906754998956,212.9906754998956,212.9906754998956,212.9906754998956,212.9906754998956,212.9906754998956,23,0,,,212.9906754998956,213.19261869997717,1000,213.19261869997717,1000,1000,1000,1000,0,num_3,0.6836966001428664,,37,6,2026-03-13_17h54.27.364,2026A_exp2,2022.2.4,59.76714720264216,
1,0,6.1,0.0,1,0,56,56,29,,,,,213.89165610005148,214.54233470000327,214.54233470000327,215.0433809000533,45,45,215.0433809000533,215.0433809000533,215.0433809000533,215.0433809000533,215.0433809000533,215.0433809000533,215.0433809000533,215.0433809000533,215.0433809000533,215.40982519998215,215.40982519998215,215.40982519998215,215.40982519998215,215.40982519998215,215.40982519998215,215.40982519998215,215.40982519998215,215.40982519998215,23,0,,,215.40982519998215,215.6100526000373,0.0,215.6100526000373,0,0.0,0,1,1000,num_1,0.6970507001969963,,37,6,2026-03-13_17h54.27.364,2026A_exp2,2022.2.4,59.76714720264216,
1000,1,4.9,4.9,0,0,57,57,6,,,,,216.32727880007587,216.97791290003806,216.97791290003806,217.47904690005817,45,315,217.47904690005817,217.47904690005817,217.47904690005817,217.47904690005817,217.47904690005817,217.47904690005817,217.47904690005817,217.47904690005817,217.47904690005817,217.82892849994823,217.82892849994823,217.82892849994823,217.82892849994823,217.82892849994823,217.82892849994823,217.82892849994823,217.82892849994823,217.82892849994823,22,0,,,217.82892849994823,218.0291673000902,1000,218.0291673000902,1000,1000,1000,1000,0,num_3,1.2703497000038624,,37,6,2026-03-13_17h54.27.364,2026A_exp2,2022.2.4,59.76714720264216,
0,0,4.9,6.1,0,0,58,58,1,,,,,219.33034879993647,219.98093220009468,219.98093220009468,220.4819567000959,315,45,220.4819567000959,220.4819567000959,220.4819567000959,220.4819567000959,220.4819567000959,220.4819567000959,220.4819567000959,220.4819567000959,220.4819567000959,220.84845969988964,220.84845969988964,220.84845969988964,220.84845969988964,220.84845969988964,220.84845969988964,220.84845969988964,220.84845969988964,220.84845969988964,23,0,,,220.84845969988964,221.04885130003095,6.1,221.04885130003095,1,6.1,1,1,1000,num_4,0.7311782999895513,,37,6,2026-03-13_17h54.27.364,2026A_exp2,2022.2.4,59.76714720264216,
1,0,3.7,0.0,1,0,59,59,73,,,,,221.79939870000817,222.44981879997067,222.44981879997067,222.93456309987232,45,315,222.93456309987232,222.93456309987232,222.93456309987232,222.93456309987232,222.93456309987232,222.93456309987232,222.93456309987232,222.93456309987232,222.93456309987232,223.30104890000075,223.30104890000075,223.30104890000075,223.30104890000075,223.30104890000075,223.30104890000075,223.30104890000075,223.30104890000075,223.30104890000075,23,0,,,223.30104890000075,223.5011811000295,0.0,223.5011811000295,0,0.0,0,1,1000,num_1,1.1026283001992851,,37,6,2026-03-13_17h54.27.364,2026A_exp2,2022.2.4,59.76714720264216,
0,0,0.0,6.1,0,0,60,60,30,,,,,224.63551960000768,225.28637170000002,225.28637170000002,225.78754159994423,315,315,225.78754159994423,225.78754159994423,225.78754159994423,225.78754159994423,225.78754159994423,225.78754159994423,225.78754159994423,225.78754159994423,225.78754159994423,226.13715859991498,226.13715859991498,226.13715859991498,226.13715859991498,226.13715859991498,226.13715859991498,226.13715859991498,226.13715859991498,226.13715859991498,22,0,,,226.13715859991498,226.3373094999697,6.1,226.3373094999697,1,6.1,1,1,1000,num_4,1.7465117000974715,,37,6,2026-03-13_17h54.27.364,2026A_exp2,2022.2.4,59.76714720264216,
1,0,0.0,0.0,1,0,61,61,56,,,,,228.10587770002894,228.7397578000091,228.7397578000091,229.2408112999983,315,315,229.2408112999983,229.2408112999983,229.2408112999983,229.2408112999983,229.2408112999983,229.2408112999983,229.2408112999983,229.2408112999983,229.2408112999983,229.6072489998769,229.6072489998769,229.6072489998769,229.6072489998769,229.6072489998769,229.6072489998769,229.6072489998769,229.6072489998769,229.6072489998769,23,0,,,229.6072489998769,229.80760649987496,0.0,229.80760649987496,0,0.0,0,1,1000,num_1,2.036014500306919,,37,6,2026-03-13_17h54.27.364,2026A_exp2,2022.2.4,59.76714720264216,
1000,1,0.0,3.7,1,0,62,62,86,,,,,231.8594788000919,232.50988680007868,232.50988680007868,233.0112260999158,45,315,233.0112260999158,233.0112260999158,233.0112260999158,233.0112260999158,233.0112260999158,233.0112260999158,233.0112260999158,233.0112260999158,233.0112260999158,233.3610103998799,233.3610103998799,233.3610103998799,233.3610103998799,233.3610103998799,233.3610103998799,233.3610103998799,233.3610103998799,233.3610103998799,21,1,[0.0011873000767081976],[0.017234599916264415],233.3610103998799,233.56319370004348,1000,233.56319370004348,1000,1000,1000,1000,1,num_2,0.9602368001360446,,37,6,2026-03-13_17h54.27.364,2026A_exp2,2022.2.4,59.76714720264216,
1,0,0.0,0.0,0,0,63,63,31,,,,,234.54544569994323,235.19619749998674,235.19619749998674,235.69715090002865,45,45,235.69715090002865,235.69715090002865,235.69715090002865,235.69715090002865,235.69715090002865,235.69715090002865,235.69715090002865,235.69715090002865,235.69715090002865,236.06348660006188,236.06348660006188,236.06348660006188,236.06348660006188,236.06348660006188,236.06348660006188,236.06348660006188,236.06348660006188,236.06348660006188,23,0,,,236.06348660006188,236.26355380006135,0.0,236.26355380006135,0,0.0,0,1,1000,num_1,3.0037144001107663,,37,6,2026-03-13_17h54.27.364,2026A_exp2,2022.2.4,59.76714720264216,
0,0,3.7,0.0,0,0,64,64,16,,,,,239.2856189000886,239.93437929986976,239.93437929986976,240.43554600002244,315,45,240.43554600002244,240.43554600002244,240.43554600002244,240.43554600002244,240.43554600002244,240.43554600002244,240.43554600002244,240.43554600002244,240.43554600002244,240.801740600029,240.801740600029,240.801740600029,240.801740600029,240.801740600029,240.801740600029,240.801740600029,240.801740600029,240.801740600029,20,3,"[0.11655279994010925, 0.33331090002320707, 0.36640359996818006]","[0.1334410000126809, 0.34983760002069175, 0.36640649987384677]",240.801740600029,241.0019511000719,0.0,241.0019511000719,0,0.0,0,1,1000,num_1,1.0903787000570446,,37,6,2026-03-13_17h54.27.364,2026A_exp2,2022.2.4,59.76714720264216,
0,0,0.0,6.1,1,0,65,65,84,,,,,242.1197202000767,242.77046409994364,242.77046409994364,243.25504660001025,45,315,243.25504660001025,243.25504660001025,243.25504660001025,243.25504660001025,243.25504660001025,243.25504660001025,243.25504660001025,243.25504660001025,243.25504660001025,243.62136549991556,243.62136549991556,243.62136549991556,243.62136549991556,243.62136549991556,243.62136549991556,243.62136549991556,243.62136549991556,243.62136549991556,23,0,,,243.62136549991556,243.821628900012,0.0,243.821628900012,0,0.0,0,1,1000,num_1,1.4533918001689017,,37,6,2026-03-13_17h54.27.364,2026A_exp2,2022.2.4,59.76714720264216,
1,0,4.9,0.0,1,0,66,66,52,,,,,245.30620509991422,245.95708959992044,245.95708959992044,246.44128299993463,45,315,246.44128299993463,246.44128299993463,246.44128299993463,246.44128299993463,246.44128299993463,246.44128299993463,246.44128299993463,246.44128299993463,246.44128299993463,246.80793210002594,246.80793210002594,246.80793210002594,246.80793210002594,246.80793210002594,246.80793210002594,246.80793210002594,246.80793210002594,246.80793210002594,23,0,,,246.80793210002594,247.00781209999695,0.0,247.00781209999695,0,0.0,0,1,1000,num_1,0.5800809999927878,,37,6,2026-03-13_17h54.27.364,2026A_exp2,2022.2.4,59.76714720264216,
0,0,0.0,6.1,0,0,67,67,12,,,,,247.60853599989787,248.25905369990505,248.25905369990505,248.75903839990497,45,45,248.75903839990497,248.75903839990497,248.75903839990497,248.75903839990497,248.75903839990497,248.75903839990497,248.75903839990497,248.75903839990497,248.75903839990497,249.11014409991913,249.11014409991913,249.11014409991913,249.11014409991913,249.11014409991913,249.11014409991913,249.11014409991913,249.11014409991913,249.11014409991913,23,0,,,249.11014409991913,249.3103638999164,6.1,249.3103638999164,1,6.1,1,1,1000,num_4,0.6533150000032037,,37,6,2026-03-13_17h54.27.364,2026A_exp2,2022.2.4,59.76714720264216,
1,0,6.1,4.9,1,0,68,68,38,,,,,249.99432149995118,250.64511659997515,250.64511659997515,251.14605530002154,315,45,251.14605530002154,251.14605530002154,251.14605530002154,251.14605530002154,251.14605530002154,251.14605530002154,251.14605530002154,251.14605530002154,251.14605530002154,251.49592150002718,251.49592150002718,251.49592150002718,251.49592150002718,251.49592150002718,251.49592150002718,251.49592150002718,251.49592150002718,251.49592150002718,22,0,,,251.49592150002718,251.69607249996625,4.9,251.69607249996625,0,4.9,1,0,1000,num_1,1.019947900203988,,37,6,2026-03-13_17h54.27.364,2026A_exp2,2022.2.4,59.76714720264216,
0,0,4.9,4.9,0,0,69,69,88,,,,,252.74738069996238,253.3812470000703,253.3812470000703,253.88225969998166,315,45,253.88225969998166,253.88225969998166,253.88225969998166,253.88225969998166,253.88225969998166,253.88225969998166,253.88225969998166,253.88225969998166,253.88225969998166,254.24871079996228,254.24871079996228,254.24871079996228,254.24871079996228,254.24871079996228,254.24871079996228,254.24871079996228,254.24871079996228,254.24871079996228,23,0,,,254.24871079996228,254.44890419999138,4.9,254.44890419999138,1,4.9,1,1,1000,num_4,1.3862769003026187,,37,6,2026-03-13_17h54.27.364,2026A_exp2,2022.2.4,59.76714720264216,
1,0,0.0,0.0,1,0,70,70,68,,,,,255.8670143999625,256.51757670007646,256.51757670007646,257.00181999988854,45,315,257.00181999988854,257.00181999988854,257.00181999988854,257.00181999988854,257.00181999988854,257.00181999988854,257.00181999988854,257.00181999988854,257.00181999988854,257.3683758000843,257.3683758000843,257.3683758000843,257.3683758000843,257.3683758000843,257.3683758000843,257.3683758000843,257.3683758000843,257.3683758000843,23,0,,,257.3683758000843,257.5683253998868,0.0,257.5683253998868,0,0.0,0,1,1000,num_1,2.0832526001613587,,37,6,2026-03-13_17h54.27.364,2026A_exp2,2022.2.4,59.76714720264216,
1,0,3.7,0.0,0,0,71,71,15,,,,,259.67054499988444,260.3214463999029,260.3214463999029,260.80567730008624,45,45,260.80567730008624,260.80567730008624,260.80567730008624,260.80567730008624,260.80567730008624,260.80567730008624,260.80567730008624,260.80567730008624,260.80567730008624,261.17235839995556,261.17235839995556,261.17235839995556,261.17235839995556,261.17235839995556,261.17235839995556,261.17235839995556,261.17235839995556,261.17235839995556,23,0,,,261.17235839995556,261.37235469999723,3.7,261.37235469999723,1,3.7,1,1,1000,num_4,0.40708610019646585,,37,6,2026-03-13_17h54.27.364,2026A_exp2,2022.2.4,59.76714720264216,
1,0,0.0,0.0,1,0,72,72,60,,,,,261.80764249991626,262.45688409986906,262.45688409986906,262.95785119989887,315,45,262.95785119989887,262.95785119989887,262.95785119989887,262.95785119989887,262.95785119989887,262.95785119989887,262.95785119989887,262.95785119989887,262.95785119989887,263.3243376999162,263.3243376999162,263.3243376999162,263.3243376999162,263.3243376999162,263.3243376999162,263.3243376999162,263.3243376999162,263.3243376999162,23,0,,,263.3243376999162,263.5246466000099,0.0,263.5246466000099,0,0.0,0,1,1000,num_1,0.7436196003109217,,37,6,2026-03-13_17h54.27.364,2026A_exp2,2022.2.4,59.76714720264216,
0,0,3.7,0.0,1,0,73,73,0,,,,,264.2919668999966,264.94256179989316,264.94256179989316,265.4438076999504,45,315,265.4438076999504,265.4438076999504,265.4438076999504,265.4438076999504,265.4438076999504,265.4438076999504,265.4438076999504,265.4438076999504,265.4438076999504,265.79353859997354,265.79353859997354,265.79353859997354,265.79353859997354,265.79353859997354,265.79353859997354,265.79353859997354,265.79353859997354,265.79353859997354,22,0,,,265.79353859997354,265.99368069996126,3.7,265.99368069996126,1,3.7,1,1,1000,num_4,0.4744758000597358,,37,6,2026-03-13_17h54.27.364,2026A_exp2,2022.2.4,59.76714720264216,
1000,1,0.0,0.0,1,0,74,74,63,,,,,266.49410349992104,267.14491609996185,267.14491609996185,267.6461410999764,315,45,267.6461410999764,267.6461410999764,267.6461410999764,267.6461410999764,267.6461410999764,267.6461410999764,267.6461410999764,267.6461410999764,267.6461410999764,267.99570109997876,267.99570109997876,267.99570109997876,267.99570109997876,267.99570109997876,267.99570109997876,267.99570109997876,267.99570109997876,267.99570109997876,7,4,"[0.000710400054231286, 0.08387319999746978, 0.11753870011307299, 0.1842219999525696]","[0.0176103999838233, 0.10071570007130504, 0.1508955000899732, 0.351097600068897]",267.99570109997876,268.19762820005417,1000,268.19762820005417,1000,1000,1000,1000,1,num_2,1.0055867999326438,,37,6,2026-03-13_17h54.27.364,2026A_exp2,2022.2.4,59.76714720264216,
0,0,6.1,0.0,0,0,75,75,65,,,,,269.2300060999114,269.88092259992845,269.88092259992845,270.3820875000674,315,45,270.3820875000674,270.3820875000674,270.3820875000674,270.3820875000674,270.3820875000674,270.3820875000674,270.3820875000674,270.3820875000674,270.3820875000674,270.74849379993975,270.74849379993975,270.74849379993975,270.74849379993975,270.74849379993975,270.74849379993975,270.74849379993975,270.74849379993975,270.74849379993975,17,3,"[0.08356270007789135, 0.1504663999658078, 0.3004914000630379]","[0.13367690006271005, 0.1837324001826346, 0.31713149999268353]",270.74849379993975,270.9486887000967,0.0,270.9486887000967,0,0.0,0,1,1000,num_1,1.1905601001344621,,37,6,2026-03-13_17h54.27.364,2026A_exp2,2022.2.4,59.76714720264216,
1,0,4.9,0.0,0,0,76,76,14,,,,,272.16679889988154,272.82219149987213,272.82219149987213,273.31840380001813,45,315,273.31840380001813,273.31840380001813,273.31840380001813,273.31840380001813,273.31840380001813,273.31840380001813,273.31840380001813,273.31840380001813,273.31840380001813,273.68480829987675,273.68480829987675,273.68480829987675,273.68480829987675,273.68480829987675,273.68480829987675,273.68480829987675,273.68480829987675,273.68480829987675,23,0,,,273.68480829987675,273.88494789996184,4.9,273.88494789996184,1,4.9,1,1,1000,num_4,0.7824009999167174,,37,6,2026-03-13_17h54.27.364,2026A_exp2,2022.2.4,59.76714720264216,
1,0,3.7,0.0,1,0,77,77,55,,,,,274.68546679988503,275.33643819997087,275.33643819997087,275.8206648998894,45,45,275.8206648998894,275.8206648998894,275.8206648998894,275.8206648998894,275.8206648998894,275.8206648998894,275.8206648998894,275.8206648998894,275.8206648998894,276.1872576000169,276.1872576000169,276.1872576000169,276.1872576000169,276.1872576000169,276.1872576000169,276.1872576000169,276.1872576000169,276.1872576000169,23,0,,,276.1872576000169,276.38749239989556,0.0,276.38749239989556,0,0.0,0,1,1000,num_1,1.1843022000975907,,37,6,2026-03-13_17h54.27.364,2026A_exp2,2022.2.4,59.76714720264216,
1000,1,4.9,0.0,0,0,78,78,82,,,,,277.58875119988807,278.23945240001194,278.23945240001194,278.72373860003427,315,45,278.72373860003427,278.72373860003427,278.72373860003427,278.72373860003427,278.72373860003427,278.72373860003427,278.72373860003427,278.72373860003427,278.72373860003427,279.0897901998833,279.0897901998833,279.0897901998833,279.0897901998833,279.0897901998833,279.0897901998833,279.0897901998833,279.0897901998833,279.0897901998833,23,0,,,279.0897901998833,279.2922058000695,1000,279.2922058000695,1000,1000,1000,1000,0,num_3,0.7350550000555813,,37,6,2026-03-13_17h54.27.364,2026A_exp2,2022.2.4,59.76714720264216,
1000,1,4.9,6.1,0,0,79,79,59,,,,,280.05777549999766,280.70840179990046,280.70840179990046,281.20958300004713,315,45,281.20958300004713,281.20958300004713,281.20958300004713,281.20958300004713,281.20958300004713,281.20958300004713,281.20958300004713,281.20958300004713,281.20958300004713,281.5759330999572,281.5759330999572,281.5759330999572,281.5759330999572,281.5759330999572,281.5759330999572,281.5759330999572,281.5759330999572,281.5759330999572,23,0,,,281.5759330999572,281.7778402999975,1000,281.7778402999975,1000,1000,1000,1000,1,num_2,0.5380910001695156,,37,6,2026-03-13_17h54.27.364,2026A_exp2,2022.2.4,59.76714720264216,
1000,1,4.9,3.7,0,0,80,80,26,,,,,282.34334810008295,282.9938264999073,282.9938264999073,283.4952018999029,45,315,283.4952018999029,283.4952018999029,283.4952018999029,283.4952018999029,283.4952018999029,283.4952018999029,283.4952018999029,283.4952018999029,283.4952018999029,283.8616356998682,283.8616356998682,283.8616356998682,283.8616356998682,283.8616356998682,283.8616356998682,283.8616356998682,283.8616356998682,283.8616356998682,23,0,,,283.8616356998682,284.06347759999335,1000,284.06347759999335,1000,1000,1000,1000,1,num_2,0.5885362999979407,,37,6,2026-03-13_17h54.27.364,2026A_exp2,2022.2.4,59.76714720264216,
0,0,0.0,0.0,0,0,81,81,10,,,,,284.6789987999946,285.32968309987336,285.32968309987336,285.83083839993924,45,45,285.83083839993924,285.83083839993924,285.83083839993924,285.83083839993924,285.83083839993924,285.83083839993924,285.83083839993924,285.83083839993924,285.83083839993924,286.1972846998833,286.1972846998833,286.1972846998833,286.1972846998833,286.1972846998833,286.1972846998833,286.1972846998833,286.1972846998833,286.1972846998833,23,0,,,286.1972846998833,286.3977471999824,0.0,286.3977471999824,1,0.0,0,0,1000,num_4,1.2374551000539213,,37,6,2026-03-13_17h54.27.364,2026A_exp2,2022.2.4,59.76714720264216,
1,0,0.0,3.7,0,0,82,82,34,,,,,287.6652760000434,288.3160021000076,288.3160021000076,288.81706149992533,45,315,288.81706149992533,288.81706149992533,288.81706149992533,288.81706149992533,288.81706149992533,288.81706149992533,288.81706149992533,288.81706149992533,288.81706149992533,289.1834672000259,289.1834672000259,289.1834672000259,289.1834672000259,289.1834672000259,289.1834672000259,289.1834672000259,289.1834672000259,289.1834672000259,23,0,,,289.1834672000259,289.3838504999876,0.0,289.3838504999876,0,0.0,0,1,1000,num_1,1.9637079001404345,,37,6,2026-03-13_17h54.27.364,2026A_exp2,2022.2.4,59.76714720264216,
1,0,0.0,0.0,1,0,83,83,24,,,,,291.36886489996687,292.019805500051,292.019805500051,292.5039945000317,45,45,292.5039945000317,292.5039945000317,292.5039945000317,292.5039945000317,292.5039945000317,292.5039945000317,292.5039945000317,292.5039945000317,292.5039945000317,292.87045329995453,292.87045329995453,292.87045329995453,292.87045329995453,292.87045329995453,292.87045329995453,292.87045329995453,292.87045329995453,292.87045329995453,0,1,[0.0012178998440504074],[0.3673586000222713],292.87045329995453,293.0706489000004,0.0,293.0706489000004,1,0.0,0,0,1000,num_4,0.7324867001734674,,37,6,2026-03-13_17h54.27.364,2026A_exp2,2022.2.4,59.76714720264216,
1,0,0.0,4.9,0,0,84,84,48,,,,,293.8213760999497,294.47218209994026,294.47218209994026,294.973418999929,315,45,294.973418999929,294.973418999929,294.973418999929,294.973418999929,294.973418999929,294.973418999929,294.973418999929,294.973418999929,294.973418999929,295.3230592000764,295.3230592000764,295.3230592000764,295.3230592000764,295.3230592000764,295.3230592000764,295.3230592000764,295.3230592000764,295.3230592000764,4,4,"[0.0007378000300377607, 0.1174800000153482, 0.15075369994156063, 0.23450909997336566]","[0.08401719992980361, 0.13423660001717508, 0.20080589991994202, 0.3510823999531567]",295.3230592000764,295.5232428999152,0.0,295.5232428999152,0,0.0,0,1,1000,num_1,1.3768325001001358,,37,6,2026-03-13_17h54.27.364,2026A_exp2,2022.2.4,59.76714720264216,
1000,1,4.9,4.9,1,0,85,85,67,,,,,296.92457060003653,297.575295999879,297.575295999879,298.05972400004975,315,315,298.05972400004975,298.05972400004975,298.05972400004975,298.05972400004975,298.05972400004975,298.05972400004975,298.05972400004975,298.05972400004975,298.05972400004975,298.42612929991446,298.42612929991446,298.42612929991446,298.42612929991446,298.42612929991446,298.42612929991446,298.42612929991446,298.42612929991446,298.42612929991446,23,0,,,298.42612929991446,298.6280718999915,1000,298.6280718999915,1000,1000,1000,1000,0,num_3,0.7197104000952095,,37,6,2026-03-13_17h54.27.364,2026A_exp2,2022.2.4,59.76714720264216,
1000,1,0.0,0.0,1,0,86,86,78,,,,,299.3769133000169,300.0278052999638,300.0278052999638,300.5122384999413,45,45,300.5122384999413,300.5122384999413,300.5122384999413,300.5122384999413,300.5122384999413,300.5122384999413,300.5122384999413,300.5122384999413,300.5122384999413,300.8786472999491,300.8786472999491,300.8786472999491,300.8786472999491,300.8786472999491,300.8786472999491,300.8786472999491,300.8786472999491,300.8786472999491,23,0,,,300.8786472999491,301.08047099993564,1000,301.08047099993564,1000,1000,1000,1000,1,num_2,0.9717763001099229,,37,6,2026-03-13_17h54.27.364,2026A_exp2,2022.2.4,59.76714720264216,
1000,1,0.0,0.0,1,0,87,87,80,,,,,302.0797009000089,302.7305044999812,302.7305044999812,303.231620100094,315,315,303.231620100094,303.231620100094,303.231620100094,303.231620100094,303.231620100094,303.231620100094,303.231620100094,303.231620100094,303.231620100094,303.5978810999077,303.5978810999077,303.5978810999077,303.5978810999077,303.5978810999077,303.5978810999077,303.5978810999077,303.5978810999077,303.5978810999077,22,1,[0.049874700140208006],[0.06697180005721748],303.5978810999077,303.80006500007585,1000,303.80006500007585,1000,1000,1000,1000,0,num_3,0.5237122001126409,,37,6,2026-03-13_17h54.27.364,2026A_exp2,2022.2.4,59.76714720264216,
1000,1,0.0,3.7,0,0,88,88,18,,,,,304.3486669000704,304.99935589986853,304.99935589986853,305.5004245999735,45,315,305.5004245999735,305.5004245999735,305.5004245999735,305.5004245999735,305.5004245999735,305.5004245999735,305.5004245999735,305.5004245999735,305.5004245999735,305.86681919987313,305.86681919987313,305.86681919987313,305.86681919987313,305.86681919987313,305.86681919987313,305.86681919987313,305.86681919987313,305.86681919987313,23,0,,,305.86681919987313,306.06856000004336,1000,306.06856000004336,1000,1000,1000,1000,1,num_2,0.4304869002662599,,37,6,2026-03-13_17h54.27.364,2026A_exp2,2022.2.4,59.76714720264216,
1000,1,0.0,6.1,0,0,89,89,5,,,,,306.5174078999553,307.1682382998988,307.1682382998988,307.669227699982,315,45,307.669227699982,307.669227699982,307.669227699982,307.669227699982,307.669227699982,307.669227699982,307.669227699982,307.669227699982,307.669227699982,308.0357621998992,308.0357621998992,308.0357621998992,308.0357621998992,308.0357621998992,308.0357621998992,308.0357621998992,308.0357621998992,308.0357621998992,23,0,,,308.0357621998992,308.2378398999572,1000,308.2378398999572,1000,1000,1000,1000,1,num_2,0.5252060000784695,,37,6,2026-03-13_17h54.27.364,2026A_exp2,2022.2.4,59.76714720264216,
,,,,,,,,,,,,,,,,,,,,,,,,,,,,,,,,,,,,,,,,,,,,,,,,,,,,308.7969060000032,,,,,,,
