validity,detectorcomp,contrastCW,contrastCCW,precueCWorCCW,block_80trials.thisRepN,block_80trials.thisTrialN,block_80trials.thisN,block_80trials.thisIndex,etRecord.started,etRecord.stopped,text.started,text.stopped,text_4.started,text_4.stopped,text_6.started,text_6.stopped,oriCW,oriCCW,roi_2.started,grating_UR.started,grating_UL.started,grating_LR.started,grating_LL.started,noise_UR.started,noise_UL.started,noise_LR.started,noise_LL.started,roi_2.stopped,grating_UR.stopped,grating_UL.stopped,grating_LR.stopped,grating_LL.stopped,noise_UR.stopped,noise_UL.stopped,noise_LR.stopped,noise_LL.stopped,outframe,roi_2.numLooks,roi_2.timesOn,roi_2.timesOff,text_2.started,text_2.stopped,probedcontrast,key_resp.started,respdetect,relevantContrast,correctDetect,TorFdetect,respCWorCCW,key_resp.keys,key_resp.rt,feedback_display_.started,participantNo,blockNo,date,expName,psychopyVersion,frameRate,
1,0,0.0,6.1,1,0,0,0,31,3.3800024539232254e-05,3.3800024539232254e-05,51.10709400009364,53.109669300029054,53.109669300029054,53.74406880000606,53.74406880000606,54.264487399952486,315,45,54.264487399952486,54.264487399952486,54.264487399952486,54.264487399952486,54.264487399952486,54.264487399952486,54.264487399952486,54.264487399952486,54.264487399952486,54.61163910012692,54.61163910012692,54.61163910012692,54.61163910012692,54.61163910012692,54.61163910012692,54.61163910012692,54.61163910012692,54.61163910012692,0,1,[0.0009566000662744045],[0.36784969992004335],54.61163910012692,54.81174560007639,6.1,54.81174560007639,1,6.1,1,1,1000,num_4,0.6012650998309255,,34,4,2026-03-13_10h27.01.274,2026A_exp2,2022.2.4,59.70448661920867,
1000,1,0.0,0.0,0,0,1,1,5,,,,,55.44548949995078,56.07942209998146,56.07942209998146,56.58067089994438,315,45,56.58067089994438,56.58067089994438,56.58067089994438,56.58067089994438,56.58067089994438,56.58067089994438,56.58067089994438,56.58067089994438,56.58067089994438,56.94710969994776,56.94710969994776,56.94710969994776,56.94710969994776,56.94710969994776,56.94710969994776,56.94710969994776,56.94710969994776,56.94710969994776,0,1,[0.0013526000548154116],[0.3674333000089973],56.94710969994776,57.15264099999331,1000,57.15264099999331,1000,1000,1000,1000,0,num_3,0.7085681997705251,,34,4,2026-03-13_10h27.01.274,2026A_exp2,2022.2.4,59.70448661920867,
1,0,6.1,0.0,1,0,2,2,89,,,,,57.88155340007506,58.53212000010535,58.53212000010535,59.0332541000098,315,45,59.0332541000098,59.0332541000098,59.0332541000098,59.0332541000098,59.0332541000098,59.0332541000098,59.0332541000098,59.0332541000098,59.0332541000098,59.39969850005582,59.39969850005582,59.39969850005582,59.39969850005582,59.39969850005582,59.39969850005582,59.39969850005582,59.39969850005582,59.39969850005582,6,2,"[0.0012910999357700348, 0.15001059998758137]","[0.050102399894967675, 0.3671434000134468]",59.39969850005582,59.59987420006655,0.0,59.59987420006655,0,0.0,0,1,1000,num_1,0.8378355999011546,,34,4,2026-03-13_10h27.01.274,2026A_exp2,2022.2.4,59.70448661920867,
1,0,3.7,0.0,0,0,3,3,87,,,,,60.467459599953145,61.118014900013804,61.118014900013804,61.602478000102565,45,315,61.602478000102565,61.602478000102565,61.602478000102565,61.602478000102565,61.602478000102565,61.602478000102565,61.602478000102565,61.602478000102565,61.602478000102565,61.96862499997951,61.96862499997951,61.96862499997951,61.96862499997951,61.96862499997951,61.96862499997951,61.96862499997951,61.96862499997951,61.96862499997951,0,1,[0.00106120016425848],[0.3666149000637233],61.96862499997951,62.16884750011377,3.7,62.16884750011377,0,3.7,1,0,1000,num_1,0.7963105998933315,,34,4,2026-03-13_10h27.01.274,2026A_exp2,2022.2.4,59.70448661920867,
1000,1,0.0,3.7,1,0,4,4,13,,,,,62.98664749995805,63.63719499995932,63.63719499995932,64.12167369993404,315,315,64.12167369993404,64.12167369993404,64.12167369993404,64.12167369993404,64.12167369993404,64.12167369993404,64.12167369993404,64.12167369993404,64.12167369993404,64.48812839994207,64.48812839994207,64.48812839994207,64.48812839994207,64.48812839994207,64.48812839994207,64.48812839994207,64.48812839994207,64.48812839994207,0,1,[0.0012368999887257814],[0.3673721000086516],64.48812839994207,64.69036320014857,1000,64.69036320014857,1000,1000,1000,1000,1,num_2,0.6348746998701245,,34,4,2026-03-13_10h27.01.274,2026A_exp2,2022.2.4,59.70448661920867,
1000,1,3.7,3.7,0,0,5,5,72,,,,,65.35575350001454,66.00625670002773,66.00625670002773,66.50727390008979,315,315,66.50727390008979,66.50727390008979,66.50727390008979,66.50727390008979,66.50727390008979,66.50727390008979,66.50727390008979,66.50727390008979,66.50727390008979,66.87380920001306,66.87380920001306,66.87380920001306,66.87380920001306,66.87380920001306,66.87380920001306,66.87380920001306,66.87380920001306,66.87380920001306,0,1,[0.0012242000084370375],[0.3671639999374747],66.87380920001306,67.07609979994595,1000,67.07609979994595,1000,1000,1000,1000,0,num_3,0.48954989993944764,,34,4,2026-03-13_10h27.01.274,2026A_exp2,2022.2.4,59.70448661920867,
1000,1,0.0,0.0,1,0,6,6,1,,,,,67.59122289996594,68.24183039995842,68.24183039995842,68.74294130015187,315,45,68.74294130015187,68.74294130015187,68.74294130015187,68.74294130015187,68.74294130015187,68.74294130015187,68.74294130015187,68.74294130015187,68.74294130015187,69.09252800000831,69.09252800000831,69.09252800000831,69.09252800000831,69.09252800000831,69.09252800000831,69.09252800000831,69.09252800000831,69.09252800000831,0,1,[0.0012231001164764166],[0.35047650011256337],69.09252800000831,69.29505429998972,1000,69.29505429998972,1000,1000,1000,1000,1,num_2,0.7186689998488873,,34,4,2026-03-13_10h27.01.274,2026A_exp2,2022.2.4,59.70448661920867,
1,0,6.1,0.0,1,0,7,7,70,,,,,70.04359599994496,70.69432390015572,70.69432390015572,71.19543109997176,45,315,71.19543109997176,71.19543109997176,71.19543109997176,71.19543109997176,71.19543109997176,71.19543109997176,71.19543109997176,71.19543109997176,71.19543109997176,71.5618108001072,71.5618108001072,71.5618108001072,71.5618108001072,71.5618108001072,71.5618108001072,71.5618108001072,71.5618108001072,71.5618108001072,0,1,[0.001211599912494421],[0.3673537999857217],71.5618108001072,71.76213190006092,0.0,71.76213190006092,0,0.0,0,1,1000,num_1,0.5394621999002993,,34,4,2026-03-13_10h27.01.274,2026A_exp2,2022.2.4,59.70448661920867,
1,0,0.0,4.9,0,0,8,8,73,,,,,72.32910470012575,72.97988310013898,72.97988310013898,73.46420900011435,45,315,73.46420900011435,73.46420900011435,73.46420900011435,73.46420900011435,73.46420900011435,73.46420900011435,73.46420900011435,73.46420900011435,73.46420900011435,73.8307926999405,73.8307926999405,73.8307926999405,73.8307926999405,73.8307926999405,73.8307926999405,73.8307926999405,73.8307926999405,73.8307926999405,0,1,[0.0012982001062482595],[0.36742500006221235],73.8307926999405,74.03061440004967,0.0,74.03061440004967,0,0.0,0,1,1000,num_1,0.7911806998308748,,34,4,2026-03-13_10h27.01.274,2026A_exp2,2022.2.4,59.70448661920867,
1,0,0.0,4.9,0,0,9,9,3,,,,,74.84820140013471,75.49913519993424,75.49913519993424,75.98335370002314,45,45,75.98335370002314,75.98335370002314,75.98335370002314,75.98335370002314,75.98335370002314,75.98335370002314,75.98335370002314,75.98335370002314,75.98335370002314,76.35001190006733,76.35001190006733,76.35001190006733,76.35001190006733,76.35001190006733,76.35001190006733,76.35001190006733,76.35001190006733,76.35001190006733,0,1,[0.0011761998757719994],[0.36685059987939894],76.35001190006733,76.55019890004769,0.0,76.55019890004769,0,0.0,0,1,1000,num_1,0.5827182999346405,,34,4,2026-03-13_10h27.01.274,2026A_exp2,2022.2.4,59.70448661920867,
1000,1,0.0,0.0,0,0,10,10,17,,,,,77.1506187999621,77.80141950002871,77.80141950002871,78.28568130009808,315,315,78.28568130009808,78.28568130009808,78.28568130009808,78.28568130009808,78.28568130009808,78.28568130009808,78.28568130009808,78.28568130009808,78.28568130009808,78.65220610005781,78.65220610005781,78.65220610005781,78.65220610005781,78.65220610005781,78.65220610005781,78.65220610005781,78.65220610005781,78.65220610005781,0,1,[0.0012076001148670912],[0.3671466000378132],78.65220610005781,78.85429970012046,1000,78.85429970012046,1000,1000,1000,1000,0,num_3,0.6156731997616589,,34,4,2026-03-13_10h27.01.274,2026A_exp2,2022.2.4,59.70448661920867,
0,0,0.0,0.0,0,0,11,11,59,,,,,79.48626210005023,80.13704179995693,80.13704179995693,80.63809909997508,45,315,80.63809909997508,80.63809909997508,80.63809909997508,80.63809909997508,80.63809909997508,80.63809909997508,80.63809909997508,80.63809909997508,80.63809909997508,81.00459449994378,81.00459449994378,81.00459449994378,81.00459449994378,81.00459449994378,81.00459449994378,81.00459449994378,81.00459449994378,81.00459449994378,0,1,[0.0012252000160515308],[0.36710990010760725],81.00459449994378,81.20467859995551,0.0,81.20467859995551,1,0.0,0,0,1000,num_4,0.6648176999296993,,34,4,2026-03-13_10h27.01.274,2026A_exp2,2022.2.4,59.70448661920867,
1000,1,4.9,3.7,0,0,12,12,40,,,,,81.8887317001354,82.53946220013313,82.53946220013313,83.02378359995782,315,315,83.02378359995782,83.02378359995782,83.02378359995782,83.02378359995782,83.02378359995782,83.02378359995782,83.02378359995782,83.02378359995782,83.02378359995782,83.39039389998652,83.39039389998652,83.39039389998652,83.39039389998652,83.39039389998652,83.39039389998652,83.39039389998652,83.39039389998652,83.39039389998652,0,1,[0.0012571997940540314],[0.36714329989627004],83.39039389998652,83.59248910006136,1000,83.59248910006136,1000,1000,1000,1000,0,num_3,0.5085205000359565,,34,4,2026-03-13_10h27.01.274,2026A_exp2,2022.2.4,59.70448661920867,
1000,1,0.0,0.0,0,0,13,13,15,,,,,84.12482769996859,84.77504560002126,84.77504560002126,85.25936920009553,45,315,85.25936920009553,85.25936920009553,85.25936920009553,85.25936920009553,85.25936920009553,85.25936920009553,85.25936920009553,85.25936920009553,85.25936920009553,85.62561390013434,85.62561390013434,85.62561390013434,85.62561390013434,85.62561390013434,85.62561390013434,85.62561390013434,85.62561390013434,85.62561390013434,0,1,[0.0012391998898237944],[0.3667484000325203],85.62561390013434,85.82804249995388,1000,85.82804249995388,1000,1000,1000,1000,1,num_2,0.7298239998053759,,34,4,2026-03-13_10h27.01.274,2026A_exp2,2022.2.4,59.70448661920867,
1000,1,6.1,0.0,1,0,14,14,57,,,,,86.57669560005888,87.22748730005696,87.22748730005696,87.72867860016413,315,45,87.72867860016413,87.72867860016413,87.72867860016413,87.72867860016413,87.72867860016413,87.72867860016413,87.72867860016413,87.72867860016413,87.72867860016413,88.09504640009254,88.09504640009254,88.09504640009254,88.09504640009254,88.09504640009254,88.09504640009254,88.09504640009254,88.09504640009254,88.09504640009254,0,1,[0.0012479000724852085],[0.36701299995183945],88.09504640009254,88.29690210008994,1000,88.29690210008994,1000,1000,1000,1000,0,num_3,0.5081050998996943,,34,4,2026-03-13_10h27.01.274,2026A_exp2,2022.2.4,59.70448661920867,
1,0,0.0,0.0,0,0,15,15,79,,,,,88.82897950010374,89.47977780015208,89.47977780015208,89.98072250001132,315,45,89.98072250001132,89.98072250001132,89.98072250001132,89.98072250001132,89.98072250001132,89.98072250001132,89.98072250001132,89.98072250001132,89.98072250001132,90.34728600014932,90.34728600014932,90.34728600014932,90.34728600014932,90.34728600014932,90.34728600014932,90.34728600014932,90.34728600014932,90.34728600014932,0,1,[0.0008286999072879553],[0.3676072999369353],90.34728600014932,90.54758400004357,0.0,90.54758400004357,0,0.0,0,1,1000,num_1,0.5852963998913765,,34,4,2026-03-13_10h27.01.274,2026A_exp2,2022.2.4,59.70448661920867,
1000,1,6.1,6.1,0,0,16,16,16,,,,,91.16479930002242,91.81547309993766,91.81547309993766,92.29967570002191,45,45,92.29967570002191,92.29967570002191,92.29967570002191,92.29967570002191,92.29967570002191,92.29967570002191,92.29967570002191,92.29967570002191,92.29967570002191,92.66875650011934,92.66875650011934,92.66875650011934,92.66875650011934,92.66875650011934,92.66875650011934,92.66875650011934,92.66875650011934,92.66875650011934,0,1,[0.001235299976542592],[0.3667965999338776],92.66875650011934,92.88474430004135,1000,92.88474430004135,1000,1000,1000,1000,1,num_2,0.6328614999074489,,34,4,2026-03-13_10h27.01.274,2026A_exp2,2022.2.4,59.70448661920867,
1000,1,0.0,0.0,0,0,17,17,86,,,,,93.53363670012914,94.18442460009828,94.18442460009828,94.6686805000063,315,315,94.6686805000063,94.6686805000063,94.6686805000063,94.6686805000063,94.6686805000063,94.6686805000063,94.6686805000063,94.6686805000063,94.6686805000063,95.03532709996216,95.03532709996216,95.03532709996216,95.03532709996216,95.03532709996216,95.03532709996216,95.03532709996216,95.03532709996216,95.03532709996216,0,1,[0.0012740998063236475],[0.3671996998600662],95.03532709996216,95.23763350001536,1000,95.23763350001536,1000,1000,1000,1000,0,num_3,0.4879183997400105,,34,4,2026-03-13_10h27.01.274,2026A_exp2,2022.2.4,59.70448661920867,
1000,1,3.7,4.9,0,0,18,18,45,,,,,95.75287840003148,96.40323220007122,96.40323220007122,96.88758260011673,45,315,96.88758260011673,96.88758260011673,96.88758260011673,96.88758260011673,96.88758260011673,96.88758260011673,96.88758260011673,96.88758260011673,96.88758260011673,97.25434410013258,97.25434410013258,97.25434410013258,97.25434410013258,97.25434410013258,97.25434410013258,97.25434410013258,97.25434410013258,97.25434410013258,0,1,[0.0010828999802470207],[0.36720569990575314],97.25434410013258,97.45410380000249,1000,97.45410380000249,1000,1000,1000,1000,1,num_2,0.535093599697575,,34,4,2026-03-13_10h27.01.274,2026A_exp2,2022.2.4,59.70448661920867,
1,0,0.0,3.7,1,0,19,19,35,,,,,98.00497100013308,98.65564270014875,98.65564270014875,99.14005769998766,45,45,99.14005769998766,99.14005769998766,99.14005769998766,99.14005769998766,99.14005769998766,99.14005769998766,99.14005769998766,99.14005769998766,99.14005769998766,99.50639869994484,99.50639869994484,99.50639869994484,99.50639869994484,99.50639869994484,99.50639869994484,99.50639869994484,99.50639869994484,99.50639869994484,0,1,[0.001249199965968728],[0.36715509998612106],99.50639869994484,99.70668980013579,3.7,99.70668980013579,1,3.7,1,1,1000,num_4,0.8275689000729471,,34,4,2026-03-13_10h27.01.274,2026A_exp2,2022.2.4,59.70448661920867,
1000,1,0.0,6.1,1,0,20,20,43,,,,,100.5574448001571,101.20943240006454,101.20943240006454,101.69259819993749,45,315,101.69259819993749,101.69259819993749,101.69259819993749,101.69259819993749,101.69259819993749,101.69259819993749,101.69259819993749,101.69259819993749,101.69259819993749,102.05902420007624,102.05902420007624,102.05902420007624,102.05902420007624,102.05902420007624,102.05902420007624,102.05902420007624,102.05902420007624,102.05902420007624,0,1,[0.0014587000478059053],[0.366827700054273],102.05902420007624,102.2607867999468,1000,102.2607867999468,1000,1000,1000,1000,1,num_2,0.6009541999083012,,34,4,2026-03-13_10h27.01.274,2026A_exp2,2022.2.4,59.70448661920867,
1000,1,6.1,0.0,1,0,21,21,25,,,,,102.87634990015067,103.52703430014662,103.52703430014662,104.02812810009345,315,315,104.02812810009345,104.02812810009345,104.02812810009345,104.02812810009345,104.02812810009345,104.02812810009345,104.02812810009345,104.02812810009345,104.02812810009345,104.3946869999636,104.3946869999636,104.3946869999636,104.3946869999636,104.3946869999636,104.3946869999636,104.3946869999636,104.3946869999636,104.3946869999636,0,1,[0.0013785997871309519],[0.36722419993020594],104.3946869999636,104.59480670001358,1000,104.59480670001358,1000,1000,1000,1000,0,num_3,0.4507072998676449,,34,4,2026-03-13_10h27.01.274,2026A_exp2,2022.2.4,59.70448661920867,
0,0,0.0,0.0,1,0,22,22,2,,,,,105.06194970011711,105.71475120005198,105.71475120005198,106.2137649001088,45,315,106.2137649001088,106.2137649001088,106.2137649001088,106.2137649001088,106.2137649001088,106.2137649001088,106.2137649001088,106.2137649001088,106.2137649001088,106.58010750007816,106.58010750007816,106.58010750007816,106.58010750007816,106.58010750007816,106.58010750007816,106.58010750007816,106.58010750007816,106.58010750007816,0,1,[0.0013003000058233738],[0.3672432000748813],106.58010750007816,106.78038730006665,0.0,106.78038730006665,0,0.0,0,1,1000,num_1,0.42498419992625713,,34,4,2026-03-13_10h27.01.274,2026A_exp2,2022.2.4,59.70448661920867,
0,0,6.1,0.0,0,0,23,23,74,,,,,107.23084580013528,107.88133820006624,107.88133820006624,108.36583700007759,315,315,108.36583700007759,108.36583700007759,108.36583700007759,108.36583700007759,108.36583700007759,108.36583700007759,108.36583700007759,108.36583700007759,108.36583700007759,108.73218729998916,108.73218729998916,108.73218729998916,108.73218729998916,108.73218729998916,108.73218729998916,108.73218729998916,108.73218729998916,108.73218729998916,0,1,[0.001239999895915389],[0.36680499999783933],108.73218729998916,108.93248450011015,0.0,108.93248450011015,0,0.0,0,1,1000,num_1,0.6003861997742206,,34,4,2026-03-13_10h27.01.274,2026A_exp2,2022.2.4,59.70448661920867,
1,0,0.0,3.7,1,0,24,24,14,,,,,109.54967120010406,110.20038300007582,110.20038300007582,110.68488770001568,45,45,110.68488770001568,110.68488770001568,110.68488770001568,110.68488770001568,110.68488770001568,110.68488770001568,110.68488770001568,110.68488770001568,110.68488770001568,111.0513554001227,111.0513554001227,111.0513554001227,111.0513554001227,111.0513554001227,111.0513554001227,111.0513554001227,111.0513554001227,111.0513554001227,0,1,[0.001247999956831336],[0.3672901999671012],111.0513554001227,111.25140070007183,3.7,111.25140070007183,0,3.7,1,0,1000,num_1,0.5546466999221593,,34,4,2026-03-13_10h27.01.274,2026A_exp2,2022.2.4,59.70448661920867,
1,0,3.7,4.9,1,0,25,25,18,,,,,111.83533050003462,112.48610200011171,112.48610200011171,112.97046030010097,315,315,112.97046030010097,112.97046030010097,112.97046030010097,112.97046030010097,112.97046030010097,112.97046030010097,112.97046030010097,112.97046030010097,112.97046030010097,113.33670049998909,113.33670049998909,113.33670049998909,113.33670049998909,113.33670049998909,113.33670049998909,113.33670049998909,113.33670049998909,113.33670049998909,0,1,[0.0010209998581558466],[0.3672187998890877],113.33670049998909,113.53708179993555,4.9,113.53708179993555,1,4.9,1,1,1000,num_4,0.8931906998623163,,34,4,2026-03-13_10h27.01.274,2026A_exp2,2022.2.4,59.70448661920867,
0,0,0.0,3.7,0,0,26,26,34,,,,,114.45459190011024,115.10538670001552,115.10538670001552,115.60650090011768,45,315,115.60650090011768,115.60650090011768,115.60650090011768,115.60650090011768,115.60650090011768,115.60650090011768,115.60650090011768,115.60650090011768,115.60650090011768,115.95635080011562,115.95635080011562,115.95635080011562,115.95635080011562,115.95635080011562,115.95635080011562,115.95635080011562,115.95635080011562,115.95635080011562,0,1,[0.0012081998866051435],[0.3502680999226868],115.95635080011562,116.15637500002049,3.7,116.17314620013349,0,3.7,1,0,1000,num_1,0.5048834998160601,,34,4,2026-03-13_10h27.01.274,2026A_exp2,2022.2.4,59.70448661920867,
1,0,6.1,0.0,0,0,27,27,47,,,,,116.7068755000364,117.35769460001029,117.35769460001029,117.8420661999844,315,315,117.8420661999844,117.8420661999844,117.8420661999844,117.8420661999844,117.8420661999844,117.8420661999844,117.8420661999844,117.8420661999844,117.8420661999844,118.2084936001338,118.2084936001338,118.2084936001338,118.2084936001338,118.2084936001338,118.2084936001338,118.2084936001338,118.2084936001338,118.2084936001338,0,1,[0.001232100185006857],[0.3672265000641346],118.2084936001338,118.40852800011635,6.1,118.40852800011635,1,6.1,1,1,1000,num_4,0.9487785997334868,,34,4,2026-03-13_10h27.01.274,2026A_exp2,2022.2.4,59.70448661920867,
1,0,0.0,6.1,1,0,28,28,50,,,,,119.37619550013915,120.02691210014746,120.02691210014746,120.51141900010407,45,45,120.51141900010407,120.51141900010407,120.51141900010407,120.51141900010407,120.51141900010407,120.51141900010407,120.51141900010407,120.51141900010407,120.51141900010407,120.87769220001064,120.87769220001064,120.87769220001064,120.87769220001064,120.87769220001064,120.87769220001064,120.87769220001064,120.87769220001064,120.87769220001064,0,1,[0.001228200038895011],[0.3672221000306308],120.87769220001064,121.0780627001077,6.1,121.0780627001077,1,6.1,1,1,1000,num_4,0.6634772999677807,,34,4,2026-03-13_10h27.01.274,2026A_exp2,2022.2.4,59.70448661920867,
1,0,6.1,3.7,1,0,29,29,51,,,,,121.76182710006833,122.4125262000598,122.4125262000598,122.89702289993875,45,45,122.89702289993875,122.89702289993875,122.89702289993875,122.89702289993875,122.89702289993875,122.89702289993875,122.89702289993875,122.89702289993875,122.89702289993875,123.26341280015185,123.26341280015185,123.26341280015185,123.26341280015185,123.26341280015185,123.26341280015185,123.26341280015185,123.26341280015185,123.26341280015185,23,0,,,123.26341280015185,123.46379579999484,3.7,123.46379579999484,0,3.7,1,0,1000,num_1,0.5181901997420937,,34,4,2026-03-13_10h27.01.274,2026A_exp2,2022.2.4,59.70448661920867,
1000,1,0.0,3.7,1,0,30,30,84,,,,,124.01435120007955,124.66487760003656,124.66487760003656,125.14940940006636,315,315,125.14940940006636,125.14940940006636,125.14940940006636,125.14940940006636,125.14940940006636,125.14940940006636,125.14940940006636,125.14940940006636,125.14940940006636,125.51583879999816,125.51583879999816,125.51583879999816,125.51583879999816,125.51583879999816,125.51583879999816,125.51583879999816,125.51583879999816,125.51583879999816,19,2,"[0.2001949001569301, 0.2669438000302762]","[0.2335155000910163, 0.3002826999872923]",125.51583879999816,125.71774860005826,1000,125.71774860005826,1000,1000,1000,1000,0,num_3,0.6392713999375701,,34,4,2026-03-13_10h27.01.274,2026A_exp2,2022.2.4,59.70448661920867,
0,0,6.1,4.9,0,0,31,31,22,,,,,126.38311840011738,127.0338194000069,127.0338194000069,127.53525750013068,45,45,127.53525750013068,127.53525750013068,127.53525750013068,127.53525750013068,127.53525750013068,127.53525750013068,127.53525750013068,127.53525750013068,127.53525750013068,127.90208819997497,127.90208819997497,127.90208819997497,127.90208819997497,127.90208819997497,127.90208819997497,127.90208819997497,127.90208819997497,127.90208819997497,23,0,,,127.90208819997497,128.10173010011204,4.9,128.10173010011204,0,4.9,1,0,1000,num_1,0.5675711999647319,,34,4,2026-03-13_10h27.01.274,2026A_exp2,2022.2.4,59.70448661920867,
1000,1,0.0,4.9,0,0,32,32,26,,,,,128.68546420009807,129.33616019994952,129.33616019994952,129.8206204001326,45,315,129.8206204001326,129.8206204001326,129.8206204001326,129.8206204001326,129.8206204001326,129.8206204001326,129.8206204001326,129.8206204001326,129.8206204001326,130.1870669000782,130.1870669000782,130.1870669000782,130.1870669000782,130.1870669000782,130.1870669000782,130.1870669000782,130.1870669000782,130.1870669000782,23,0,,,130.1870669000782,130.38959900010377,1000,130.38959900010377,1000,1000,1000,1000,1,num_2,0.5995939997956157,,34,4,2026-03-13_10h27.01.274,2026A_exp2,2022.2.4,59.70448661920867,
0,0,4.9,3.7,0,0,33,33,28,,,,,131.00456880009733,131.65526699996553,131.65526699996553,132.15629489999264,315,315,132.15629489999264,132.15629489999264,132.15629489999264,132.15629489999264,132.15629489999264,132.15629489999264,132.15629489999264,132.15629489999264,132.15629489999264,132.522675300017,132.522675300017,132.522675300017,132.522675300017,132.522675300017,132.522675300017,132.522675300017,132.522675300017,132.522675300017,0,1,[0.001276700058951974],[0.3671626001596451],132.522675300017,132.7230335001368,3.7,132.7230335001368,0,3.7,1,0,1000,num_1,0.5703644999302924,,34,4,2026-03-13_10h27.01.274,2026A_exp2,2022.2.4,59.70448661920867,
1000,1,0.0,0.0,1,0,34,34,78,,,,,133.32348160003312,133.97410530014895,133.97410530014895,134.47535099997185,315,315,134.47535099997185,134.47535099997185,134.47535099997185,134.47535099997185,134.47535099997185,134.47535099997185,134.47535099997185,134.47535099997185,134.47535099997185,134.84173570014536,134.84173570014536,134.84173570014536,134.84173570014536,134.84173570014536,134.84173570014536,134.84173570014536,134.84173570014536,134.84173570014536,0,1,[0.00120749999769032],[0.367248099995777],134.84173570014536,135.04396579996683,1000,135.04396579996683,1000,1000,1000,1000,1,num_2,0.8969167999457568,,34,4,2026-03-13_10h27.01.274,2026A_exp2,2022.2.4,59.70448661920867,
1000,1,0.0,4.9,0,0,35,35,60,,,,,135.95934830000624,136.6100663000252,136.6100663000252,137.11133070010692,315,45,137.11133070010692,137.11133070010692,137.11133070010692,137.11133070010692,137.11133070010692,137.11133070010692,137.11133070010692,137.11133070010692,137.11133070010692,137.477761000162,137.477761000162,137.477761000162,137.477761000162,137.477761000162,137.477761000162,137.477761000162,137.477761000162,137.477761000162,9,2,"[0.017447900027036667, 0.18358660000376403]","[0.050216800067573786, 0.36730449995957315]",137.477761000162,137.68002009997144,1000,137.68002009997144,1000,1000,1000,1000,1,num_2,0.5255807999055833,,34,4,2026-03-13_10h27.01.274,2026A_exp2,2022.2.4,59.70448661920867,
1,0,0.0,0.0,1,0,36,36,39,,,,,138.2283824000042,138.87918599997647,138.87918599997647,139.38013639999554,45,45,139.38013639999554,139.38013639999554,139.38013639999554,139.38013639999554,139.38013639999554,139.38013639999554,139.38013639999554,139.38013639999554,139.38013639999554,139.74671340011992,139.74671340011992,139.74671340011992,139.74671340011992,139.74671340011992,139.74671340011992,139.74671340011992,139.74671340011992,139.74671340011992,0,1,[0.0012163000646978617],[0.3671617000363767],139.74671340011992,139.9469032001216,0.0,139.9469032001216,0,0.0,0,1,1000,num_1,0.6113699998240918,,34,4,2026-03-13_10h27.01.274,2026A_exp2,2022.2.4,59.70448661920867,
1,0,0.0,0.0,0,0,37,37,24,,,,,140.58064360008575,141.2314985000994,141.2314985000994,141.715830600122,45,315,141.715830600122,141.715830600122,141.715830600122,141.715830600122,141.715830600122,141.715830600122,141.715830600122,141.715830600122,141.715830600122,142.0822203999851,142.0822203999851,142.0822203999851,142.0822203999851,142.0822203999851,142.0822203999851,142.0822203999851,142.0822203999851,142.0822203999851,0,1,[0.0012076999992132187],[0.36715589999221265],142.0822203999851,142.28239890001714,0.0,142.28239890001714,0,0.0,0,1,1000,num_1,0.7951608998700976,,34,4,2026-03-13_10h27.01.274,2026A_exp2,2022.2.4,59.70448661920867,
1,0,4.9,0.0,0,0,38,38,53,,,,,143.09987749997526,143.7507406999357,143.7507406999357,144.23501690011472,315,45,144.23501690011472,144.23501690011472,144.23501690011472,144.23501690011472,144.23501690011472,144.23501690011472,144.23501690011472,144.23501690011472,144.23501690011472,144.60150550003164,144.60150550003164,144.60150550003164,144.60150550003164,144.60150550003164,144.60150550003164,144.60150550003164,144.60150550003164,144.60150550003164,0,1,[0.0012636000756174326],[0.36709109996445477],144.60150550003164,144.80176710011438,4.9,144.80176710011438,0,4.9,1,0,1000,num_1,0.6118007998447865,,34,4,2026-03-13_10h27.01.274,2026A_exp2,2022.2.4,59.70448661920867,
1000,1,0.0,0.0,1,0,39,39,85,,,,,145.43563920003362,146.08604630012996,146.08604630012996,146.57078610011376,315,315,146.57078610011376,146.57078610011376,146.57078610011376,146.57078610011376,146.57078610011376,146.57078610011376,146.57078610011376,146.57078610011376,146.57078610011376,146.93715350003913,146.93715350003913,146.93715350003913,146.93715350003913,146.93715350003913,146.93715350003913,146.93715350003913,146.93715350003913,146.93715350003913,0,1,[0.0012036999687552452],[0.3672984999138862],146.93715350003913,147.13939930009656,1000,147.13939930009656,1000,1000,1000,1000,1,num_2,0.6740255998447537,,34,4,2026-03-13_10h27.01.274,2026A_exp2,2022.2.4,59.70448661920867,
1,0,3.7,6.1,0,0,40,40,52,,,,,147.83797150012106,148.48876910004765,148.48876910004765,148.98975410009734,315,315,148.98975410009734,148.98975410009734,148.98975410009734,148.98975410009734,148.98975410009734,148.98975410009734,148.98975410009734,148.98975410009734,148.98975410009734,149.3561619000975,149.3561619000975,149.3561619000975,149.3561619000975,149.3561619000975,149.3561619000975,149.3561619000975,149.3561619000975,149.3561619000975,0,1,[0.001299499999731779],[0.367098200134933],149.3561619000975,149.55637070001103,3.7,149.55637070001103,0,3.7,1,0,1000,num_1,0.6327615999616683,,34,4,2026-03-13_10h27.01.274,2026A_exp2,2022.2.4,59.70448661920867,
1,0,6.1,4.9,1,0,41,41,11,,,,,150.20695529994555,150.85786290001124,150.85786290001124,151.34224990010262,45,45,151.34224990010262,151.34224990010262,151.34224990010262,151.34224990010262,151.34224990010262,151.34224990010262,151.34224990010262,151.34224990010262,151.34224990010262,151.70853760000318,151.70853760000318,151.70853760000318,151.70853760000318,151.70853760000318,151.70853760000318,151.70853760000318,151.70853760000318,151.70853760000318,11,3,"[0.001246799947693944, 0.14988659997470677, 0.3672317999880761]","[0.13357269996777177, 0.20043230010196567, 0.367236299905926]",151.70853760000318,151.90886750002392,4.9,151.90886750002392,0,4.9,1,0,1000,num_1,1.2564598000608385,,34,4,2026-03-13_10h27.01.274,2026A_exp2,2022.2.4,59.70448661920867,
1000,1,0.0,6.1,1,0,42,42,71,,,,,153.1933941000607,153.84401630004868,153.84401630004868,154.32844280009158,315,45,154.32844280009158,154.32844280009158,154.32844280009158,154.32844280009158,154.32844280009158,154.32844280009158,154.32844280009158,154.32844280009158,154.32844280009158,154.69499420002103,154.69499420002103,154.69499420002103,154.69499420002103,154.69499420002103,154.69499420002103,154.69499420002103,154.69499420002103,154.69499420002103,0,1,[0.0012110001407563686],[0.3672243000473827],154.69499420002103,154.897506600013,1000,154.897506600013,1000,1000,1000,1000,1,num_2,0.5722857997752726,,34,4,2026-03-13_10h27.01.274,2026A_exp2,2022.2.4,59.70448661920867,
1000,1,0.0,3.7,0,0,43,43,46,,,,,155.49576710001566,156.1461765000131,156.1461765000131,156.64760369993746,45,45,156.64760369993746,156.64760369993746,156.64760369993746,156.64760369993746,156.64760369993746,156.64760369993746,156.64760369993746,156.64760369993746,156.64760369993746,157.01395189994946,157.01395189994946,157.01395189994946,157.01395189994946,157.01395189994946,157.01395189994946,157.01395189994946,157.01395189994946,157.01395189994946,0,1,[0.0012626000680029392],[0.3670433000661433],157.01395189994946,157.2142076001037,1000,157.2142076001037,1000,1000,1000,1000,1,num_2,0.5432374000083655,,34,4,2026-03-13_10h27.01.274,2026A_exp2,2022.2.4,59.70448661920867,
1,0,6.1,0.0,1,0,44,44,80,,,,,157.78137400001287,158.41531329997815,158.41531329997815,158.91641029994935,45,315,158.91641029994935,158.91641029994935,158.91641029994935,158.91641029994935,158.91641029994935,158.91641029994935,158.91641029994935,158.91641029994935,158.91641029994935,159.2828633999452,159.2828633999452,159.2828633999452,159.2828633999452,159.2828633999452,159.2828633999452,159.2828633999452,159.2828633999452,159.2828633999452,12,2,"[0.16700679995119572, 0.21717129996977746]","[0.1838735998608172, 0.3676551999524236]",159.2828633999452,159.48302899999544,0.0,159.48302899999544,1,0.0,0,0,1000,num_4,0.8660926998127252,,34,4,2026-03-13_10h27.01.274,2026A_exp2,2022.2.4,59.70448661920867,
1,0,0.0,0.0,0,0,45,45,88,,,,,160.36713739996776,161.01790820015594,161.01790820015594,161.5023988999892,315,45,161.5023988999892,161.5023988999892,161.5023988999892,161.5023988999892,161.5023988999892,161.5023988999892,161.5023988999892,161.5023988999892,161.5023988999892,161.86875739996321,161.86875739996321,161.86875739996321,161.86875739996321,161.86875739996321,161.86875739996321,161.86875739996321,161.86875739996321,161.86875739996321,2,2,"[0.001238000113517046, 0.333803900051862]","[0.3170702001079917, 0.3670822000131011]",161.86875739996321,162.0689997000154,0.0,162.0689997000154,0,0.0,0,1,1000,num_1,0.592649299884215,,34,4,2026-03-13_10h27.01.274,2026A_exp2,2022.2.4,59.70448661920867,
1,0,0.0,0.0,1,0,46,46,69,,,,,162.68591160001233,163.33695470006205,163.33695470006205,163.82125649997033,45,315,163.82125649997033,163.82125649997033,163.82125649997033,163.82125649997033,163.82125649997033,163.82125649997033,163.82125649997033,163.82125649997033,163.82125649997033,164.18776679993607,164.18776679993607,164.18776679993607,164.18776679993607,164.18776679993607,164.18776679993607,164.18776679993607,164.18776679993607,164.18776679993607,23,0,,,164.18776679993607,164.3879579999484,0.0,164.3879579999484,0,0.0,0,1,1000,num_1,1.0492528998292983,,34,4,2026-03-13_10h27.01.274,2026A_exp2,2022.2.4,59.70448661920867,
0,0,3.7,0.0,0,0,47,47,62,,,,,165.4555283000227,166.10640270006843,166.10640270006843,166.59076849999838,315,315,166.59076849999838,166.59076849999838,166.59076849999838,166.59076849999838,166.59076849999838,166.59076849999838,166.59076849999838,166.59076849999838,166.59076849999838,166.95708240009844,166.95708240009844,166.95708240009844,166.95708240009844,166.95708240009844,166.95708240009844,166.95708240009844,166.95708240009844,166.95708240009844,0,1,[0.001587199978530407],[0.36722259991802275],166.95708240009844,167.15740379993804,0.0,167.15740379993804,0,0.0,0,1,1000,num_1,0.6959389999974519,,34,4,2026-03-13_10h27.01.274,2026A_exp2,2022.2.4,59.70448661920867,
1000,1,6.1,0.0,0,0,48,48,81,,,,,167.87457540002652,168.52549290005118,168.52549290005118,169.00976489996538,315,315,169.00976489996538,169.00976489996538,169.00976489996538,169.00976489996538,169.00976489996538,169.00976489996538,169.00976489996538,169.00976489996538,169.00976489996538,169.37629449996166,169.37629449996166,169.37629449996166,169.37629449996166,169.37629449996166,169.37629449996166,169.37629449996166,169.37629449996166,169.37629449996166,23,0,,,169.37629449996166,169.57879110006616,1000,169.57879110006616,1000,1000,1000,1000,1,num_2,0.7629331999924034,,34,4,2026-03-13_10h27.01.274,2026A_exp2,2022.2.4,59.70448661920867,
1000,1,3.7,6.1,1,0,49,49,58,,,,,170.3604493001476,171.01122190011665,171.01122190011665,171.51246550003998,45,315,171.51246550003998,171.51246550003998,171.51246550003998,171.51246550003998,171.51246550003998,171.51246550003998,171.51246550003998,171.51246550003998,171.51246550003998,171.87860099994577,171.87860099994577,171.87860099994577,171.87860099994577,171.87860099994577,171.87860099994577,171.87860099994577,171.87860099994577,171.87860099994577,0,1,[0.001297699986025691],[0.36677080020308495],171.87860099994577,172.0809816000983,1000,172.0809816000983,1000,1000,1000,1000,1,num_2,0.6840518999379128,,34,4,2026-03-13_10h27.01.274,2026A_exp2,2022.2.4,59.70448661920867,
1000,1,3.7,0.0,1,0,50,50,38,,,,,172.79650950012729,173.44702820014209,173.44702820014209,173.94802370015532,315,45,173.94802370015532,173.94802370015532,173.94802370015532,173.94802370015532,173.94802370015532,173.94802370015532,173.94802370015532,173.94802370015532,173.94802370015532,174.3144273001235,174.3144273001235,174.3144273001235,174.3144273001235,174.3144273001235,174.3144273001235,174.3144273001235,174.3144273001235,174.3144273001235,2,3,"[0.0011856998316943645, 0.10031609982252121, 0.2170215998776257]","[0.08344519999809563, 0.2004183998797089, 0.3671179998200387]",174.3144273001235,174.5167011001613,1000,174.5167011001613,1000,1000,1000,1000,0,num_3,0.5682486998848617,,34,4,2026-03-13_10h27.01.274,2026A_exp2,2022.2.4,59.70448661920867,
1000,1,6.1,6.1,1,0,51,51,8,,,,,175.11557990009896,175.76609080005437,175.76609080005437,176.2505012000911,45,315,176.2505012000911,176.2505012000911,176.2505012000911,176.2505012000911,176.2505012000911,176.2505012000911,176.2505012000911,176.2505012000911,176.2505012000911,176.61711320001632,176.61711320001632,176.61711320001632,176.61711320001632,176.61711320001632,176.61711320001632,176.61711320001632,176.61711320001632,176.61711320001632,13,1,[0.0010712998919188976],[0.1670779997948557],176.61711320001632,176.81931530009024,1000,176.81931530009024,1000,1000,1000,1000,1,num_2,0.8016473997849971,,34,4,2026-03-13_10h27.01.274,2026A_exp2,2022.2.4,59.70448661920867,
1,0,0.0,6.1,1,0,52,52,33,,,,,177.6514525001403,178.30187120009214,178.30187120009214,178.7862509000115,315,45,178.7862509000115,178.7862509000115,178.7862509000115,178.7862509000115,178.7862509000115,178.7862509000115,178.7862509000115,178.7862509000115,178.7862509000115,179.1526685000863,179.1526685000863,179.1526685000863,179.1526685000863,179.1526685000863,179.1526685000863,179.1526685000863,179.1526685000863,179.1526685000863,0,1,[0.0012495999690145254],[0.36727400007657707],179.1526685000863,179.352887700079,6.1,179.352887700079,0,6.1,1,0,1000,num_1,0.9093891999218613,,34,4,2026-03-13_10h27.01.274,2026A_exp2,2022.2.4,59.70448661920867,
1000,1,3.7,3.7,0,0,53,53,63,,,,,180.28707820014097,180.93779999995604,180.93779999995604,181.42228500009514,45,45,181.42228500009514,181.42228500009514,181.42228500009514,181.42228500009514,181.42228500009514,181.42228500009514,181.42228500009514,181.42228500009514,181.42228500009514,181.78877290012315,181.78877290012315,181.78877290012315,181.78877290012315,181.78877290012315,181.78877290012315,181.78877290012315,181.78877290012315,181.78877290012315,7,1,[0.0012417000252753496],[0.2668005998712033],181.78877290012315,181.9888224999886,1000,182.0053445000667,1000,1000,1000,1000,1,num_2,0.48006359999999404,,34,4,2026-03-13_10h27.01.274,2026A_exp2,2022.2.4,59.70448661920867,
1000,1,0.0,4.9,1,0,54,54,66,,,,,182.50596059998497,183.15664210007526,183.15664210007526,183.65788870002143,315,45,183.65788870002143,183.65788870002143,183.65788870002143,183.65788870002143,183.65788870002143,183.65788870002143,183.65788870002143,183.65788870002143,183.65788870002143,184.02412760001607,184.02412760001607,184.02412760001607,184.02412760001607,184.02412760001607,184.02412760001607,184.02412760001607,184.02412760001607,184.02412760001607,20,2,"[0.2838714998215437, 0.35059469984844327]","[0.3006116000469774, 0.3673153999261558]",184.02412760001607,184.22671220009215,1000,184.22671220009215,1000,1000,1000,1000,1,num_2,0.7785857999697328,,34,4,2026-03-13_10h27.01.274,2026A_exp2,2022.2.4,59.70448661920867,
1000,1,0.0,4.9,0,0,55,55,6,,,,,185.0251424999442,185.67595140007325,185.67595140007325,186.17709859996103,315,45,186.17709859996103,186.17709859996103,186.17709859996103,186.17709859996103,186.17709859996103,186.17709859996103,186.17709859996103,186.17709859996103,186.17709859996103,186.5434618999716,186.5434618999716,186.5434618999716,186.5434618999716,186.5434618999716,186.5434618999716,186.5434618999716,186.5434618999716,186.5434618999716,0,1,[0.001249099848791957],[0.3672696000430733],186.5434618999716,186.74549040012062,1000,186.74549040012062,1000,1000,1000,1000,1,num_2,1.3400427997112274,,34,4,2026-03-13_10h27.01.274,2026A_exp2,2022.2.4,59.70448661920867,
1,0,0.0,6.1,0,0,56,56,0,,,,,188.1127478000708,188.76238750014454,188.76238750014454,189.26349869999103,315,315,189.26349869999103,189.26349869999103,189.26349869999103,189.26349869999103,189.26349869999103,189.26349869999103,189.26349869999103,189.26349869999103,189.26349869999103,189.61319790012203,189.61319790012203,189.61319790012203,189.61319790012203,189.61319790012203,189.61319790012203,189.61319790012203,189.61319790012203,189.61319790012203,0,1,[0.0012648999691009521],[0.350501999957487],189.61319790012203,189.8134037000127,0.0,189.8134037000127,0,0.0,0,1,1000,num_1,0.5522312996909022,,34,4,2026-03-13_10h27.01.274,2026A_exp2,2022.2.4,59.70448661920867,
1000,1,6.1,3.7,0,0,57,57,75,,,,,190.39725130004808,191.0480572001543,191.0480572001543,191.53239529998973,45,315,191.53239529998973,191.53239529998973,191.53239529998973,191.53239529998973,191.53239529998973,191.53239529998973,191.53239529998973,191.53239529998973,191.53239529998973,191.89882669993676,191.89882669993676,191.89882669993676,191.89882669993676,191.89882669993676,191.89882669993676,191.89882669993676,191.89882669993676,191.89882669993676,0,1,[0.0012060999870300293],[0.3672151998616755],191.89882669993676,192.1038794000633,1000,192.1038794000633,1000,1000,1000,1000,1,num_2,0.5091991999652237,,34,4,2026-03-13_10h27.01.274,2026A_exp2,2022.2.4,59.70448661920867,
1,0,4.9,3.7,1,0,58,58,27,,,,,192.63275080011226,193.28343000006862,193.28343000006862,193.78444349998608,45,315,193.78444349998608,193.78444349998608,193.78444349998608,193.78444349998608,193.78444349998608,193.78444349998608,193.78444349998608,193.78444349998608,193.78444349998608,194.15088000008836,194.15088000008836,194.15088000008836,194.15088000008836,194.15088000008836,194.15088000008836,194.15088000008836,194.15088000008836,194.15088000008836,0,1,[0.001408600015565753],[0.36722660018131137],194.15088000008836,194.35126919997856,3.7,194.35126919997856,1,3.7,1,1,1000,num_4,0.9820024999789894,,34,4,2026-03-13_10h27.01.274,2026A_exp2,2022.2.4,59.70448661920867,
1,0,6.1,4.9,1,0,59,59,64,,,,,195.35214820015244,196.0029482000973,196.0029482000973,196.50385019998066,45,315,196.50385019998066,196.50385019998066,196.50385019998066,196.50385019998066,196.50385019998066,196.50385019998066,196.50385019998066,196.50385019998066,196.50385019998066,196.8537775001023,196.8537775001023,196.8537775001023,196.8537775001023,196.8537775001023,196.8537775001023,196.8537775001023,196.8537775001023,196.8537775001023,5,4,"[0.0007535999175161123, 0.23438889998942614, 0.28438480012118816, 0.3176885999273509]","[0.200991400051862, 0.267617299919948, 0.3011350999586284, 0.3511822000145912]",196.8537775001023,197.0539834999945,4.9,197.0539834999945,0,4.9,1,0,1000,num_1,0.7674788997974247,,34,4,2026-03-13_10h27.01.274,2026A_exp2,2022.2.4,59.70448661920867,
1,0,0.0,4.9,1,0,60,60,37,,,,,197.83785549993627,198.48874299996532,198.48874299996532,198.97305659996346,45,45,198.97305659996346,198.97305659996346,198.97305659996346,198.97305659996346,198.97305659996346,198.97305659996346,198.97305659996346,198.97305659996346,198.97305659996346,199.33949879999273,199.33949879999273,199.33949879999273,199.33949879999273,199.33949879999273,199.33949879999273,199.33949879999273,199.33949879999273,199.33949879999273,0,1,[0.0012051998637616634],[0.3671838999725878],199.33949879999273,199.53977699996904,4.9,199.53977699996904,1,4.9,1,1,1000,num_4,0.7610888998024166,,34,4,2026-03-13_10h27.01.274,2026A_exp2,2022.2.4,59.70448661920867,
1,0,3.7,3.7,1,0,61,61,30,,,,,200.3245739999693,200.97442350001074,200.97442350001074,201.45903140003793,315,45,201.45903140003793,201.45903140003793,201.45903140003793,201.45903140003793,201.45903140003793,201.45903140003793,201.45903140003793,201.45903140003793,201.45903140003793,201.82535260007717,201.82535260007717,201.82535260007717,201.82535260007717,201.82535260007717,201.82535260007717,201.82535260007717,201.82535260007717,201.82535260007717,23,0,,,201.82535260007717,202.0254724000115,3.7,202.0254724000115,0,3.7,1,0,1000,num_1,0.6922698998823762,,34,4,2026-03-13_10h27.01.274,2026A_exp2,2022.2.4,59.70448661920867,
1,0,4.9,0.0,1,0,62,62,65,,,,,202.7450977000408,203.393619999988,203.393619999988,203.90807470004074,45,45,203.90807470004074,203.90807470004074,203.90807470004074,203.90807470004074,203.90807470004074,203.90807470004074,203.90807470004074,203.90807470004074,203.90807470004074,204.26119140000083,204.26119140000083,204.26119140000083,204.26119140000083,204.26119140000083,204.26119140000083,204.26119140000083,204.26119140000083,204.26119140000083,0,1,[0.003796699922531843],[0.36526890005916357],204.26119140000083,204.46124840015545,0.0,204.46124840015545,0,0.0,0,1,1000,num_1,0.6401375997811556,,34,4,2026-03-13_10h27.01.274,2026A_exp2,2022.2.4,59.70448661920867,
1,0,6.1,0.0,0,0,63,63,21,,,,,205.12871240009554,205.77936620009132,205.77936620009132,206.2805802000221,315,45,206.2805802000221,206.2805802000221,206.2805802000221,206.2805802000221,206.2805802000221,206.2805802000221,206.2805802000221,206.2805802000221,206.2805802000221,206.64691460016184,206.64691460016184,206.64691460016184,206.64691460016184,206.64691460016184,206.64691460016184,206.64691460016184,206.64691460016184,206.64691460016184,23,0,,,206.64691460016184,206.84699210012332,6.1,206.84699210012332,1,6.1,1,1,1000,num_4,0.7747374000027776,,34,4,2026-03-13_10h27.01.274,2026A_exp2,2022.2.4,59.70448661920867,
1,0,0.0,3.7,1,0,64,64,32,,,,,207.647842500126,208.29856569995172,208.29856569995172,208.78284530015662,315,45,208.78284530015662,208.78284530015662,208.78284530015662,208.78284530015662,208.78284530015662,208.78284530015662,208.78284530015662,208.78284530015662,208.78284530015662,209.14955850015394,209.14955850015394,209.14955850015394,209.14955850015394,209.14955850015394,209.14955850015394,209.14955850015394,209.14955850015394,209.14955850015394,0,1,[0.001199800055474043],[0.36715979990549386],209.14955850015394,209.34965380001813,3.7,209.34965380001813,0,3.7,1,0,1000,num_1,0.6798664999660105,,34,4,2026-03-13_10h27.01.274,2026A_exp2,2022.2.4,59.70448661920867,
0,0,4.9,0.0,1,0,65,65,67,,,,,210.05028429999948,210.70102449995466,210.70102449995466,211.18525490001775,315,315,211.18525490001775,211.18525490001775,211.18525490001775,211.18525490001775,211.18525490001775,211.18525490001775,211.18525490001775,211.18525490001775,211.18525490001775,211.55178060010076,211.55178060010076,211.55178060010076,211.55178060010076,211.55178060010076,211.55178060010076,211.55178060010076,211.55178060010076,211.55178060010076,0,1,[0.0012418997939676046],[0.36712519987486303],211.55178060010076,211.75193849997595,4.9,211.75193849997595,1,4.9,1,1,1000,num_4,0.6620822998229414,,34,4,2026-03-13_10h27.01.274,2026A_exp2,2022.2.4,59.70448661920867,
1,0,3.7,0.0,1,0,66,66,12,,,,,212.4359236001037,213.08660689997487,213.08660689997487,213.58783049997874,45,45,213.58783049997874,213.58783049997874,213.58783049997874,213.58783049997874,213.58783049997874,213.58783049997874,213.58783049997874,213.58783049997874,213.58783049997874,213.93753150012344,213.93753150012344,213.93753150012344,213.93753150012344,213.93753150012344,213.93753150012344,213.93753150012344,213.93753150012344,213.93753150012344,0,1,[0.0012573001440614462],[0.3505164000671357],213.93753150012344,214.13778039999306,0.0,214.13778039999306,0,0.0,0,1,1000,num_1,0.5395881996955723,,34,4,2026-03-13_10h27.01.274,2026A_exp2,2022.2.4,59.70448661920867,
1,0,3.7,4.9,1,0,67,67,20,,,,,214.70483740000054,215.3666908000596,215.3666908000596,215.84007040015422,45,45,215.84007040015422,215.84007040015422,215.84007040015422,215.84007040015422,215.84007040015422,215.84007040015422,215.84007040015422,215.84007040015422,215.84007040015422,216.20648650010116,216.20648650010116,216.20648650010116,216.20648650010116,216.20648650010116,216.20648650010116,216.20648650010116,216.20648650010116,216.20648650010116,22,1,[0.26722169993445277],[0.2838967000134289],216.20648650010116,216.4065895001404,4.9,216.4065895001404,1,4.9,1,1,1000,num_4,0.6063727999571711,,34,4,2026-03-13_10h27.01.274,2026A_exp2,2022.2.4,59.70448661920867,
1000,1,3.7,0.0,1,0,68,68,19,,,,,217.0404960999731,217.6915535000153,217.6915535000153,218.17559510003775,45,315,218.17559510003775,218.17559510003775,218.17559510003775,218.17559510003775,218.17559510003775,218.17559510003775,218.17559510003775,218.17559510003775,218.17559510003775,218.542389200069,218.542389200069,218.542389200069,218.542389200069,218.542389200069,218.542389200069,218.542389200069,218.542389200069,218.542389200069,17,4,"[0.0012070001102983952, 0.11674480000510812, 0.16693950002081692, 0.3337580000516027]","[0.033456499921157956, 0.13345660013146698, 0.18352520000189543, 0.36709100008010864]",218.542389200069,218.74420160008594,1000,218.74420160008594,1000,1000,1000,1000,0,num_3,0.5005448998417705,,34,4,2026-03-13_10h27.01.274,2026A_exp2,2022.2.4,59.70448661920867,
1000,1,6.1,6.1,1,0,69,69,4,,,,,219.27624900010414,219.92672520014457,219.92672520014457,220.42783739999868,45,315,220.42783739999868,220.42783739999868,220.42783739999868,220.42783739999868,220.42783739999868,220.42783739999868,220.42783739999868,220.42783739999868,220.42783739999868,220.77764580002986,220.77764580002986,220.77764580002986,220.77764580002986,220.77764580002986,220.77764580002986,220.77764580002986,220.77764580002986,220.77764580002986,0,1,[0.0012409999035298824],[0.35042869998142123],220.77764580002986,220.97933689993806,1000,220.99430140014738,1000,1000,1000,1000,1,num_2,0.9796241999138147,,34,4,2026-03-13_10h27.01.274,2026A_exp2,2022.2.4,59.70448661920867,
1,0,0.0,0.0,0,0,70,70,55,,,,,221.99551349994726,222.64620200009085,222.64620200009085,223.14742109994404,315,315,223.14742109994404,223.14742109994404,223.14742109994404,223.14742109994404,223.14742109994404,223.14742109994404,223.14742109994404,223.14742109994404,223.14742109994404,223.51385260000825,223.51385260000825,223.51385260000825,223.51385260000825,223.51385260000825,223.51385260000825,223.51385260000825,223.51385260000825,223.51385260000825,0,1,[0.0012378999963402748],[0.3671704998705536],223.51385260000825,223.71378420013934,0.0,223.71378420013934,0,0.0,0,1,1000,num_1,0.5163998997304589,,34,4,2026-03-13_10h27.01.274,2026A_exp2,2022.2.4,59.70448661920867,
1,0,0.0,0.0,1,0,71,71,42,,,,,224.24824230000377,224.898581400048,224.898581400048,225.39963699993677,45,315,225.39963699993677,225.39963699993677,225.39963699993677,225.39963699993677,225.39963699993677,225.39963699993677,225.39963699993677,225.39963699993677,225.39963699993677,225.76601839996874,225.76601839996874,225.76601839996874,225.76601839996874,225.76601839996874,225.76601839996874,225.76601839996874,225.76601839996874,225.76601839996874,0,1,[0.0011847999412566423],[0.3672665997873992],225.76601839996874,225.96628740010783,0.0,225.96628740010783,0,0.0,0,1,1000,num_1,0.5036463998258114,,34,4,2026-03-13_10h27.01.274,2026A_exp2,2022.2.4,59.70448661920867,
1000,1,4.9,0.0,0,0,72,72,54,,,,,226.49998870003037,227.15060400008224,227.15060400008224,227.63521530013531,315,315,227.63521530013531,227.63521530013531,227.63521530013531,227.63521530013531,227.63521530013531,227.63521530013531,227.63521530013531,227.63521530013531,227.63521530013531,228.00158590008505,228.00158590008505,228.00158590008505,228.00158590008505,228.00158590008505,228.00158590008505,228.00158590008505,228.00158590008505,228.00158590008505,0,1,[0.0014818999916315079],[0.36676239990629256],228.00158590008505,228.203562800074,1000,228.203562800074,1000,1000,1000,1000,0,num_3,0.5219041998498142,,34,4,2026-03-13_10h27.01.274,2026A_exp2,2022.2.4,59.70448661920867,
1,0,4.9,3.7,0,0,73,73,44,,,,,228.75236120005138,229.40293220011517,229.40293220011517,229.9039471000433,45,45,229.9039471000433,229.9039471000433,229.9039471000433,229.9039471000433,229.9039471000433,229.9039471000433,229.9039471000433,229.9039471000433,229.9039471000433,230.2705570999533,230.2705570999533,230.2705570999533,230.2705570999533,230.2705570999533,230.2705570999533,230.2705570999533,230.2705570999533,230.2705570999533,4,3,"[0.0012252000160515308, 0.06700269994325936, 0.18365149991586804]","[0.033615099964663386, 0.15040559996850789, 0.36726019997149706]",230.2705570999533,230.47077460004948,4.9,230.47077460004948,1,4.9,1,1,1000,num_4,0.7269178999122232,,34,4,2026-03-13_10h27.01.274,2026A_exp2,2022.2.4,59.70448661920867,
1000,1,3.7,0.0,0,0,74,74,56,,,,,231.22143570007756,231.8721706001088,231.8721706001088,232.35642930003814,45,315,232.35642930003814,232.35642930003814,232.35642930003814,232.35642930003814,232.35642930003814,232.35642930003814,232.35642930003814,232.35642930003814,232.35642930003814,232.7228274999652,232.7228274999652,232.7228274999652,232.7228274999652,232.7228274999652,232.7228274999652,232.7228274999652,232.7228274999652,232.7228274999652,6,4,"[0.017278499901294708, 0.0503193000331521, 0.11708509991876781, 0.2505228000227362]","[0.033508799970149994, 0.08365279994904995, 0.23386089992709458, 0.36727849999442697]",232.7228274999652,232.924144100165,1000,232.924144100165,1000,1000,1000,1000,0,num_3,0.48920760001055896,,34,4,2026-03-13_10h27.01.274,2026A_exp2,2022.2.4,59.70448661920867,
1000,1,6.1,0.0,1,0,75,75,29,,,,,233.44017309998162,234.0909547000192,234.0909547000192,234.59206819999963,45,45,234.59206819999963,234.59206819999963,234.59206819999963,234.59206819999963,234.59206819999963,234.59206819999963,234.59206819999963,234.59206819999963,234.59206819999963,234.94144810014404,234.94144810014404,234.94144810014404,234.94144810014404,234.94144810014404,234.94144810014404,234.94144810014404,234.94144810014404,234.94144810014404,0,1,[0.0012448001652956009],[0.35052100010216236],234.94144810014404,235.143934099935,1000,235.15888989996165,1000,1000,1000,1000,0,num_3,0.4301300998777151,,34,4,2026-03-13_10h27.01.274,2026A_exp2,2022.2.4,59.70448661920867,
1000,1,4.9,4.9,1,0,76,76,68,,,,,235.60911389999092,236.25985909998417,236.25985909998417,236.7605427999515,315,315,236.7605427999515,236.7605427999515,236.7605427999515,236.7605427999515,236.7605427999515,236.7605427999515,236.7605427999515,236.7605427999515,236.7605427999515,237.11068139993586,237.11068139993586,237.11068139993586,237.11068139993586,237.11068139993586,237.11068139993586,237.11068139993586,237.11068139993586,237.11068139993586,2,2,"[0.0007973001338541508, 0.15086380019783974]","[0.1174753000959754, 0.35113300010561943]",237.11068139993586,237.31286450009793,1000,237.31286450009793,1000,1000,1000,1000,1,num_2,0.5564611998852342,,34,4,2026-03-13_10h27.01.274,2026A_exp2,2022.2.4,59.70448661920867,
1000,1,3.7,6.1,1,0,77,77,48,,,,,237.8979867999442,238.54531590011902,238.54531590011902,239.04659679997712,45,315,239.04659679997712,239.04659679997712,239.04659679997712,239.04659679997712,239.04659679997712,239.04659679997712,239.04659679997712,239.04659679997712,239.04659679997712,239.41286289994605,239.41286289994605,239.41286289994605,239.41286289994605,239.41286289994605,239.41286289994605,239.41286289994605,239.41286289994605,239.41286289994605,0,1,[0.0007652000058442354],[0.36772269988432527],239.41286289994605,239.61481770011596,1000,239.61481770011596,1000,1000,1000,1000,1,num_2,0.4308691998012364,,34,4,2026-03-13_10h27.01.274,2026A_exp2,2022.2.4,59.70448661920867,
1,0,0.0,6.1,1,0,78,78,36,,,,,240.06362020014785,240.71433899994008,240.71433899994008,241.215277899988,45,315,241.215277899988,241.215277899988,241.215277899988,241.215277899988,241.215277899988,241.215277899988,241.215277899988,241.215277899988,241.215277899988,241.58189660008065,241.58189660008065,241.58189660008065,241.58189660008065,241.58189660008065,241.58189660008065,241.58189660008065,241.58189660008065,241.58189660008065,1,2,"[0.001218699850142002, 0.06692839995957911]","[0.05031650001183152, 0.3672668000217527]",241.58189660008065,241.78203270002268,6.1,241.78203270002268,1,6.1,1,1,1000,num_4,0.6070727999322116,,34,4,2026-03-13_10h27.01.274,2026A_exp2,2022.2.4,59.70448661920867,
1000,1,0.0,0.0,1,0,79,79,9,,,,,242.4160353001207,243.04997549997643,243.04997549997643,243.55093839997426,45,45,243.55093839997426,243.55093839997426,243.55093839997426,243.55093839997426,243.55093839997426,243.55093839997426,243.55093839997426,243.55093839997426,243.55093839997426,243.9176136001479,243.9176136001479,243.9176136001479,243.9176136001479,243.9176136001479,243.9176136001479,243.9176136001479,243.9176136001479,243.9176136001479,0,1,[0.001218999968841672],[0.3672650000080466],243.9176136001479,244.119757700013,1000,244.119757700013,1000,1000,1000,1000,0,num_3,0.6135147998575121,,34,4,2026-03-13_10h27.01.274,2026A_exp2,2022.2.4,59.70448661920867,
1000,1,4.9,0.0,0,0,80,80,41,,,,,244.75149019993842,245.40222509996966,245.40222509996966,245.9034907000605,315,315,245.9034907000605,245.9034907000605,245.9034907000605,245.9034907000605,245.9034907000605,245.9034907000605,245.9034907000605,245.9034907000605,245.9034907000605,246.26977080013603,246.26977080013603,246.26977080013603,246.26977080013603,246.26977080013603,246.26977080013603,246.26977080013603,246.26977080013603,246.26977080013603,0,1,[0.0007180001121014357],[0.3676404000725597],246.26977080013603,246.47211130009964,1000,246.47211130009964,1000,1000,1000,1000,0,num_3,0.7889821997378021,,34,4,2026-03-13_10h27.01.274,2026A_exp2,2022.2.4,59.70448661920867,
1000,1,4.9,0.0,1,0,81,81,10,,,,,247.2874223999679,247.9384182000067,247.9384182000067,248.42287250002846,45,45,248.42287250002846,248.42287250002846,248.42287250002846,248.42287250002846,248.42287250002846,248.42287250002846,248.42287250002846,248.42287250002846,248.42287250002846,248.7890469999984,248.7890469999984,248.7890469999984,248.7890469999984,248.7890469999984,248.7890469999984,248.7890469999984,248.7890469999984,248.7890469999984,0,1,[0.0007153002079576254],[0.3677097000181675],248.7890469999984,248.991285600001,1000,248.991285600001,1000,1000,1000,1000,0,num_3,0.693880699807778,,34,4,2026-03-13_10h27.01.274,2026A_exp2,2022.2.4,59.70448661920867,
1000,1,0.0,0.0,0,0,82,82,7,,,,,249.70647229999304,250.3572245000396,250.3572245000396,250.85839579999447,45,315,250.85839579999447,250.85839579999447,250.85839579999447,250.85839579999447,250.85839579999447,250.85839579999447,250.85839579999447,250.85839579999447,250.85839579999447,251.2081655000802,251.2081655000802,251.2081655000802,251.2081655000802,251.2081655000802,251.2081655000802,251.2081655000802,251.2081655000802,251.2081655000802,0,1,[0.001274599926546216],[0.35067160008475184],251.2081655000802,251.41041660006158,1000,251.4247547001578,1000,1000,1000,1000,0,num_3,0.46026559988968074,,34,4,2026-03-13_10h27.01.274,2026A_exp2,2022.2.4,59.70448661920867,
1000,1,4.9,0.0,1,0,83,83,77,,,,,251.90871879993938,252.55934239993803,252.55934239993803,253.06051940005273,45,45,253.06051940005273,253.06051940005273,253.06051940005273,253.06051940005273,253.06051940005273,253.06051940005273,253.06051940005273,253.06051940005273,253.06051940005273,253.42689600004815,253.42689600004815,253.42689600004815,253.42689600004815,253.42689600004815,253.42689600004815,253.42689600004815,253.42689600004815,253.42689600004815,0,1,[0.0012443999294191599],[0.3673740001395345],253.42689600004815,253.62833960005082,1000,253.62833960005082,1000,1000,1000,1000,0,num_3,0.5213284997735173,,34,4,2026-03-13_10h27.01.274,2026A_exp2,2022.2.4,59.70448661920867,
1,0,0.0,0.0,1,0,84,84,49,,,,,254.1779225000646,254.82839270005934,254.82839270005934,255.32969489996321,45,45,255.32969489996321,255.32969489996321,255.32969489996321,255.32969489996321,255.32969489996321,255.32969489996321,255.32969489996321,255.32969489996321,255.32969489996321,255.69579010014422,255.69579010014422,255.69579010014422,255.69579010014422,255.69579010014422,255.69579010014422,255.69579010014422,255.69579010014422,255.69579010014422,0,1,[0.0007712000515311956],[0.3683941999915987],255.69579010014422,255.89597620000131,0.0,255.89597620000131,1,0.0,0,0,1000,num_4,0.6128050999250263,,34,4,2026-03-13_10h27.01.274,2026A_exp2,2022.2.4,59.70448661920867,
1,0,6.1,0.0,0,0,85,85,82,,,,,256.5299005000852,257.1808277000673,257.1808277000673,257.665113999974,315,315,257.665113999974,257.665113999974,257.665113999974,257.665113999974,257.665113999974,257.665113999974,257.665113999974,257.665113999974,257.665113999974,258.03163620014675,258.03163620014675,258.03163620014675,258.03163620014675,258.03163620014675,258.03163620014675,258.03163620014675,258.03163620014675,258.03163620014675,0,1,[0.0012072999961674213],[0.36728539993055165],258.03163620014675,258.2318847000133,6.1,258.2318847000133,1,6.1,1,1,1000,num_4,0.8129930999130011,,34,4,2026-03-13_10h27.01.274,2026A_exp2,2022.2.4,59.70448661920867,
1000,1,6.1,0.0,1,0,86,86,83,,,,,259.0658913999796,259.7166224999819,259.7166224999819,260.2009248000104,315,45,260.2009248000104,260.2009248000104,260.2009248000104,260.2009248000104,260.2009248000104,260.2009248000104,260.2009248000104,260.2009248000104,260.2009248000104,260.56746040005237,260.56746040005237,260.56746040005237,260.56746040005237,260.56746040005237,260.56746040005237,260.56746040005237,260.56746040005237,260.56746040005237,0,1,[0.0012444001622498035],[0.3674147999845445],260.56746040005237,260.7684357999824,1000,260.7684357999824,1000,1000,1000,1000,0,num_3,0.75744319986552,,34,4,2026-03-13_10h27.01.274,2026A_exp2,2022.2.4,59.70448661920867,
1000,1,3.7,0.0,0,0,87,87,76,,,,,261.5516830999404,262.2024312999565,262.2024312999565,262.7035234000068,45,315,262.7035234000068,262.7035234000068,262.7035234000068,262.7035234000068,262.7035234000068,262.7035234000068,262.7035234000068,262.7035234000068,262.7035234000068,263.0532323999796,263.0532323999796,263.0532323999796,263.0532323999796,263.0532323999796,263.0532323999796,263.0532323999796,263.0532323999796,263.0532323999796,0,1,[0.0012591001577675343],[0.35044130007736385],263.0532323999796,263.25550670013763,1000,263.25550670013763,1000,1000,1000,1000,0,num_3,0.5017404998652637,,34,4,2026-03-13_10h27.01.274,2026A_exp2,2022.2.4,59.70448661920867,
1,0,6.1,6.1,1,0,88,88,23,,,,,263.7872028001584,264.4380435999483,264.4380435999483,264.93916140007786,45,315,264.93916140007786,264.93916140007786,264.93916140007786,264.93916140007786,264.93916140007786,264.93916140007786,264.93916140007786,264.93916140007786,264.93916140007786,265.28879490005784,265.28879490005784,265.28879490005784,265.28879490005784,265.28879490005784,265.28879490005784,265.28879490005784,265.28879490005784,265.28879490005784,0,1,[0.0012111000251024961],[0.35066840006038547],265.28879490005784,265.48901340016164,6.1,265.505863300059,1,6.1,1,1,1000,num_4,0.5397142998408526,,34,4,2026-03-13_10h27.01.274,2026A_exp2,2022.2.4,59.70448661920867,
1000,1,0.0,4.9,0,0,89,89,61,,,,,266.0728502999991,266.72365460009314,266.72365460009314,267.20794730004855,315,45,267.20794730004855,267.20794730004855,267.20794730004855,267.20794730004855,267.20794730004855,267.20794730004855,267.20794730004855,267.20794730004855,267.20794730004855,267.57437149994075,267.57437149994075,267.57437149994075,267.57437149994075,267.57437149994075,267.57437149994075,267.57437149994075,267.57437149994075,267.57437149994075,0,1,[0.0012401998974382877],[0.36722499993629754],267.57437149994075,267.7767443000339,1000,267.7767443000339,1000,1000,1000,1000,1,num_2,0.9007818999234587,,34,4,2026-03-13_10h27.01.274,2026A_exp2,2022.2.4,59.70448661920867,
,,,,,,,,,,,,,,,,,,,,,,,,,,,,,,,,,,,,,,,,,,,,,,,,,,,,268.7143916001078,,,,,,,
