validity,detectorcomp,contrastCW,contrastCCW,precueCWorCCW,block_80trials.thisRepN,block_80trials.thisTrialN,block_80trials.thisN,block_80trials.thisIndex,etRecord.started,etRecord.stopped,text.started,text.stopped,text_4.started,text_4.stopped,text_6.started,text_6.stopped,oriCW,oriCCW,roi_2.started,grating_UR.started,grating_UL.started,grating_LR.started,grating_LL.started,noise_UR.started,noise_UL.started,noise_LR.started,noise_LL.started,roi_2.stopped,grating_UR.stopped,grating_UL.stopped,grating_LR.stopped,grating_LL.stopped,noise_UR.stopped,noise_UL.stopped,noise_LR.stopped,noise_LL.stopped,outframe,roi_2.numLooks,roi_2.timesOn,roi_2.timesOff,text_2.started,text_2.stopped,probedcontrast,key_resp.started,respdetect,relevantContrast,correctDetect,TorFdetect,respCWorCCW,key_resp.keys,key_resp.rt,feedback_display_.started,participantNo,blockNo,date,expName,psychopyVersion,frameRate,
1,0,4.9,0.0,1,0,0,0,84,5.930001498199999e-05,5.930001498199999e-05,54.89959039998939,56.902859299996635,56.902859299996635,57.536039699974936,57.536039699974936,58.05457929999102,315,45,58.05457929999102,58.05457929999102,58.05457929999102,58.05457929999102,58.05457929999102,58.05457929999102,58.05457929999102,58.05457929999102,58.05457929999102,58.40371279997635,58.40371279997635,58.40371279997635,58.40371279997635,58.40371279997635,58.40371279997635,58.40371279997635,58.40371279997635,58.40371279997635,0,1,[0.0009921000164467841],[0.3678665999905206],58.40371279997635,58.60396869998658,0.0,58.60396869998658,0,0.0,0,1,1000,num_1,0.6466288999945391,,20,11,2026-03-02_16h21.46.995,2026A_exp2,2022.2.4,59.79498689916144,
1000,1,4.9,0.0,0,0,1,1,58,,,,,59.27116139998543,59.921906699979445,59.921906699979445,60.42297620000318,315,315,60.42297620000318,60.42297620000318,60.42297620000318,60.42297620000318,60.42297620000318,60.42297620000318,60.42297620000318,60.42297620000318,60.42297620000318,60.78950529999565,60.78950529999565,60.78950529999565,60.78950529999565,60.78950529999565,60.78950529999565,60.78950529999565,60.78950529999565,60.78950529999565,0,1,[0.0012596000160556287],[0.3670411999919452],60.78950529999565,60.99448379999376,1000,60.99448379999376,1000,1000,1000,1000,0,num_3,0.45689950001542456,,20,11,2026-03-02_16h21.46.995,2026A_exp2,2022.2.4,59.79498689916144,
1000,1,0.0,0.0,0,0,2,2,61,,,,,61.473534899996594,62.1241166999971,62.1241166999971,62.62514769998961,45,315,62.62514769998961,62.62514769998961,62.62514769998961,62.62514769998961,62.62514769998961,62.62514769998961,62.62514769998961,62.62514769998961,62.62514769998961,62.97500879998552,62.97500879998552,62.97500879998552,62.97500879998552,62.97500879998552,62.97500879998552,62.97500879998552,62.97500879998552,62.97500879998552,22,0,,,62.97500879998552,63.175361599976895,1000,63.175361599976895,1000,1000,1000,1000,1,num_2,0.5958202000183519,,20,11,2026-03-02_16h21.46.995,2026A_exp2,2022.2.4,59.79498689916144,
1,0,4.9,6.1,0,0,3,3,15,,,,,63.79261899998528,64.4431528999994,64.4431528999994,64.94427269999869,45,315,64.94427269999869,64.94427269999869,64.94427269999869,64.94427269999869,64.94427269999869,64.94427269999869,64.94427269999869,64.94427269999869,64.94427269999869,65.31061869999394,65.31061869999394,65.31061869999394,65.31061869999394,65.31061869999394,65.31061869999394,65.31061869999394,65.31061869999394,65.31061869999394,23,0,,,65.31061869999394,65.51063809997868,4.9,65.51063809997868,0,4.9,1,0,1000,num_1,1.0766426999762189,,20,11,2026-03-02_16h21.46.995,2026A_exp2,2022.2.4,59.79498689916144,
1,0,0.0,0.0,1,0,4,4,41,,,,,66.61204899998847,67.26261119998526,67.26261119998526,67.74693009999464,315,315,67.74693009999464,67.74693009999464,67.74693009999464,67.74693009999464,67.74693009999464,67.74693009999464,67.74693009999464,67.74693009999464,67.74693009999464,68.11343309999211,68.11343309999211,68.11343309999211,68.11343309999211,68.11343309999211,68.11343309999211,68.11343309999211,68.11343309999211,68.11343309999211,23,0,,,68.11343309999211,68.31359589999192,0.0,68.31359589999192,1,0.0,0,0,1000,num_4,0.8492852000053972,,20,11,2026-03-02_16h21.46.995,2026A_exp2,2022.2.4,59.79498689916144,
1,0,4.9,0.0,1,0,5,5,4,,,,,69.18124619999435,69.83188879999216,69.83188879999216,70.31619079998927,315,315,70.31619079998927,70.31619079998927,70.31619079998927,70.31619079998927,70.31619079998927,70.31619079998927,70.31619079998927,70.31619079998927,70.31619079998927,70.68276739999419,70.68276739999419,70.68276739999419,70.68276739999419,70.68276739999419,70.68276739999419,70.68276739999419,70.68276739999419,70.68276739999419,23,0,,,70.68276739999419,70.88296989997616,0.0,70.88296989997616,0,0.0,0,1,1000,num_1,0.5523418000084348,,20,11,2026-03-02_16h21.46.995,2026A_exp2,2022.2.4,59.79498689916144,
1000,1,0.0,3.7,1,0,6,6,80,,,,,71.46671739997691,72.11743620000198,72.11743620000198,72.60210819999338,45,315,72.60210819999338,72.60210819999338,72.60210819999338,72.60210819999338,72.60210819999338,72.60210819999338,72.60210819999338,72.60210819999338,72.60210819999338,72.96837789998972,72.96837789998972,72.96837789998972,72.96837789998972,72.96837789998972,72.96837789998972,72.96837789998972,72.96837789998972,72.96837789998972,20,2,"[0.0012285999837331474, 0.0503032999986317]","[0.03367579999030568, 0.06699099999968894]",72.96837789998972,73.17030389999854,1000,73.17030389999854,1000,1000,1000,1000,1,num_2,0.3445616999815684,,20,11,2026-03-02_16h21.46.995,2026A_exp2,2022.2.4,59.79498689916144,
1000,1,4.9,4.9,0,0,7,7,31,,,,,73.53552689999924,74.18624919999274,74.18624919999274,74.68709479999961,45,45,74.68709479999961,74.68709479999961,74.68709479999961,74.68709479999961,74.68709479999961,74.68709479999961,74.68709479999961,74.68709479999961,74.68709479999961,75.0536279999942,75.0536279999942,75.0536279999942,75.0536279999942,75.0536279999942,75.0536279999942,75.0536279999942,75.0536279999942,75.0536279999942,23,0,,,75.0536279999942,75.25549139999202,1000,75.25549139999202,1000,1000,1000,1000,0,num_3,0.3635552999912761,,20,11,2026-03-02_16h21.46.995,2026A_exp2,2022.2.4,59.79498689916144,
1000,1,0.0,0.0,0,0,8,8,65,,,,,75.63752119999845,76.28823799997917,76.28823799997917,76.78923359999317,315,45,76.78923359999317,76.78923359999317,76.78923359999317,76.78923359999317,76.78923359999317,76.78923359999317,76.78923359999317,76.78923359999317,76.78923359999317,77.15570399997523,77.15570399997523,77.15570399997523,77.15570399997523,77.15570399997523,77.15570399997523,77.15570399997523,77.15570399997523,77.15570399997523,23,0,,,77.15570399997523,77.35786489999737,1000,77.35786489999737,1000,1000,1000,1000,0,num_3,0.3806161999818869,,20,11,2026-03-02_16h21.46.995,2026A_exp2,2022.2.4,59.79498689916144,
1,0,0.0,0.0,1,0,9,9,18,,,,,77.75633849998121,78.4071831999754,78.4071831999754,78.90807879998465,45,45,78.90807879998465,78.90807879998465,78.90807879998465,78.90807879998465,78.90807879998465,78.90807879998465,78.90807879998465,78.90807879998465,78.90807879998465,79.2746622999839,79.2746622999839,79.2746622999839,79.2746622999839,79.2746622999839,79.2746622999839,79.2746622999839,79.2746622999839,79.2746622999839,23,0,,,79.2746622999839,79.47501409999677,0.0,79.47501409999677,1,0.0,0,0,1000,num_4,0.7759469999873545,,20,11,2026-03-02_16h21.46.995,2026A_exp2,2022.2.4,59.79498689916144,
1,0,3.7,0.0,1,0,10,10,74,,,,,80.27560009999434,80.90967279998586,80.90967279998586,81.4107155999809,45,315,81.4107155999809,81.4107155999809,81.4107155999809,81.4107155999809,81.4107155999809,81.4107155999809,81.4107155999809,81.4107155999809,81.4107155999809,81.77692939998815,81.77692939998815,81.77692939998815,81.77692939998815,81.77692939998815,81.77692939998815,81.77692939998815,81.77692939998815,81.77692939998815,23,0,,,81.77692939998815,81.9772507000016,0.0,81.9772507000016,1,0.0,0,0,1000,num_4,0.8416026000049897,,20,11,2026-03-02_16h21.46.995,2026A_exp2,2022.2.4,59.79498689916144,
1000,1,6.1,4.9,1,0,11,11,53,,,,,82.84475349998684,83.49546720000217,83.49546720000217,83.97998429997824,315,315,83.97998429997824,83.97998429997824,83.97998429997824,83.97998429997824,83.97998429997824,83.97998429997824,83.97998429997824,83.97998429997824,83.97998429997824,84.34638249999261,84.34638249999261,84.34638249999261,84.34638249999261,84.34638249999261,84.34638249999261,84.34638249999261,84.34638249999261,84.34638249999261,23,0,,,84.34638249999261,84.54854459999478,1000,84.54854459999478,1000,1000,1000,1000,0,num_3,0.36624550001579337,,20,11,2026-03-02_16h21.46.995,2026A_exp2,2022.2.4,59.79498689916144,
1,0,0.0,0.0,1,0,12,12,43,,,,,84.93015509998077,85.58100859998376,85.58100859998376,86.0820516999811,315,315,86.0820516999811,86.0820516999811,86.0820516999811,86.0820516999811,86.0820516999811,86.0820516999811,86.0820516999811,86.0820516999811,86.0820516999811,86.44851930000004,86.44851930000004,86.44851930000004,86.44851930000004,86.44851930000004,86.44851930000004,86.44851930000004,86.44851930000004,86.44851930000004,16,7,"[0.10024880000855774, 0.15035969999735244, 0.18357100000139326, 0.21688829999766313, 0.2666070999985095, 0.30017850000876933, 0.3334509000123944]","[0.1169510000036098, 0.1669127000204753, 0.20018980000168085, 0.23330020002322271, 0.2835376000148244, 0.31665350002003834, 0.35027950000949204]",86.44851930000004,86.64869599998929,0.0,86.64869599998929,1,0.0,0,0,1000,num_4,0.7304590999847278,,20,11,2026-03-02_16h21.46.995,2026A_exp2,2022.2.4,59.79498689916144,
1,0,0.0,0.0,0,0,13,13,81,,,,,87.39946539999801,88.03342719998909,88.03342719998909,88.53436669998337,45,45,88.53436669998337,88.53436669998337,88.53436669998337,88.53436669998337,88.53436669998337,88.53436669998337,88.53436669998337,88.53436669998337,88.53436669998337,88.90090979999513,88.90090979999513,88.90090979999513,88.90090979999513,88.90090979999513,88.90090979999513,88.90090979999513,88.90090979999513,88.90090979999513,1,2,"[0.0012074000260327011, 0.3672683000040706]","[0.3506413000286557, 0.367272800009232]",88.90090979999513,89.10110449997592,0.0,89.10110449997592,0,0.0,0,1,1000,num_1,0.6373885000066366,,20,11,2026-03-02_16h21.46.995,2026A_exp2,2022.2.4,59.79498689916144,
1,0,0.0,0.0,0,0,14,14,49,,,,,89.76843859997462,90.41891529998975,90.41891529998975,90.9034986999759,315,315,90.9034986999759,90.9034986999759,90.9034986999759,90.9034986999759,90.9034986999759,90.9034986999759,90.9034986999759,90.9034986999759,90.9034986999759,91.27007449997473,91.27007449997473,91.27007449997473,91.27007449997473,91.27007449997473,91.27007449997473,91.27007449997473,91.27007449997473,91.27007449997473,9,6,"[0.0012952999968547374, 0.04997600000933744, 0.11693499999819323, 0.15017929999157786, 0.23372560000279918, 0.3002586000075098]","[0.03340079999179579, 0.06695680000120774, 0.13349629999720491, 0.21686369998496957, 0.26699529998586513, 0.3673987000074703]",91.27007449997473,91.47012610000093,0.0,91.47012610000093,0,0.0,0,1,1000,num_1,0.8120463999803178,,20,11,2026-03-02_16h21.46.995,2026A_exp2,2022.2.4,59.79498689916144,
1000,1,0.0,6.1,1,0,15,15,88,,,,,92.30410089998622,92.95500590000302,92.95500590000302,93.43938019999769,45,315,93.43938019999769,93.43938019999769,93.43938019999769,93.43938019999769,93.43938019999769,93.43938019999769,93.43938019999769,93.43938019999769,93.43938019999769,93.80579659997602,93.80579659997602,93.80579659997602,93.80579659997602,93.80579659997602,93.80579659997602,93.80579659997602,93.80579659997602,93.80579659997602,23,0,,,93.80579659997602,94.00764080000226,1000,94.00764080000226,1000,1000,1000,1000,1,num_2,0.5153783000132535,,20,11,2026-03-02_16h21.46.995,2026A_exp2,2022.2.4,59.79498689916144,
1,0,0.0,3.7,1,0,16,16,57,,,,,94.53979089998757,95.19051559999934,95.19051559999934,95.69152520000353,45,45,95.69152520000353,95.69152520000353,95.69152520000353,95.69152520000353,95.69152520000353,95.69152520000353,95.69152520000353,95.69152520000353,95.69152520000353,96.05791659999522,96.05791659999522,96.05791659999522,96.05791659999522,96.05791659999522,96.05791659999522,96.05791659999522,96.05791659999522,96.05791659999522,0,1,[0.001206299988552928],[0.36746799998218194],96.05791659999522,96.25828799998271,3.7,96.25828799998271,1,3.7,1,1,1000,num_4,0.6246958999836352,,20,11,2026-03-02_16h21.46.995,2026A_exp2,2022.2.4,59.79498689916144,
1,0,0.0,6.1,0,0,17,17,5,,,,,96.90881019999506,97.55945809997502,97.55945809997502,98.04398039999069,45,45,98.04398039999069,98.04398039999069,98.04398039999069,98.04398039999069,98.04398039999069,98.04398039999069,98.04398039999069,98.04398039999069,98.04398039999069,98.41038439999102,98.41038439999102,98.41038439999102,98.41038439999102,98.41038439999102,98.41038439999102,98.41038439999102,98.41038439999102,98.41038439999102,0,1,[0.0012095999845769256],[0.3673578999878373],98.41038439999102,98.61070709998603,0.0,98.61070709998603,0,0.0,0,1,1000,num_1,0.5037070999969728,,20,11,2026-03-02_16h21.46.995,2026A_exp2,2022.2.4,59.79498689916144,
1000,1,3.7,0.0,1,0,18,18,55,,,,,99.14436389997718,99.79516939999303,99.79516939999303,100.2957541999931,45,315,100.2957541999931,100.2957541999931,100.2957541999931,100.2957541999931,100.2957541999931,100.2957541999931,100.2957541999931,100.2957541999931,100.2957541999931,100.64620180000202,100.64620180000202,100.64620180000202,100.64620180000202,100.64620180000202,100.64620180000202,100.64620180000202,100.64620180000202,100.64620180000202,0,1,[0.004259899986209348],[0.3656405000074301],100.64620180000202,100.85077930000261,1000,100.85077930000261,1000,1000,1000,1000,1,num_2,0.6478826999955345,,20,11,2026-03-02_16h21.46.995,2026A_exp2,2022.2.4,59.79498689916144,
1,0,0.0,0.0,1,0,19,19,70,,,,,101.51343209997867,102.16414310000255,102.16414310000255,102.66535229998408,45,315,102.66535229998408,102.66535229998408,102.66535229998408,102.66535229998408,102.66535229998408,102.66535229998408,102.66535229998408,102.66535229998408,102.66535229998408,103.03166569999303,103.03166569999303,103.03166569999303,103.03166569999303,103.03166569999303,103.03166569999303,103.03166569999303,103.03166569999303,103.03166569999303,23,0,,,103.03166569999303,103.23199329999625,0.0,103.23199329999625,1,0.0,0,0,1000,num_4,0.5470428999979049,,20,11,2026-03-02_16h21.46.995,2026A_exp2,2022.2.4,59.79498689916144,
1,0,6.1,0.0,0,0,20,20,50,,,,,103.79901029999019,104.44988459997694,104.44988459997694,104.9338177999889,45,315,104.9338177999889,104.9338177999889,104.9338177999889,104.9338177999889,104.9338177999889,104.9338177999889,104.9338177999889,104.9338177999889,104.9338177999889,105.30067479997524,105.30067479997524,105.30067479997524,105.30067479997524,105.30067479997524,105.30067479997524,105.30067479997524,105.30067479997524,105.30067479997524,0,1,[0.001208400004543364],[0.3671708000183571],105.30067479997524,105.5006846000033,6.1,105.5006846000033,1,6.1,1,1,1000,num_4,0.7341871000244282,,20,11,2026-03-02_16h21.46.995,2026A_exp2,2022.2.4,59.79498689916144,
1000,1,6.1,3.7,1,0,21,21,0,,,,,106.25146159998258,106.90226839997922,106.90226839997922,107.3866594999854,45,315,107.3866594999854,107.3866594999854,107.3866594999854,107.3866594999854,107.3866594999854,107.3866594999854,107.3866594999854,107.3866594999854,107.3866594999854,107.753171999997,107.753171999997,107.753171999997,107.753171999997,107.753171999997,107.753171999997,107.753171999997,107.753171999997,107.753171999997,20,2,"[0.13324500000453554, 0.23349889999371953]","[0.1666026999882888, 0.2504604999849107]",107.753171999997,107.95508469999186,1000,107.95508469999186,1000,1000,1000,1000,0,num_3,0.5598862999759149,,20,11,2026-03-02_16h21.46.995,2026A_exp2,2022.2.4,59.79498689916144,
1,0,0.0,3.7,0,0,22,22,78,,,,,108.53715499999817,109.1877004999842,109.1877004999842,109.68862839997746,315,315,109.68862839997746,109.68862839997746,109.68862839997746,109.68862839997746,109.68862839997746,109.68862839997746,109.68862839997746,109.68862839997746,109.68862839997746,110.05541459997767,110.05541459997767,110.05541459997767,110.05541459997767,110.05541459997767,110.05541459997767,110.05541459997767,110.05541459997767,110.05541459997767,22,1,[0.03387970000039786],[0.05031789999338798],110.05541459997767,110.25554819998797,0.0,110.25554819998797,0,0.0,0,1,1000,num_1,0.6273970000038389,,20,11,2026-03-02_16h21.46.995,2026A_exp2,2022.2.4,59.79498689916144,
1000,1,0.0,4.9,1,0,23,23,27,,,,,110.90620430000126,111.55698429999757,111.55698429999757,112.04124059999594,315,315,112.04124059999594,112.04124059999594,112.04124059999594,112.04124059999594,112.04124059999594,112.04124059999594,112.04124059999594,112.04124059999594,112.04124059999594,112.40778529999079,112.40778529999079,112.40778529999079,112.40778529999079,112.40778529999079,112.40778529999079,112.40778529999079,112.40778529999079,112.40778529999079,23,0,,,112.40778529999079,112.61008759998367,1000,112.61008759998367,1000,1000,1000,1000,1,num_2,0.4648756999813486,,20,11,2026-03-02_16h21.46.995,2026A_exp2,2022.2.4,59.79498689916144,
1000,1,0.0,4.9,1,0,24,24,51,,,,,113.09179049998056,113.74242169997888,113.74242169997888,114.24351969998679,45,315,114.24351969998679,114.24351969998679,114.24351969998679,114.24351969998679,114.24351969998679,114.24351969998679,114.24351969998679,114.24351969998679,114.24351969998679,114.60986979998415,114.60986979998415,114.60986979998415,114.60986979998415,114.60986979998415,114.60986979998415,114.60986979998415,114.60986979998415,114.60986979998415,23,0,,,114.60986979998415,114.81209469999885,1000,114.81209469999885,1000,1000,1000,1000,1,num_2,0.9109199999948032,,20,11,2026-03-02_16h21.46.995,2026A_exp2,2022.2.4,59.79498689916144,
1,0,4.9,0.0,1,0,25,25,82,,,,,115.74431149999145,116.40567300000112,116.40567300000112,116.91202059999341,45,315,116.91202059999341,116.91202059999341,116.91202059999341,116.91202059999341,116.91202059999341,116.91202059999341,116.91202059999341,116.91202059999341,116.91202059999341,117.26264400000218,117.26264400000218,117.26264400000218,117.26264400000218,117.26264400000218,117.26264400000218,117.26264400000218,117.26264400000218,117.26264400000218,23,0,,,117.26264400000218,117.46271379999234,0.0,117.46271379999234,0,0.0,0,1,1000,num_1,0.5874021000054199,,20,11,2026-03-02_16h21.46.995,2026A_exp2,2022.2.4,59.79498689916144,
1000,1,0.0,6.1,0,0,26,26,34,,,,,118.07987079999293,118.71414889997686,118.71414889997686,119.21523010000237,45,45,119.21523010000237,119.21523010000237,119.21523010000237,119.21523010000237,119.21523010000237,119.21523010000237,119.21523010000237,119.21523010000237,119.21523010000237,119.58164409999154,119.58164409999154,119.58164409999154,119.58164409999154,119.58164409999154,119.58164409999154,119.58164409999154,119.58164409999154,119.58164409999154,17,4,"[0.06679310000617988, 0.21698579998337664, 0.2503671000013128, 0.2836091000062879]","[0.08348699999623932, 0.23363939998671412, 0.26674910000292584, 0.3337996999907773]",119.58164409999154,119.78540249998332,1000,119.78540249998332,1000,1000,1000,1000,1,num_2,0.45722169999498874,,20,11,2026-03-02_16h21.46.995,2026A_exp2,2022.2.4,59.79498689916144,
1000,1,4.9,0.0,1,0,27,27,25,,,,,120.26554579997901,120.91617959999712,120.91617959999712,121.41731369998888,45,315,121.41731369998888,121.41731369998888,121.41731369998888,121.41731369998888,121.41731369998888,121.41731369998888,121.41731369998888,121.41731369998888,121.41731369998888,121.7671193999995,121.7671193999995,121.7671193999995,121.7671193999995,121.7671193999995,121.7671193999995,121.7671193999995,121.7671193999995,121.7671193999995,1,1,[0.01737640000646934],[0.35054839999065734],121.7671193999995,121.9696756999765,1000,121.9696756999765,1000,1000,1000,1000,0,num_3,0.4733315999910701,,20,11,2026-03-02_16h21.46.995,2026A_exp2,2022.2.4,59.79498689916144,
1000,1,0.0,0.0,0,0,28,28,75,,,,,122.46777009998914,123.11846779999905,123.11846779999905,123.619286799978,315,315,123.619286799978,123.619286799978,123.619286799978,123.619286799978,123.619286799978,123.619286799978,123.619286799978,123.619286799978,123.619286799978,123.98594279997633,123.98594279997633,123.98594279997633,123.98594279997633,123.98594279997633,123.98594279997633,123.98594279997633,123.98594279997633,123.98594279997633,0,1,[0.0012701999803539366],[0.3671732999791857],123.98594279997633,124.18749059998663,1000,124.18749059998663,1000,1000,1000,1000,1,num_2,0.4946971999888774,,20,11,2026-03-02_16h21.46.995,2026A_exp2,2022.2.4,59.79498689916144,
1,0,6.1,0.0,1,0,29,29,13,,,,,124.70352839998668,125.35401679997449,125.35401679997449,125.85508049998316,315,45,125.85508049998316,125.85508049998316,125.85508049998316,125.85508049998316,125.85508049998316,125.85508049998316,125.85508049998316,125.85508049998316,125.85508049998316,126.22150230000261,126.22150230000261,126.22150230000261,126.22150230000261,126.22150230000261,126.22150230000261,126.22150230000261,126.22150230000261,126.22150230000261,15,3,"[0.1336678999941796, 0.2003617999725975, 0.30053319997387007]","[0.18393199998536147, 0.25039879998075776, 0.33384099998511374]",126.22150230000261,126.42164769998635,0.0,126.42164769998635,0,0.0,0,1,1000,num_1,0.6136013000214007,,20,11,2026-03-02_16h21.46.995,2026A_exp2,2022.2.4,59.79498689916144,
1,0,4.9,4.9,0,0,30,30,63,,,,,127.05560009999317,127.70634219999192,127.70634219999192,128.19069639997906,315,315,128.19069639997906,128.19069639997906,128.19069639997906,128.19069639997906,128.19069639997906,128.19069639997906,128.19069639997906,128.19069639997906,128.19069639997906,128.55723109998507,128.55723109998507,128.55723109998507,128.55723109998507,128.55723109998507,128.55723109998507,128.55723109998507,128.55723109998507,128.55723109998507,2,1,[0.03335809998679906],[0.3671126999834087],128.55723109998507,128.75728749998962,4.9,128.75728749998962,0,4.9,1,0,1000,num_1,1.021031899988884,,20,11,2026-03-02_16h21.46.995,2026A_exp2,2022.2.4,59.79498689916144,
1000,1,3.7,3.7,1,0,31,31,40,,,,,129.80842699998175,130.45921949998592,130.45921949998592,130.94362529998762,45,45,130.94362529998762,130.94362529998762,130.94362529998762,130.94362529998762,130.94362529998762,130.94362529998762,130.94362529998762,130.94362529998762,130.94362529998762,131.31005989998812,131.31005989998812,131.31005989998812,131.31005989998812,131.31005989998812,131.31005989998812,131.31005989998812,131.31005989998812,131.31005989998812,23,0,,,131.31005989998812,131.51210490000085,1000,131.51210490000085,1000,1000,1000,1000,1,num_2,0.46623670001281425,,20,11,2026-03-02_16h21.46.995,2026A_exp2,2022.2.4,59.79498689916144,
1,0,4.9,6.1,1,0,32,32,86,,,,,131.9939641999954,132.64473059997545,132.64473059997545,133.1457997999969,45,45,133.1457997999969,133.1457997999969,133.1457997999969,133.1457997999969,133.1457997999969,133.1457997999969,133.1457997999969,133.1457997999969,133.1457997999969,133.51224799998454,133.51224799998454,133.51224799998454,133.51224799998454,133.51224799998454,133.51224799998454,133.51224799998454,133.51224799998454,133.51224799998454,0,1,[0.001200700004119426],[0.36715440000989474],133.51224799998454,133.71223779997672,6.1,133.71223779997672,1,6.1,1,1,1000,num_4,0.5780154000094626,,20,11,2026-03-02_16h21.46.995,2026A_exp2,2022.2.4,59.79498689916144,
1000,1,6.1,0.0,0,0,33,33,19,,,,,134.3128942999756,134.96367139997892,134.96367139997892,135.4480893999862,315,45,135.4480893999862,135.4480893999862,135.4480893999862,135.4480893999862,135.4480893999862,135.4480893999862,135.4480893999862,135.4480893999862,135.4480893999862,135.81454099999974,135.81454099999974,135.81454099999974,135.81454099999974,135.81454099999974,135.81454099999974,135.81454099999974,135.81454099999974,135.81454099999974,1,2,"[0.0012768000015057623, 0.08359679998829961]","[0.06676950000110082, 0.36710750000202097]",135.81454099999974,136.01649729997735,1000,136.01649729997735,1000,1000,1000,1000,0,num_3,0.13763280000421219,,20,11,2026-03-02_16h21.46.995,2026A_exp2,2022.2.4,59.79498689916144,
1,0,0.0,4.9,0,0,34,34,17,,,,,136.18148810000275,136.83218939998187,136.83218939998187,137.33320189997903,45,315,137.33320189997903,137.33320189997903,137.33320189997903,137.33320189997903,137.33320189997903,137.33320189997903,137.33320189997903,137.33320189997903,137.33320189997903,137.68301409998094,137.68301409998094,137.68301409998094,137.68301409998094,137.68301409998094,137.68301409998094,137.68301409998094,137.68301409998094,137.68301409998094,0,1,[0.0012029999925289303],[0.35070499998982996],137.68301409998094,137.88314879999962,0.0,137.88314879999962,0,0.0,0,1,1000,num_1,0.6478862999938428,,20,11,2026-03-02_16h21.46.995,2026A_exp2,2022.2.4,59.79498689916144,
1,0,0.0,0.0,1,0,35,35,37,,,,,138.5504725999781,139.20133579999674,139.20133579999674,139.68573329999344,315,45,139.68573329999344,139.68573329999344,139.68573329999344,139.68573329999344,139.68573329999344,139.68573329999344,139.68573329999344,139.68573329999344,139.68573329999344,140.05202409997582,140.05202409997582,140.05202409997582,140.05202409997582,140.05202409997582,140.05202409997582,140.05202409997582,140.05202409997582,140.05202409997582,23,0,,,140.05202409997582,140.252405599982,0.0,140.252405599982,0,0.0,0,1,1000,num_1,1.3338469000009354,,20,11,2026-03-02_16h21.46.995,2026A_exp2,2022.2.4,59.79498689916144,
1,0,0.0,4.9,0,0,36,36,71,,,,,141.60349249999854,142.25414129998535,142.25414129998535,142.73874319999595,45,315,142.73874319999595,142.73874319999595,142.73874319999595,142.73874319999595,142.73874319999595,142.73874319999595,142.73874319999595,142.73874319999595,142.73874319999595,143.10510699998122,143.10510699998122,143.10510699998122,143.10510699998122,143.10510699998122,143.10510699998122,143.10510699998122,143.10510699998122,143.10510699998122,23,0,,,143.10510699998122,143.3053673999966,0.0,143.3053673999966,0,0.0,0,1,1000,num_1,1.017486299999291,,20,11,2026-03-02_16h21.46.995,2026A_exp2,2022.2.4,59.79498689916144,
1,0,4.9,6.1,1,0,37,37,46,,,,,144.3396302999754,144.99042099999497,144.99042099999497,145.47462649998488,45,45,145.47462649998488,145.47462649998488,145.47462649998488,145.47462649998488,145.47462649998488,145.47462649998488,145.47462649998488,145.47462649998488,145.47462649998488,145.8412366999837,145.8412366999837,145.8412366999837,145.8412366999837,145.8412366999837,145.8412366999837,145.8412366999837,145.8412366999837,145.8412366999837,23,0,,,145.8412366999837,146.04135590000078,6.1,146.04135590000078,1,6.1,1,1,1000,num_4,0.8012347999901976,,20,11,2026-03-02_16h21.46.995,2026A_exp2,2022.2.4,59.79498689916144,
1000,1,0.0,0.0,1,0,38,38,47,,,,,146.85882739999215,147.50951819997863,147.50951819997863,147.99386930000037,45,45,147.99386930000037,147.99386930000037,147.99386930000037,147.99386930000037,147.99386930000037,147.99386930000037,147.99386930000037,147.99386930000037,147.99386930000037,148.36037569999462,148.36037569999462,148.36037569999462,148.36037569999462,148.36037569999462,148.36037569999462,148.36037569999462,148.36037569999462,148.36037569999462,5,1,[0.08349150000140071],[0.3670657000038773],148.36037569999462,148.5609015999944,1000,148.5609015999944,1000,1000,1000,1000,1,num_2,0.7623318999831099,,20,11,2026-03-02_16h21.46.995,2026A_exp2,2022.2.4,59.79498689916144,
0,0,0.0,4.9,0,0,39,39,54,,,,,149.3447210000013,149.99531099997694,149.99531099997694,150.4962603999884,315,45,150.4962603999884,150.4962603999884,150.4962603999884,150.4962603999884,150.4962603999884,150.4962603999884,150.4962603999884,150.4962603999884,150.4962603999884,150.86292590000085,150.86292590000085,150.86292590000085,150.86292590000085,150.86292590000085,150.86292590000085,150.86292590000085,150.86292590000085,150.86292590000085,0,1,[0.0012172000133432448],[0.36709449999034405],150.86292590000085,151.06311299998197,4.9,151.06311299998197,1,4.9,1,1,1000,num_4,0.6356868000002578,,20,11,2026-03-02_16h21.46.995,2026A_exp2,2022.2.4,59.79498689916144,
0,0,4.9,0.0,0,0,40,40,30,,,,,151.73030309999012,152.38102410000283,152.38102410000283,152.8655269999872,315,315,152.8655269999872,152.8655269999872,152.8655269999872,152.8655269999872,152.8655269999872,152.8655269999872,152.8655269999872,152.8655269999872,152.8655269999872,153.23193660000106,153.23193660000106,153.23193660000106,153.23193660000106,153.23193660000106,153.23193660000106,153.23193660000106,153.23193660000106,153.23193660000106,0,1,[0.001206500019179657],[0.3671786000195425],153.23193660000106,153.43206989997998,0.0,153.43206989997998,0,0.0,0,1,1000,num_1,0.7543319000105839,,20,11,2026-03-02_16h21.46.995,2026A_exp2,2022.2.4,59.79498689916144,
1000,1,0.0,0.0,1,0,41,41,14,,,,,154.2161580999964,154.87808549997862,154.87808549997862,155.35298440000042,45,315,155.35298440000042,155.35298440000042,155.35298440000042,155.35298440000042,155.35298440000042,155.35298440000042,155.35298440000042,155.35298440000042,155.35298440000042,155.71781969998847,155.71781969998847,155.71781969998847,155.71781969998847,155.71781969998847,155.71781969998847,155.71781969998847,155.71781969998847,155.71781969998847,0,1,[0.00207419999060221],[0.36721850000321865],155.71781969998847,155.92833470000187,1000,155.92833470000187,1000,1000,1000,1000,1,num_2,0.4745857999951113,,20,11,2026-03-02_16h21.46.995,2026A_exp2,2022.2.4,59.79498689916144,
1000,1,0.0,4.9,0,0,42,42,11,,,,,156.4183477999759,157.08002229998237,157.08002229998237,157.574420799996,45,45,157.574420799996,157.574420799996,157.574420799996,157.574420799996,157.574420799996,157.574420799996,157.574420799996,157.574420799996,157.574420799996,157.93644269998185,157.93644269998185,157.93644269998185,157.93644269998185,157.93644269998185,157.93644269998185,157.93644269998185,157.93644269998185,157.93644269998185,0,1,[0.002329400012968108],[0.3654949000047054],157.93644269998185,158.1505513000011,1000,158.1505513000011,1000,1000,1000,1000,1,num_2,0.49997619999339804,,20,11,2026-03-02_16h21.46.995,2026A_exp2,2022.2.4,59.79498689916144,
1,0,0.0,3.7,0,0,43,43,12,,,,,158.67062619997887,159.32135299997753,159.32135299997753,159.82249989997945,315,315,159.82249989997945,159.82249989997945,159.82249989997945,159.82249989997945,159.82249989997945,159.82249989997945,159.82249989997945,159.82249989997945,159.82249989997945,160.18887159999576,160.18887159999576,160.18887159999576,160.18887159999576,160.18887159999576,160.18887159999576,160.18887159999576,160.18887159999576,160.18887159999576,0,1,[0.0012238000053912401],[0.3672366999962833],160.18887159999576,160.3891106999945,0.0,160.3891106999945,0,0.0,0,1,1000,num_1,0.6052178000099957,,20,11,2026-03-02_16h21.46.995,2026A_exp2,2022.2.4,59.79498689916144,
0,0,0.0,3.7,1,0,44,44,21,,,,,161.02273489997606,161.6647127000033,161.6647127000033,162.1713233999908,45,45,162.1713233999908,162.1713233999908,162.1713233999908,162.1713233999908,162.1713233999908,162.1713233999908,162.1713233999908,162.1713233999908,162.1713233999908,162.52464879999752,162.52464879999752,162.52464879999752,162.52464879999752,162.52464879999752,162.52464879999752,162.52464879999752,162.52464879999752,162.52464879999752,1,2,"[0.003782199986744672, 0.21445020000101067]","[0.19735609999042936, 0.3646162999793887]",162.52464879999752,162.7247112999903,0.0,162.7247112999903,0,0.0,0,1,1000,num_1,0.6059143000165932,,20,11,2026-03-02_16h21.46.995,2026A_exp2,2022.2.4,59.79498689916144,
1000,1,0.0,0.0,1,0,45,45,29,,,,,163.3585043999774,164.00925469998037,164.00925469998037,164.49371899999096,45,45,164.49371899999096,164.49371899999096,164.49371899999096,164.49371899999096,164.49371899999096,164.49371899999096,164.49371899999096,164.49371899999096,164.49371899999096,164.8600220999797,164.8600220999797,164.8600220999797,164.8600220999797,164.8600220999797,164.8600220999797,164.8600220999797,164.8600220999797,164.8600220999797,0,1,[0.0012172999850008637],[0.36702079998212866],164.8600220999797,165.0618386999995,1000,165.0618386999995,1000,1000,1000,1000,1,num_2,0.7093168999999762,,20,11,2026-03-02_16h21.46.995,2026A_exp2,2022.2.4,59.79498689916144,
1,0,6.1,3.7,0,0,46,46,26,,,,,165.79427199999918,166.4451608999807,166.4451608999807,166.94628149998607,45,45,166.94628149998607,166.94628149998607,166.94628149998607,166.94628149998607,166.94628149998607,166.94628149998607,166.94628149998607,166.94628149998607,166.94628149998607,167.312703899981,167.312703899981,167.312703899981,167.312703899981,167.312703899981,167.312703899981,167.312703899981,167.312703899981,167.312703899981,0,1,[0.0012946000206284225],[0.3671570000005886],167.312703899981,167.5127777000016,6.1,167.5127777000016,1,6.1,1,1,1000,num_4,0.8578997000004165,,20,11,2026-03-02_16h21.46.995,2026A_exp2,2022.2.4,59.79498689916144,
1000,1,6.1,3.7,1,0,47,47,24,,,,,168.3969249999791,169.04772760000196,169.04772760000196,169.53215819998877,315,45,169.53215819998877,169.53215819998877,169.53215819998877,169.53215819998877,169.53215819998877,169.53215819998877,169.53215819998877,169.53215819998877,169.53215819998877,169.89836520000244,169.89836520000244,169.89836520000244,169.89836520000244,169.89836520000244,169.89836520000244,169.89836520000244,169.89836520000244,169.89836520000244,5,1,[0.08290129998931661],[0.3665448999963701],169.89836520000244,170.100607499975,1000,170.100607499975,1000,1000,1000,1000,0,num_3,0.44601099999272265,,20,11,2026-03-02_16h21.46.995,2026A_exp2,2022.2.4,59.79498689916144,
1000,1,3.7,6.1,0,0,48,48,28,,,,,170.56590580000193,171.21647569999914,171.21647569999914,171.71775949999574,45,45,171.71775949999574,171.71775949999574,171.71775949999574,171.71775949999574,171.71775949999574,171.71775949999574,171.71775949999574,171.71775949999574,171.71775949999574,172.06744699997944,172.06744699997944,172.06744699997944,172.06744699997944,172.06744699997944,172.06744699997944,172.06744699997944,172.06744699997944,172.06744699997944,0,1,[0.0012076999992132187],[0.3504833999904804],172.06744699997944,172.26959089998854,1000,172.26959089998854,1000,1000,1000,1000,1,num_2,0.4845056000049226,,20,11,2026-03-02_16h21.46.995,2026A_exp2,2022.2.4,59.79498689916144,
1,0,3.7,4.9,1,0,49,49,39,,,,,172.7847445999796,173.43523760000244,173.43523760000244,173.94141999998828,45,315,173.94141999998828,173.94141999998828,173.94141999998828,173.94141999998828,173.94141999998828,173.94141999998828,173.94141999998828,173.94141999998828,173.94141999998828,174.28653839998879,174.28653839998879,174.28653839998879,174.28653839998879,174.28653839998879,174.28653839998879,174.28653839998879,174.28653839998879,174.28653839998879,5,1,[0.08357909999904223],[0.3504280000051949],174.28653839998879,174.49009659999865,4.9,174.49009659999865,1,4.9,1,1,1000,num_4,0.6081186000083108,,20,11,2026-03-02_16h21.46.995,2026A_exp2,2022.2.4,59.79498689916144,
1,0,0.0,0.0,1,0,50,50,73,,,,,175.12029389999225,175.7560841999948,175.7560841999948,176.2554937999812,45,315,176.2554937999812,176.2554937999812,176.2554937999812,176.2554937999812,176.2554937999812,176.2554937999812,176.2554937999812,176.2554937999812,176.2554937999812,176.6220393999829,176.6220393999829,176.6220393999829,176.6220393999829,176.6220393999829,176.6220393999829,176.6220393999829,176.6220393999829,176.6220393999829,0,1,[0.0014800999779254198],[0.36673519999021664],176.6220393999829,176.82220809999853,0.0,176.82220809999853,1,0.0,0,0,1000,num_4,0.5238733000005595,,20,11,2026-03-02_16h21.46.995,2026A_exp2,2022.2.4,59.79498689916144,
1000,1,6.1,3.7,0,0,51,51,87,,,,,177.3725959000003,178.02329509999254,178.02329509999254,178.50770259997807,315,45,178.50770259997807,178.50770259997807,178.50770259997807,178.50770259997807,178.50770259997807,178.50770259997807,178.50770259997807,178.50770259997807,178.50770259997807,178.87436980000348,178.87436980000348,178.87436980000348,178.87436980000348,178.87436980000348,178.87436980000348,178.87436980000348,178.87436980000348,178.87436980000348,2,1,[0.033514699985971674],[0.3675719999882858],178.87436980000348,179.07617559999926,1000,179.07617559999926,1000,1000,1000,1000,0,num_3,0.42321360000642017,,20,11,2026-03-02_16h21.46.995,2026A_exp2,2022.2.4,59.79498689916144,
1000,1,6.1,0.0,1,0,52,52,60,,,,,179.52483379998012,180.17553089998546,180.17553089998546,180.67673149998882,315,315,180.67673149998882,180.67673149998882,180.67673149998882,180.67673149998882,180.67673149998882,180.67673149998882,180.67673149998882,180.67673149998882,180.67673149998882,181.0430926999834,181.0430926999834,181.0430926999834,181.0430926999834,181.0430926999834,181.0430926999834,181.0430926999834,181.0430926999834,181.0430926999834,0,1,[0.0014467999862972647],[0.36719609997817315],181.0430926999834,181.2450119999994,1000,181.2450119999994,1000,1000,1000,1000,0,num_3,0.3580064999987371,,20,11,2026-03-02_16h21.46.995,2026A_exp2,2022.2.4,59.79498689916144,
1000,1,4.9,0.0,1,0,53,53,72,,,,,181.62693069997476,182.27766439999687,182.27766439999687,182.77865839999868,45,315,182.77865839999868,182.77865839999868,182.77865839999868,182.77865839999868,182.77865839999868,182.77865839999868,182.77865839999868,182.77865839999868,182.77865839999868,183.1450020999764,183.1450020999764,183.1450020999764,183.1450020999764,183.1450020999764,183.1450020999764,183.1450020999764,183.1450020999764,183.1450020999764,4,4,"[0.0007874000002630055, 0.08377060000202619, 0.21752639999613166, 0.3343071000126656]","[0.05027780000818893, 0.20064590001129545, 0.31756290001794696, 0.3676073999959044]",183.1450020999764,183.34694609997678,1000,183.34694609997678,1000,1000,1000,1000,0,num_3,0.43104729999322444,,20,11,2026-03-02_16h21.46.995,2026A_exp2,2022.2.4,59.79498689916144,
1,0,4.9,4.9,1,0,54,54,89,,,,,183.79588829999557,184.44614580000052,184.44614580000052,184.93069929999183,45,45,184.93069929999183,184.93069929999183,184.93069929999183,184.93069929999183,184.93069929999183,184.93069929999183,184.93069929999183,184.93069929999183,184.93069929999183,185.29696109998622,185.29696109998622,185.29696109998622,185.29696109998622,185.29696109998622,185.29696109998622,185.29696109998622,185.29696109998622,185.29696109998622,0,1,[0.0007239999831654131],[0.3671287999895867],185.29696109998622,185.4972168999957,4.9,185.4972168999957,0,4.9,1,0,1000,num_1,0.9369710999890231,,20,11,2026-03-02_16h21.46.995,2026A_exp2,2022.2.4,59.79498689916144,
1000,1,6.1,0.0,0,0,55,55,33,,,,,186.465034199995,187.11553909999202,187.11553909999202,187.61671079997905,315,45,187.61671079997905,187.61671079997905,187.61671079997905,187.61671079997905,187.61671079997905,187.61671079997905,187.61671079997905,187.61671079997905,187.61671079997905,187.9829845999775,187.9829845999775,187.9829845999775,187.9829845999775,187.9829845999775,187.9829845999775,187.9829845999775,187.9829845999775,187.9829845999775,0,1,[0.0007117000059224665],[0.36684999999124557],187.9829845999775,188.18364559998736,1000,188.18364559998736,1000,1000,1000,1000,0,num_3,0.3383632999903057,,20,11,2026-03-02_16h21.46.995,2026A_exp2,2022.2.4,59.79498689916144,
1,0,0.0,6.1,0,0,56,56,68,,,,,188.5502249999845,189.20076739997603,189.20076739997603,189.6852979999967,45,315,189.6852979999967,189.6852979999967,189.6852979999967,189.6852979999967,189.6852979999967,189.6852979999967,189.6852979999967,189.6852979999967,189.6852979999967,190.05181209999137,190.05181209999137,190.05181209999137,190.05181209999137,190.05181209999137,190.05181209999137,190.05181209999137,190.05181209999137,190.05181209999137,0,1,[0.0008249999955296516],[0.36871149999205954],190.05181209999137,190.260309699981,0.0,190.260309699981,0,0.0,0,1,1000,num_1,1.2617316000105347,,20,11,2026-03-02_16h21.46.995,2026A_exp2,2022.2.4,59.79498689916144,
1000,1,6.1,3.7,1,0,57,57,10,,,,,191.55342589999782,192.2042493999761,192.2042493999761,192.68868319998728,315,315,192.68868319998728,192.68868319998728,192.68868319998728,192.68868319998728,192.68868319998728,192.68868319998728,192.68868319998728,192.68868319998728,192.68868319998728,193.0550804999948,193.0550804999948,193.0550804999948,193.0550804999948,193.0550804999948,193.0550804999948,193.0550804999948,193.0550804999948,193.0550804999948,0,1,[0.0012562999909278005],[0.3671858999878168],193.0550804999948,193.25702269998146,1000,193.25702269998146,1000,1000,1000,1000,0,num_3,0.337576199992327,,20,11,2026-03-02_16h21.46.995,2026A_exp2,2022.2.4,59.79498689916144,
0,0,3.7,4.9,1,0,58,58,3,,,,,193.62220669997623,194.27296069997828,194.27296069997828,194.7739202999801,315,45,194.7739202999801,194.7739202999801,194.7739202999801,194.7739202999801,194.7739202999801,194.7739202999801,194.7739202999801,194.7739202999801,194.7739202999801,195.1403933999827,195.1403933999827,195.1403933999827,195.1403933999827,195.1403933999827,195.1403933999827,195.1403933999827,195.1403933999827,195.1403933999827,0,1,[0.0012955999991390854],[0.3671094999881461],195.1403933999827,195.34073959998204,3.7,195.34073959998204,0,3.7,1,0,1000,num_1,0.7586501999758184,,20,11,2026-03-02_16h21.46.995,2026A_exp2,2022.2.4,59.79498689916144,
1000,1,0.0,3.7,0,0,59,59,44,,,,,196.1248626000015,196.76755889999913,196.76755889999913,197.2633753999835,315,315,197.2633753999835,197.2633753999835,197.2633753999835,197.2633753999835,197.2633753999835,197.2633753999835,197.2633753999835,197.2633753999835,197.2633753999835,197.62614749997738,197.62614749997738,197.62614749997738,197.62614749997738,197.62614749997738,197.62614749997738,197.62614749997738,197.62614749997738,197.62614749997738,0,1,[0.0024408000172115862],[0.36551800000597723],197.62614749997738,197.830398399994,1000,197.830398399994,1000,1000,1000,1000,1,num_2,0.3717954000167083,,20,11,2026-03-02_16h21.46.995,2026A_exp2,2022.2.4,59.79498689916144,
1000,1,0.0,3.7,0,0,60,60,52,,,,,198.22674459998962,198.8776081999822,198.8776081999822,199.37872129998868,45,45,199.37872129998868,199.37872129998868,199.37872129998868,199.37872129998868,199.37872129998868,199.37872129998868,199.37872129998868,199.37872129998868,199.37872129998868,199.74511709998478,199.74511709998478,199.74511709998478,199.74511709998478,199.74511709998478,199.74511709998478,199.74511709998478,199.74511709998478,199.74511709998478,0,1,[0.0011842000239994377],[0.36702360000344925],199.74511709998478,199.94710889999988,1000,199.94710889999988,1000,1000,1000,1000,1,num_2,0.3429427999944892,,20,11,2026-03-02_16h21.46.995,2026A_exp2,2022.2.4,59.79498689916144,
0,0,0.0,4.9,1,0,61,61,56,,,,,200.31252469998435,200.96284269998432,200.96284269998432,201.44731129999855,315,315,201.44731129999855,201.44731129999855,201.44731129999855,201.44731129999855,201.44731129999855,201.44731129999855,201.44731129999855,201.44731129999855,201.44731129999855,201.8139376999752,201.8139376999752,201.8139376999752,201.8139376999752,201.8139376999752,201.8139376999752,201.8139376999752,201.8139376999752,201.8139376999752,16,6,"[0.13374320001457818, 0.18374010000843555, 0.216869099996984, 0.25026380000053905, 0.3337016000004951, 0.36728910001693293]","[0.15032710001105443, 0.20031469999230467, 0.23368599999230355, 0.28369320000638254, 0.35040500000468455, 0.3672939999960363]",201.8139376999752,202.01405050000176,0.0,202.01405050000176,0,0.0,0,1,1000,num_1,0.7005877000046894,,20,11,2026-03-02_16h21.46.995,2026A_exp2,2022.2.4,59.79498689916144,
0,0,0.0,0.0,1,0,62,62,62,,,,,202.73136979999254,203.38206809997791,203.38206809997791,203.86654719998478,45,315,203.86654719998478,203.86654719998478,203.86654719998478,203.86654719998478,203.86654719998478,203.86654719998478,203.86654719998478,203.86654719998478,203.86654719998478,204.2329369999934,204.2329369999934,204.2329369999934,204.2329369999934,204.2329369999934,204.2329369999934,204.2329369999934,204.2329369999934,204.2329369999934,0,1,[0.001226599997607991],[0.3671228000021074],204.2329369999934,204.43295940000098,0.0,204.43295940000098,0,0.0,0,1,1000,num_1,0.921229300001869,,20,11,2026-03-02_16h21.46.995,2026A_exp2,2022.2.4,59.79498689916144,
1,0,0.0,0.0,0,0,63,63,64,,,,,205.38394929998321,206.03473879999365,206.03473879999365,206.5355639999907,315,315,206.5355639999907,206.5355639999907,206.5355639999907,206.5355639999907,206.5355639999907,206.5355639999907,206.5355639999907,206.5355639999907,206.5355639999907,206.902259399998,206.902259399998,206.902259399998,206.902259399998,206.902259399998,206.902259399998,206.902259399998,206.902259399998,206.902259399998,0,1,[0.0011178000131621957],[0.36771930000395514],206.902259399998,207.10238179998123,0.0,207.10238179998123,0,0.0,0,1,1000,num_1,0.659949199995026,,20,11,2026-03-02_16h21.46.995,2026A_exp2,2022.2.4,59.79498689916144,
1000,1,3.7,0.0,1,0,64,64,79,,,,,207.78639689998818,208.43724059997476,208.43724059997476,208.92149089998566,45,315,208.92149089998566,208.92149089998566,208.92149089998566,208.92149089998566,208.92149089998566,208.92149089998566,208.92149089998566,208.92149089998566,208.92149089998566,209.28796999997576,209.28796999997576,209.28796999997576,209.28796999997576,209.28796999997576,209.28796999997576,209.28796999997576,209.28796999997576,209.28796999997576,0,1,[0.0012101999891456217],[0.367254699987825],209.28796999997576,209.490214999998,1000,209.490214999998,1000,1000,1000,1000,0,num_3,0.4247421000036411,,20,11,2026-03-02_16h21.46.995,2026A_exp2,2022.2.4,59.79498689916144,
1000,1,6.1,4.9,1,0,65,65,16,,,,,209.93882139999187,210.5891653999861,210.5891653999861,211.09040729998378,45,45,211.09040729998378,211.09040729998378,211.09040729998378,211.09040729998378,211.09040729998378,211.09040729998378,211.09040729998378,211.09040729998378,211.09040729998378,211.43998759999522,211.43998759999522,211.43998759999522,211.43998759999522,211.43998759999522,211.43998759999522,211.43998759999522,211.43998759999522,211.43998759999522,0,1,[0.00122969999210909],[0.35040399999707006],211.43998759999522,211.64218490000349,1000,211.64218490000349,1000,1000,1000,1000,0,num_3,0.3761149999918416,,20,11,2026-03-02_16h21.46.995,2026A_exp2,2022.2.4,59.79498689916144,
1000,1,4.9,4.9,0,0,66,66,42,,,,,212.0406568000035,212.69121619997895,212.69121619997895,213.19772060000105,45,315,213.19772060000105,213.19772060000105,213.19772060000105,213.19772060000105,213.19772060000105,213.19772060000105,213.19772060000105,213.19772060000105,213.19772060000105,213.55904359999113,213.55904359999113,213.55904359999113,213.55904359999113,213.55904359999113,213.55904359999113,213.55904359999113,213.55904359999113,213.55904359999113,0,1,[0.0026283000188414007],[0.36708660001750104],213.55904359999113,213.77364089997718,1000,213.77364089997718,1000,1000,1000,1000,1,num_2,0.7167915999889374,,20,11,2026-03-02_16h21.46.995,2026A_exp2,2022.2.4,59.79498689916144,
1,0,0.0,0.0,1,0,67,67,66,,,,,214.50975309999194,215.16047019997495,215.16047019997495,215.66166699997848,315,45,215.66166699997848,215.66166699997848,215.66166699997848,215.66166699997848,215.66166699997848,215.66166699997848,215.66166699997848,215.66166699997848,215.66166699997848,216.02804809997906,216.02804809997906,216.02804809997906,216.02804809997906,216.02804809997906,216.02804809997906,216.02804809997906,216.02804809997906,216.02804809997906,0,1,[0.0011899999808520079],[0.36715919998823665],216.02804809997906,216.2282001999847,0.0,216.2282001999847,0,0.0,0,1,1000,num_1,0.6381601000030059,,20,11,2026-03-02_16h21.46.995,2026A_exp2,2022.2.4,59.79498689916144,
1,0,0.0,0.0,0,0,68,68,2,,,,,216.89543039997807,217.54616070000338,217.54616070000338,218.03070799997658,45,45,218.03070799997658,218.03070799997658,218.03070799997658,218.03070799997658,218.03070799997658,218.03070799997658,218.03070799997658,218.03070799997658,218.03070799997658,218.39670049998676,218.39670049998676,218.39670049998676,218.39670049998676,218.39670049998676,218.39670049998676,218.39670049998676,218.39670049998676,218.39670049998676,0,1,[0.001213099982123822],[0.36719849999644794],218.39670049998676,218.5971118999878,0.0,218.5971118999878,1,0.0,0,0,1000,num_4,2.014112299977569,,20,11,2026-03-02_16h21.46.995,2026A_exp2,2022.2.4,59.79498689916144,
1,0,0.0,0.0,0,0,69,69,38,,,,,220.63249669998186,221.28325079998467,221.28325079998467,221.76756249999744,45,45,221.76756249999744,221.76756249999744,221.76756249999744,221.76756249999744,221.76756249999744,221.76756249999744,221.76756249999744,221.76756249999744,221.76756249999744,222.13411459999043,222.13411459999043,222.13411459999043,222.13411459999043,222.13411459999043,222.13411459999043,222.13411459999043,222.13411459999043,222.13411459999043,0,1,[0.0012481999874580652],[0.36710499998298474],222.13411459999043,222.33421579998685,0.0,222.33421579998685,0,0.0,0,1,1000,num_1,0.8127730000123847,,20,11,2026-03-02_16h21.46.995,2026A_exp2,2022.2.4,59.79498689916144,
1000,1,4.9,3.7,1,0,70,70,32,,,,,223.16831249999814,223.80249329999788,223.80249329999788,224.3034727999766,315,45,224.3034727999766,224.3034727999766,224.3034727999766,224.3034727999766,224.3034727999766,224.3034727999766,224.3034727999766,224.3034727999766,224.3034727999766,224.67006789997686,224.67006789997686,224.67006789997686,224.67006789997686,224.67006789997686,224.67006789997686,224.67006789997686,224.67006789997686,224.67006789997686,0,1,[0.0012777000083588064],[0.3671039000037126],224.67006789997686,224.8721790999989,1000,224.8721790999989,1000,1000,1000,1000,0,num_3,0.7543433999817353,,20,11,2026-03-02_16h21.46.995,2026A_exp2,2022.2.4,59.79498689916144,
1,0,0.0,0.0,0,0,71,71,59,,,,,225.6542673999793,226.3050072999904,226.3050072999904,226.8061065999791,315,45,226.8061065999791,226.8061065999791,226.8061065999791,226.8061065999791,226.8061065999791,226.8061065999791,226.8061065999791,226.8061065999791,226.8061065999791,227.17242339998484,227.17242339998484,227.17242339998484,227.17242339998484,227.17242339998484,227.17242339998484,227.17242339998484,227.17242339998484,227.17242339998484,0,1,[0.001196700002765283],[0.3670624000078533],227.17242339998484,227.37279159997706,0.0,227.37279159997706,0,0.0,0,1,1000,num_1,0.6855525999853853,,20,11,2026-03-02_16h21.46.995,2026A_exp2,2022.2.4,59.79498689916144,
1000,1,4.9,0.0,0,0,72,72,36,,,,,228.08997689999524,228.74088060000213,228.74088060000213,229.22520129999612,45,45,229.22520129999612,229.22520129999612,229.22520129999612,229.22520129999612,229.22520129999612,229.22520129999612,229.22520129999612,229.22520129999612,229.22520129999612,229.59127409997745,229.59127409997745,229.59127409997745,229.59127409997745,229.59127409997745,229.59127409997745,229.59127409997745,229.59127409997745,229.59127409997745,0,1,[0.0012610999983735383],[0.3670216000173241],229.59127409997745,229.79163299998618,1000,229.79163299998618,1000,1000,1000,1000,0,num_3,0.33843329999945126,,20,11,2026-03-02_16h21.46.995,2026A_exp2,2022.2.4,59.79498689916144,
0,0,3.7,0.0,1,0,73,73,83,,,,,230.15873109997483,230.80955249999533,230.80955249999533,231.2938411999785,315,45,231.2938411999785,231.2938411999785,231.2938411999785,231.2938411999785,231.2938411999785,231.2938411999785,231.2938411999785,231.2938411999785,231.2938411999785,231.66025210000225,231.66025210000225,231.66025210000225,231.66025210000225,231.66025210000225,231.66025210000225,231.66025210000225,231.66025210000225,231.66025210000225,0,1,[0.0012355000071693212],[0.36712430001352914],231.66025210000225,231.8604103999969,3.7,231.8604103999969,1,3.7,1,1,1000,num_4,0.8376690000004601,,20,11,2026-03-02_16h21.46.995,2026A_exp2,2022.2.4,59.79498689916144,
1000,1,0.0,0.0,0,0,74,74,69,,,,,232.72808919998351,233.36209589999635,233.36209589999635,233.8631924999936,45,45,233.8631924999936,233.8631924999936,233.8631924999936,233.8631924999936,233.8631924999936,233.8631924999936,233.8631924999936,233.8631924999936,233.8631924999936,234.22930179999094,234.22930179999094,234.22930179999094,234.22930179999094,234.22930179999094,234.22930179999094,234.22930179999094,234.22930179999094,234.22930179999094,0,1,[0.001199499994982034],[0.366918000014266],234.22930179999094,234.43154819999472,1000,234.43154819999472,1000,1000,1000,1000,1,num_2,0.3554928000085056,,20,11,2026-03-02_16h21.46.995,2026A_exp2,2022.2.4,59.79498689916144,
1,0,0.0,4.9,0,0,75,75,85,,,,,234.8133904999995,235.46423359998153,235.46423359998153,235.96519960000296,45,45,235.96519960000296,235.96519960000296,235.96519960000296,235.96519960000296,235.96519960000296,235.96519960000296,235.96519960000296,235.96519960000296,235.96519960000296,236.31501160000334,236.31501160000334,236.31501160000334,236.31501160000334,236.31501160000334,236.31501160000334,236.31501160000334,236.31501160000334,236.31501160000334,0,1,[0.0012566999939735979],[0.3503958999936003],236.31501160000334,236.51519569999073,0.0,236.53179139998974,0,0.0,0,1,1000,num_1,0.6470190999971237,,20,11,2026-03-02_16h21.46.995,2026A_exp2,2022.2.4,59.79498689916144,
1,0,6.1,4.9,1,0,76,76,35,,,,,237.1990973999782,237.8498093999806,237.8498093999806,238.33434309999575,315,45,238.33434309999575,238.33434309999575,238.33434309999575,238.33434309999575,238.33434309999575,238.33434309999575,238.33434309999575,238.33434309999575,238.33434309999575,238.70069179998245,238.70069179998245,238.70069179998245,238.70069179998245,238.70069179998245,238.70069179998245,238.70069179998245,238.70069179998245,238.70069179998245,0,1,[0.001224499981617555],[0.36712310000439174],238.70069179998245,238.90084369998658,4.9,238.90084369998658,0,4.9,1,0,1000,num_1,0.8212964000122156,,20,11,2026-03-02_16h21.46.995,2026A_exp2,2022.2.4,59.79498689916144,
1000,1,0.0,0.0,1,0,77,77,7,,,,,239.75178759999108,240.40233939999598,240.40233939999598,240.88694189998205,315,45,240.88694189998205,240.88694189998205,240.88694189998205,240.88694189998205,240.88694189998205,240.88694189998205,240.88694189998205,240.88694189998205,240.88694189998205,241.25325239999802,241.25325239999802,241.25325239999802,241.25325239999802,241.25325239999802,241.25325239999802,241.25325239999802,241.25325239999802,241.25325239999802,0,1,[0.0012083000037819147],[0.36723640002310276],241.25325239999802,241.45510929997545,1000,241.45510929997545,1000,1000,1000,1000,1,num_2,0.4507795000099577,,20,11,2026-03-02_16h21.46.995,2026A_exp2,2022.2.4,59.79498689916144,
1000,1,4.9,6.1,1,0,78,78,1,,,,,241.93735919997562,242.5879214000015,242.5879214000015,243.08894229997532,315,315,243.08894229997532,243.08894229997532,243.08894229997532,243.08894229997532,243.08894229997532,243.08894229997532,243.08894229997532,243.08894229997532,243.08894229997532,243.4386841999949,243.4386841999949,243.4386841999949,243.4386841999949,243.4386841999949,243.4386841999949,243.4386841999949,243.4386841999949,243.4386841999949,0,1,[0.0012620000052265823],[0.35047609999310225],243.4386841999949,243.64096819999395,1000,243.64096819999395,1000,1000,1000,1000,1,num_2,0.3458896999945864,,20,11,2026-03-02_16h21.46.995,2026A_exp2,2022.2.4,59.79498689916144,
1,0,4.9,0.0,0,0,79,79,48,,,,,244.00590889999876,244.65660129999742,244.65660129999742,245.1579068999854,315,315,245.1579068999854,245.1579068999854,245.1579068999854,245.1579068999854,245.1579068999854,245.1579068999854,245.1579068999854,245.1579068999854,245.1579068999854,245.52412529999856,245.52412529999856,245.52412529999856,245.52412529999856,245.52412529999856,245.52412529999856,245.52412529999856,245.52412529999856,245.52412529999856,0,1,[0.0012206000101286918],[0.36693479999667034],245.52412529999856,245.72434269997757,4.9,245.72434269997757,1,4.9,1,1,1000,num_4,0.7579009999753907,,20,11,2026-03-02_16h21.46.995,2026A_exp2,2022.2.4,59.79498689916144,
1,0,0.0,0.0,0,0,80,80,9,,,,,246.5085857999802,247.159113599977,247.159113599977,247.64355889998842,45,45,247.64355889998842,247.64355889998842,247.64355889998842,247.64355889998842,247.64355889998842,247.64355889998842,247.64355889998842,247.64355889998842,247.64355889998842,248.00980319999508,248.00980319999508,248.00980319999508,248.00980319999508,248.00980319999508,248.00980319999508,248.00980319999508,248.00980319999508,248.00980319999508,8,3,"[0.0012086000060662627, 0.31675860000541434, 0.3668568000139203]","[0.2170662000135053, 0.3334549999854062, 0.3668595000053756]",248.00980319999508,248.21025949998875,0.0,248.21025949998875,0,0.0,0,1,1000,num_1,0.9449725000013132,,20,11,2026-03-02_16h21.46.995,2026A_exp2,2022.2.4,59.79498689916144,
1,0,4.9,0.0,1,0,81,81,6,,,,,249.17806109998492,249.83033070000238,249.83033070000238,250.32964729997911,315,315,250.32964729997911,250.32964729997911,250.32964729997911,250.32964729997911,250.32964729997911,250.32964729997911,250.32964729997911,250.32964729997911,250.32964729997911,250.69601419998799,250.69601419998799,250.69601419998799,250.69601419998799,250.69601419998799,250.69601419998799,250.69601419998799,250.69601419998799,250.69601419998799,0,1,[0.0011993000225629658],[0.36739210001542233],250.69601419998799,250.89631240000017,0.0,250.89631240000017,0,0.0,0,1,1000,num_1,0.6417769999825396,,20,11,2026-03-02_16h21.46.995,2026A_exp2,2022.2.4,59.79498689916144,
1,0,0.0,4.9,1,0,82,82,45,,,,,251.56359249999514,252.21419929998228,252.21419929998228,252.71377179998672,315,45,252.71377179998672,252.71377179998672,252.71377179998672,252.71377179998672,252.71377179998672,252.71377179998672,252.71377179998672,252.71377179998672,252.71377179998672,253.06523529998958,253.06523529998958,253.06523529998958,253.06523529998958,253.06523529998958,253.06523529998958,253.06523529998958,253.06523529998958,253.06523529998958,22,1,[0.36478740000166],[0.36479660001350567],253.06523529998958,253.2652293999854,4.9,253.2652293999854,1,4.9,1,1,1000,num_4,0.8173281999770552,,20,11,2026-03-02_16h21.46.995,2026A_exp2,2022.2.4,59.79498689916144,
1000,1,0.0,0.0,0,0,83,83,20,,,,,254.09952540000086,254.7499192999967,254.7499192999967,255.25110459999996,315,45,255.25110459999996,255.25110459999996,255.25110459999996,255.25110459999996,255.25110459999996,255.25110459999996,255.25110459999996,255.25110459999996,255.25110459999996,255.60093269997742,255.60093269997742,255.60093269997742,255.60093269997742,255.60093269997742,255.60093269997742,255.60093269997742,255.60093269997742,255.60093269997742,0,1,[0.0012104999914299697],[0.3506496000045445],255.60093269997742,255.80293529998744,1000,255.80293529998744,1000,1000,1000,1000,1,num_2,0.4393553000118118,,20,11,2026-03-02_16h21.46.995,2026A_exp2,2022.2.4,59.79498689916144,
1000,1,0.0,0.0,1,0,84,84,23,,,,,256.26884989999235,256.9189138999791,256.9189138999791,257.4032947999949,315,45,257.4032947999949,257.4032947999949,257.4032947999949,257.4032947999949,257.4032947999949,257.4032947999949,257.4032947999949,257.4032947999949,257.4032947999949,257.76977039998746,257.76977039998746,257.76977039998746,257.76977039998746,257.76977039998746,257.76977039998746,257.76977039998746,257.76977039998746,257.76977039998746,20,2,"[0.017190399987157434, 0.36663649999536574]","[0.05026979997637682, 0.3666392999875825]",257.76977039998746,257.9720086999878,1000,257.9720086999878,1000,1000,1000,1000,1,num_2,0.4300048000004608,,20,11,2026-03-02_16h21.46.995,2026A_exp2,2022.2.4,59.79498689916144,
0,0,0.0,0.0,1,0,85,85,8,,,,,258.42050849998486,259.0711258999945,259.0711258999945,259.57199639998726,45,315,259.57199639998726,259.57199639998726,259.57199639998726,259.57199639998726,259.57199639998726,259.57199639998726,259.57199639998726,259.57199639998726,259.57199639998726,259.92197339999257,259.92197339999257,259.92197339999257,259.92197339999257,259.92197339999257,259.92197339999257,259.92197339999257,259.92197339999257,259.92197339999257,22,0,,,259.92197339999257,260.1221405999968,0.0,260.1388358999975,0,0.0,0,1,1000,num_1,0.6246108000050299,,20,11,2026-03-02_16h21.46.995,2026A_exp2,2022.2.4,59.79498689916144,
1000,1,0.0,4.9,0,0,86,86,77,,,,,260.7895615999878,261.4402703999949,261.4402703999949,261.92445199997746,315,45,261.92445199997746,261.92445199997746,261.92445199997746,261.92445199997746,261.92445199997746,261.92445199997746,261.92445199997746,261.92445199997746,261.92445199997746,262.2909012000018,262.2909012000018,262.2909012000018,262.2909012000018,262.2909012000018,262.2909012000018,262.2909012000018,262.2909012000018,262.2909012000018,18,4,"[0.0012756999931298196, 0.11701749998610467, 0.20038229998317547, 0.3671757999982219]","[0.01735129998996854, 0.1335012000054121, 0.2169685999979265, 0.3671803000033833]",262.2909012000018,262.4924391999957,1000,262.4924391999957,1000,1000,1000,1000,1,num_2,0.4704517000063788,,20,11,2026-03-02_16h21.46.995,2026A_exp2,2022.2.4,59.79498689916144,
1000,1,4.9,3.7,1,0,87,87,67,,,,,262.9917525999772,263.64234249998117,263.64234249998117,264.1434722999984,45,45,264.1434722999984,264.1434722999984,264.1434722999984,264.1434722999984,264.1434722999984,264.1434722999984,264.1434722999984,264.1434722999984,264.1434722999984,264.4929770999879,264.4929770999879,264.4929770999879,264.4929770999879,264.4929770999879,264.4929770999879,264.4929770999879,264.4929770999879,264.4929770999879,22,0,,,264.4929770999879,264.6951560000016,1000,264.6951560000016,1000,1000,1000,1000,0,num_3,0.34023179998621345,,20,11,2026-03-02_16h21.46.995,2026A_exp2,2022.2.4,59.79498689916144,
1000,1,4.9,0.0,0,0,88,88,22,,,,,265.06044380000094,265.7110611999815,265.7110611999815,266.2120903999894,45,45,266.2120903999894,266.2120903999894,266.2120903999894,266.2120903999894,266.2120903999894,266.2120903999894,266.2120903999894,266.2120903999894,266.2120903999894,266.57849329998135,266.57849329998135,266.57849329998135,266.57849329998135,266.57849329998135,266.57849329998135,266.57849329998135,266.57849329998135,266.57849329998135,23,0,,,266.57849329998135,266.7805995999952,1000,266.7805995999952,1000,1000,1000,1000,0,num_3,0.3657148999918718,,20,11,2026-03-02_16h21.46.995,2026A_exp2,2022.2.4,59.79498689916144,
0,0,0.0,6.1,1,0,89,89,76,,,,,267.1626239999896,267.81306600000244,267.81306600000244,268.3143100999878,315,315,268.3143100999878,268.3143100999878,268.3143100999878,268.3143100999878,268.3143100999878,268.3143100999878,268.3143100999878,268.3143100999878,268.3143100999878,268.6804610999825,268.6804610999825,268.6804610999825,268.6804610999825,268.6804610999825,268.6804610999825,268.6804610999825,268.6804610999825,268.6804610999825,23,0,,,268.6804610999825,268.88083309997455,0.0,268.88083309997455,0,0.0,0,1,1000,num_1,0.7223676000139676,,20,11,2026-03-02_16h21.46.995,2026A_exp2,2022.2.4,59.79498689916144,
,,,,,,,,,,,,,,,,,,,,,,,,,,,,,,,,,,,,,,,,,,,,,,,,,,,,269.6462579999934,,,,,,,
