validity,detectorcomp,contrastCW,contrastCCW,precueCWorCCW,block_80trials.thisRepN,block_80trials.thisTrialN,block_80trials.thisN,block_80trials.thisIndex,etRecord.started,etRecord.stopped,text.started,text.stopped,text_4.started,text_4.stopped,text_6.started,text_6.stopped,oriCW,oriCCW,roi_2.started,grating_UR.started,grating_UL.started,grating_LR.started,grating_LL.started,noise_UR.started,noise_UL.started,noise_LR.started,noise_LL.started,roi_2.stopped,grating_UR.stopped,grating_UL.stopped,grating_LR.stopped,grating_LL.stopped,noise_UR.stopped,noise_UL.stopped,noise_LR.stopped,noise_LL.stopped,outframe,roi_2.numLooks,roi_2.timesOn,roi_2.timesOff,text_2.started,text_2.stopped,probedcontrast,key_resp.started,respdetect,relevantContrast,correctDetect,TorFdetect,respCWorCCW,key_resp.keys,key_resp.rt,feedback_display_.started,participantNo,blockNo,date,expName,psychopyVersion,frameRate,
1000,1,3.7,4.9,0,0,0,0,80,5.250002141110599e-05,5.250002141110599e-05,57.06939950000378,59.07406179999816,59.07406179999816,59.70683929999359,59.70683929999359,60.233994300011545,315,45,60.233994300011545,60.233994300011545,60.233994300011545,60.233994300011545,60.233994300011545,60.233994300011545,60.233994300011545,60.233994300011545,60.233994300011545,60.574310399999376,60.574310399999376,60.574310399999376,60.574310399999376,60.574310399999376,60.574310399999376,60.574310399999376,60.574310399999376,60.574310399999376,0,1,[0.0010578999936114997],[0.364899099979084],60.574310399999376,60.77618270000676,1000,60.77618270000676,1000,1000,1000,1000,0,num_3,0.9140700999996625,,21,9,2026-03-02_18h01.59.387,2026A_exp2,2022.2.4,59.9159020447261,
1000,1,0.0,6.1,1,0,1,1,52,,,,,61.70903769999859,62.35956129999249,62.35956129999249,62.860738599993056,315,315,62.860738599993056,62.860738599993056,62.860738599993056,62.860738599993056,62.860738599993056,62.860738599993056,62.860738599993056,62.860738599993056,62.860738599993056,63.2272828000132,63.2272828000132,63.2272828000132,63.2272828000132,63.2272828000132,63.2272828000132,63.2272828000132,63.2272828000132,63.2272828000132,0,1,[0.0009332000045105815],[0.36707100001513027],63.2272828000132,63.42771630000789,1000,63.42771630000789,1000,1000,1000,1000,1,num_2,0.7501361000176985,,21,9,2026-03-02_18h01.59.387,2026A_exp2,2022.2.4,59.9159020447261,
1000,1,0.0,6.1,0,0,2,2,58,,,,,64.19501530000707,64.845361100015,64.845361100015,65.34641309999279,315,315,65.34641309999279,65.34641309999279,65.34641309999279,65.34641309999279,65.34641309999279,65.34641309999279,65.34641309999279,65.34641309999279,65.34641309999279,65.69635980000021,65.69635980000021,65.69635980000021,65.69635980000021,65.69635980000021,65.69635980000021,65.69635980000021,65.69635980000021,65.69635980000021,0,1,[0.0007897999894339591],[0.35036879999097437],65.69635980000021,65.89656230001128,1000,65.89656230001128,1000,1000,1000,1000,1,num_2,0.8087426999991294,,21,9,2026-03-02_18h01.59.387,2026A_exp2,2022.2.4,59.9159020447261,
1000,1,0.0,0.0,0,0,3,3,37,,,,,66.73058639999363,67.36472849998972,67.36472849998972,67.86604920000536,45,315,67.86604920000536,67.86604920000536,67.86604920000536,67.86604920000536,67.86604920000536,67.86604920000536,67.86604920000536,67.86604920000536,67.86604920000536,68.23222870001337,68.23222870001337,68.23222870001337,68.23222870001337,68.23222870001337,68.23222870001337,68.23222870001337,68.23222870001337,68.23222870001337,0,1,[0.0009389000188093632],[0.36710289999609813],68.23222870001337,68.43273070000578,1000,68.43273070000578,1000,1000,1000,1000,1,num_2,0.8890339999925345,,21,9,2026-03-02_18h01.59.387,2026A_exp2,2022.2.4,59.9159020447261,
1000,1,0.0,0.0,1,0,4,4,40,,,,,69.35017200000584,70.00083430000814,70.00083430000814,70.50246439999319,315,45,70.50246439999319,70.50246439999319,70.50246439999319,70.50246439999319,70.50246439999319,70.50246439999319,70.50246439999319,70.50246439999319,70.50246439999319,70.8681571999914,70.8681571999914,70.8681571999914,70.8681571999914,70.8681571999914,70.8681571999914,70.8681571999914,70.8681571999914,70.8681571999914,0,1,[0.000766399985877797],[0.3670679999922868],70.8681571999914,71.06850009999471,1000,71.06850009999471,1000,1000,1000,1000,0,num_3,1.3805710999877192,,21,9,2026-03-02_18h01.59.387,2026A_exp2,2022.2.4,59.9159020447261,
1000,1,3.7,4.9,1,0,5,5,20,,,,,72.4701911000011,73.12059890001547,73.12059890001547,73.62156530001084,45,315,73.62156530001084,73.62156530001084,73.62156530001084,73.62156530001084,73.62156530001084,73.62156530001084,73.62156530001084,73.62156530001084,73.62156530001084,73.98817689999123,73.98817689999123,73.98817689999123,73.98817689999123,73.98817689999123,73.98817689999123,73.98817689999123,73.98817689999123,73.98817689999123,0,1,[0.0007671999919693917],[0.36726110000745393],73.98817689999123,74.18926800001645,1000,74.18926800001645,1000,1000,1000,1000,1,num_2,0.5801577999955043,,21,9,2026-03-02_18h01.59.387,2026A_exp2,2022.2.4,59.9159020447261,
1000,1,6.1,4.9,0,0,6,6,68,,,,,74.78899639999145,75.43949429999338,75.43949429999338,75.94045369999367,45,45,75.94045369999367,75.94045369999367,75.94045369999367,75.94045369999367,75.94045369999367,75.94045369999367,75.94045369999367,75.94045369999367,75.94045369999367,76.29044270000304,76.29044270000304,76.29044270000304,76.29044270000304,76.29044270000304,76.29044270000304,76.29044270000304,76.29044270000304,76.29044270000304,0,1,[0.0008511999913025647],[0.350576099997852],76.29044270000304,76.4904622999893,1000,76.4904622999893,1000,1000,1000,1000,0,num_3,0.5991417999903206,,21,9,2026-03-02_18h01.59.387,2026A_exp2,2022.2.4,59.9159020447261,
1000,1,3.7,4.9,0,0,7,7,64,,,,,77.10796300001675,77.75909700000193,77.75909700000193,78.24293800001033,315,315,78.24293800001033,78.24293800001033,78.24293800001033,78.24293800001033,78.24293800001033,78.24293800001033,78.24293800001033,78.24293800001033,78.24293800001033,78.60936110001057,78.60936110001057,78.60936110001057,78.60936110001057,78.60936110001057,78.60936110001057,78.60936110001057,78.60936110001057,78.60936110001057,23,0,,,78.60936110001057,78.80928380001569,1000,78.80928380001569,1000,1000,1000,1000,0,num_3,0.7278382999938913,,21,9,2026-03-02_18h01.59.387,2026A_exp2,2022.2.4,59.9159020447261,
1000,1,6.1,0.0,0,0,8,8,59,,,,,79.56010639999295,80.21087350000744,80.21087350000744,80.69537530001253,315,315,80.69537530001253,80.69537530001253,80.69537530001253,80.69537530001253,80.69537530001253,80.69537530001253,80.69537530001253,80.69537530001253,80.69537530001253,81.06158149999101,81.06158149999101,81.06158149999101,81.06158149999101,81.06158149999101,81.06158149999101,81.06158149999101,81.06158149999101,81.06158149999101,23,0,,,81.06158149999101,81.26219499998842,1000,81.26219499998842,1000,1000,1000,1000,0,num_3,0.49072119998163544,,21,9,2026-03-02_18h01.59.387,2026A_exp2,2022.2.4,59.9159020447261,
0,0,6.1,0.0,1,0,9,9,30,,,,,81.77918169999612,82.42981010000221,82.42981010000221,82.91410819999874,315,315,82.91410819999874,82.91410819999874,82.91410819999874,82.91410819999874,82.91410819999874,82.91410819999874,82.91410819999874,82.91410819999874,82.91410819999874,83.28038869999,83.28038869999,83.28038869999,83.28038869999,83.28038869999,83.28038869999,83.28038869999,83.28038869999,83.28038869999,23,0,,,83.28038869999,83.48110279999673,6.1,83.48110279999673,1,6.1,1,1,1000,num_4,0.6878887999919243,,21,9,2026-03-02_18h01.59.387,2026A_exp2,2022.2.4,59.9159020447261,
1,0,0.0,0.0,1,0,10,10,21,,,,,84.19816759999958,84.83229260001099,84.83229260001099,85.33356719999574,45,45,85.33356719999574,85.33356719999574,85.33356719999574,85.33356719999574,85.33356719999574,85.33356719999574,85.33356719999574,85.33356719999574,85.33356719999574,85.69980510001187,85.69980510001187,85.69980510001187,85.69980510001187,85.69980510001187,85.69980510001187,85.69980510001187,85.69980510001187,85.69980510001187,22,1,[0.349599200009834],[0.3661089999950491],85.69980510001187,85.89993400001549,0.0,85.89993400001549,0,0.0,0,1,1000,num_1,0.4291162000154145,,21,9,2026-03-02_18h01.59.387,2026A_exp2,2022.2.4,59.9159020447261,
1,0,3.7,0.0,1,0,11,11,12,,,,,86.3501852999907,86.98513819999062,86.98513819999062,87.48572289998992,45,315,87.48572289998992,87.48572289998992,87.48572289998992,87.48572289998992,87.48572289998992,87.48572289998992,87.48572289998992,87.48572289998992,87.48572289998992,87.85172350000357,87.85172350000357,87.85172350000357,87.85172350000357,87.85172350000357,87.85172350000357,87.85172350000357,87.85172350000357,87.85172350000357,23,0,,,87.85172350000357,88.05194619999384,0.0,88.05194619999384,0,0.0,0,1,1000,num_1,0.5895203000109177,,21,9,2026-03-02_18h01.59.387,2026A_exp2,2022.2.4,59.9159020447261,
1000,1,0.0,6.1,1,0,12,12,3,,,,,88.66945650000707,89.30359100000351,89.30359100000351,89.80454899999313,315,315,89.80454899999313,89.80454899999313,89.80454899999313,89.80454899999313,89.80454899999313,89.80454899999313,89.80454899999313,89.80454899999313,89.80454899999313,90.17073579999851,90.17073579999851,90.17073579999851,90.17073579999851,90.17073579999851,90.17073579999851,90.17073579999851,90.17073579999851,90.17073579999851,23,0,,,90.17073579999851,90.37150400000974,1000,90.37150400000974,1000,1000,1000,1000,1,num_2,0.6304222000180744,,21,9,2026-03-02_18h01.59.387,2026A_exp2,2022.2.4,59.9159020447261,
1,0,4.9,0.0,0,0,13,13,4,,,,,91.02157720000832,91.67237879999448,91.67237879999448,92.15662419999717,315,45,92.15662419999717,92.15662419999717,92.15662419999717,92.15662419999717,92.15662419999717,92.15662419999717,92.15662419999717,92.15662419999717,92.15662419999717,92.52328670001589,92.52328670001589,92.52328670001589,92.52328670001589,92.52328670001589,92.52328670001589,92.52328670001589,92.52328670001589,92.52328670001589,3,2,"[0.000749099999666214, 0.1329068000195548]","[0.09981330001028255, 0.3671033999999054]",92.52328670001589,92.72402500000317,4.9,92.72402500000317,1,4.9,1,1,1000,num_4,0.573317100002896,,21,9,2026-03-02_18h01.59.387,2026A_exp2,2022.2.4,59.9159020447261,
1,0,3.7,6.1,1,0,14,14,77,,,,,93.32362440001452,93.95788739999989,93.95788739999989,94.45910090001416,45,315,94.45910090001416,94.45910090001416,94.45910090001416,94.45910090001416,94.45910090001416,94.45910090001416,94.45910090001416,94.45910090001416,94.45910090001416,94.82544400001643,94.82544400001643,94.82544400001643,94.82544400001643,94.82544400001643,94.82544400001643,94.82544400001643,94.82544400001643,94.82544400001643,0,1,[0.0007520999934058636],[0.36744739999994636],94.82544400001643,95.02552850000211,6.1,95.02552850000211,1,6.1,1,1,1000,num_4,0.632257599994773,,21,9,2026-03-02_18h01.59.387,2026A_exp2,2022.2.4,59.9159020447261,
1,0,0.0,6.1,0,0,15,15,82,,,,,95.67642720000003,96.31030700000701,96.31030700000701,96.8115383000113,45,315,96.8115383000113,96.8115383000113,96.8115383000113,96.8115383000113,96.8115383000113,96.8115383000113,96.8115383000113,96.8115383000113,96.8115383000113,97.17785070001264,97.17785070001264,97.17785070001264,97.17785070001264,97.17785070001264,97.17785070001264,97.17785070001264,97.17785070001264,97.17785070001264,9,6,"[0.017173000000184402, 0.04982780001591891, 0.11651370002073236, 0.20033320001675747, 0.2835856000019703, 0.36742590001085773]","[0.03349440000602044, 0.08346829999936745, 0.1836312000232283, 0.23355220002122223, 0.3505797000252642, 0.3674287000030745]",97.17785070001264,97.37791519999155,0.0,97.37791519999155,0,0.0,0,1,1000,num_1,0.5512737999961246,,21,9,2026-03-02_18h01.59.387,2026A_exp2,2022.2.4,59.9159020447261,
1,0,3.7,0.0,0,0,16,16,8,,,,,97.94525109999813,98.57915700000012,98.57915700000012,99.0804180999985,45,315,99.0804180999985,99.0804180999985,99.0804180999985,99.0804180999985,99.0804180999985,99.0804180999985,99.0804180999985,99.0804180999985,99.0804180999985,99.44657729999744,99.44657729999744,99.44657729999744,99.44657729999744,99.44657729999744,99.44657729999744,99.44657729999744,99.44657729999744,99.44657729999744,20,3,"[0.0009266000124625862, 0.33366150001529604, 0.3670212000142783]","[0.017525500006740913, 0.3503054000029806, 0.36702400000649504]",99.44657729999744,99.64690140000312,3.7,99.64690140000312,1,3.7,1,1,1000,num_4,0.737913999997545,,21,9,2026-03-02_18h01.59.387,2026A_exp2,2022.2.4,59.9159020447261,
1,0,0.0,0.0,1,0,17,17,24,,,,,100.41473459999543,101.04839690000517,101.04839690000517,101.54959400001098,315,315,101.54959400001098,101.54959400001098,101.54959400001098,101.54959400001098,101.54959400001098,101.54959400001098,101.54959400001098,101.54959400001098,101.54959400001098,101.91612420001184,101.91612420001184,101.91612420001184,101.91612420001184,101.91612420001184,101.91612420001184,101.91612420001184,101.91612420001184,101.91612420001184,23,0,,,101.91612420001184,102.11604389999411,0.0,102.11604389999411,0,0.0,0,1,1000,num_1,0.3730560000112746,,21,9,2026-03-02_18h01.59.387,2026A_exp2,2022.2.4,59.9159020447261,
1,0,6.1,3.7,0,0,18,18,31,,,,,102.51631100001396,103.15071459999308,103.15071459999308,103.6520418,45,315,103.6520418,103.6520418,103.6520418,103.6520418,103.6520418,103.6520418,103.6520418,103.6520418,103.6520418,104.01779849999002,104.01779849999002,104.01779849999002,104.01779849999002,104.01779849999002,104.01779849999002,104.01779849999002,104.01779849999002,104.01779849999002,18,1,[0.06711930001620203],[0.15066300000762567],104.01779849999002,104.21832889999496,6.1,104.21832889999496,1,6.1,1,1,1000,num_4,0.6234842000121716,,21,9,2026-03-02_18h01.59.387,2026A_exp2,2022.2.4,59.9159020447261,
1,0,0.0,3.7,0,0,19,19,61,,,,,104.86890669999411,105.50369109999156,105.50369109999156,106.0044268000056,45,315,106.0044268000056,106.0044268000056,106.0044268000056,106.0044268000056,106.0044268000056,106.0044268000056,106.0044268000056,106.0044268000056,106.0044268000056,106.37071399998968,106.37071399998968,106.37071399998968,106.37071399998968,106.37071399998968,106.37071399998968,106.37071399998968,106.37071399998968,106.37071399998968,23,0,,,106.37071399998968,106.57071699999506,0.0,106.57071699999506,0,0.0,0,1,1000,num_1,0.7188071999989916,,21,9,2026-03-02_18h01.59.387,2026A_exp2,2022.2.4,59.9159020447261,
1000,1,0.0,6.1,0,0,20,20,35,,,,,107.32140350001282,107.9718259999936,107.9718259999936,108.4562799000123,45,45,108.4562799000123,108.4562799000123,108.4562799000123,108.4562799000123,108.4562799000123,108.4562799000123,108.4562799000123,108.4562799000123,108.4562799000123,108.82293540000683,108.82293540000683,108.82293540000683,108.82293540000683,108.82293540000683,108.82293540000683,108.82293540000683,108.82293540000683,108.82293540000683,23,0,,,108.82293540000683,109.02335080000921,1000,109.02335080000921,1000,1000,1000,1000,1,num_2,0.5696513000002597,,21,9,2026-03-02_18h01.59.387,2026A_exp2,2022.2.4,59.9159020447261,
1000,1,3.7,0.0,0,0,21,21,32,,,,,109.6235871000099,110.27418619999662,110.27418619999662,110.77567120001186,45,45,110.77567120001186,110.77567120001186,110.77567120001186,110.77567120001186,110.77567120001186,110.77567120001186,110.77567120001186,110.77567120001186,110.77567120001186,111.12533690000419,111.12533690000419,111.12533690000419,111.12533690000419,111.12533690000419,111.12533690000419,111.12533690000419,111.12533690000419,111.12533690000419,22,0,,,111.12533690000419,111.32545609999215,1000,111.32545609999215,1000,1000,1000,1000,0,num_3,0.5082874999789055,,21,9,2026-03-02_18h01.59.387,2026A_exp2,2022.2.4,59.9159020447261,
1000,1,6.1,0.0,0,0,22,22,89,,,,,111.85921339999186,112.49334119999548,112.49334119999548,112.99444199999562,315,315,112.99444199999562,112.99444199999562,112.99444199999562,112.99444199999562,112.99444199999562,112.99444199999562,112.99444199999562,112.99444199999562,112.99444199999562,113.36065970000345,113.36065970000345,113.36065970000345,113.36065970000345,113.36065970000345,113.36065970000345,113.36065970000345,113.36065970000345,113.36065970000345,20,3,"[0.04998489998979494, 0.15024099999573082, 0.2838993000041228]","[0.06669609999516979, 0.16747149999719113, 0.30031349998898804]",113.36065970000345,113.5609417000087,1000,113.5609417000087,1000,1000,1000,1000,0,num_3,0.39236389999859966,,21,9,2026-03-02_18h01.59.387,2026A_exp2,2022.2.4,59.9159020447261,
1000,1,4.9,0.0,0,0,23,23,50,,,,,113.97836119998829,114.62831190001452,114.62831190001452,115.11319550001645,315,45,115.11319550001645,115.11319550001645,115.11319550001645,115.11319550001645,115.11319550001645,115.11319550001645,115.11319550001645,115.11319550001645,115.11319550001645,115.48027100000763,115.48027100000763,115.48027100000763,115.48027100000763,115.48027100000763,115.48027100000763,115.48027100000763,115.48027100000763,115.48027100000763,13,7,"[0.033649299992248416, 0.11713329999474809, 0.15128479999839328, 0.20119870000053197, 0.23588250001193956, 0.2690014000108931, 0.316938800009666]","[0.08364640001673251, 0.1340057000052184, 0.1849233999964781, 0.21916480001527816, 0.25194429999100976, 0.28583330000401475, 0.3335339000041131]",115.48027100000763,115.67993919999572,1000,115.67993919999572,1000,1000,1000,1000,0,num_3,0.36113490001298487,,21,9,2026-03-02_18h01.59.387,2026A_exp2,2022.2.4,59.9159020447261,
1000,1,0.0,4.9,0,0,24,24,53,,,,,116.06345240000519,116.71403830000781,116.71403830000781,117.19854099999066,315,45,117.19854099999066,117.19854099999066,117.19854099999066,117.19854099999066,117.19854099999066,117.19854099999066,117.19854099999066,117.19854099999066,117.19854099999066,117.56502579999506,117.56502579999506,117.56502579999506,117.56502579999506,117.56502579999506,117.56502579999506,117.56502579999506,117.56502579999506,117.56502579999506,23,0,,,117.56502579999506,117.76529830001527,1000,117.76529830001527,1000,1000,1000,1000,1,num_2,0.6363716999767348,,21,9,2026-03-02_18h01.59.387,2026A_exp2,2022.2.4,59.9159020447261,
0,0,6.1,6.1,0,0,25,25,42,,,,,118.43244070000947,119.08319649999612,119.08319649999612,119.56751379999332,45,45,119.56751379999332,119.56751379999332,119.56751379999332,119.56751379999332,119.56751379999332,119.56751379999332,119.56751379999332,119.56751379999332,119.56751379999332,119.93416609999258,119.93416609999258,119.93416609999258,119.93416609999258,119.93416609999258,119.93416609999258,119.93416609999258,119.93416609999258,119.93416609999258,23,0,,,119.93416609999258,120.13422830001218,6.1,120.13422830001218,1,6.1,1,1,1000,num_4,1.0428600999875925,,21,9,2026-03-02_18h01.59.387,2026A_exp2,2022.2.4,59.9159020447261,
1000,1,3.7,0.0,1,0,26,26,88,,,,,121.20204800000647,121.83653200001572,121.83653200001572,122.33719890000066,45,45,122.33719890000066,122.33719890000066,122.33719890000066,122.33719890000066,122.33719890000066,122.33719890000066,122.33719890000066,122.33719890000066,122.33719890000066,122.70343530000537,122.70343530000537,122.70343530000537,122.70343530000537,122.70343530000537,122.70343530000537,122.70343530000537,122.70343530000537,122.70343530000537,23,0,,,122.70343530000537,122.90384069998981,1000,122.90384069998981,1000,1000,1000,1000,0,num_3,0.5616634000034537,,21,9,2026-03-02_18h01.59.387,2026A_exp2,2022.2.4,59.9159020447261,
1000,1,6.1,4.9,0,0,27,27,49,,,,,123.48761740000919,124.13829160001478,124.13829160001478,124.62242820000392,45,315,124.62242820000392,124.62242820000392,124.62242820000392,124.62242820000392,124.62242820000392,124.62242820000392,124.62242820000392,124.62242820000392,124.62242820000392,124.98900729999878,124.98900729999878,124.98900729999878,124.98900729999878,124.98900729999878,124.98900729999878,124.98900729999878,124.98900729999878,124.98900729999878,23,0,,,124.98900729999878,125.1891084999952,1000,125.20577760000015,1000,1000,1000,1000,0,num_3,0.5391402000095695,,21,9,2026-03-02_18h01.59.387,2026A_exp2,2022.2.4,59.9159020447261,
1000,1,0.0,4.9,1,0,28,28,78,,,,,125.77299679999123,126.42378350000945,126.42378350000945,126.92488539998885,45,45,126.92488539998885,126.92488539998885,126.92488539998885,126.92488539998885,126.92488539998885,126.92488539998885,126.92488539998885,126.92488539998885,126.92488539998885,127.27454939999734,127.27454939999734,127.27454939999734,127.27454939999734,127.27454939999734,127.27454939999734,127.27454939999734,127.27454939999734,127.27454939999734,0,1,[0.0007379000016953796],[0.35059740001452155],127.27454939999734,127.47500140001648,1000,127.47500140001648,1000,1000,1000,1000,1,num_2,0.654023800016148,,21,9,2026-03-02_18h01.59.387,2026A_exp2,2022.2.4,59.9159020447261,
1,0,4.9,4.9,0,0,29,29,39,,,,,128.15882959999726,128.8094987999939,128.8094987999939,129.31024739998975,45,45,129.31024739998975,129.31024739998975,129.31024739998975,129.31024739998975,129.31024739998975,129.31024739998975,129.31024739998975,129.31024739998975,129.31024739998975,129.67697950001457,129.67697950001457,129.67697950001457,129.67697950001457,129.67697950001457,129.67697950001457,129.67697950001457,129.67697950001457,129.67697950001457,23,0,,,129.67697950001457,129.8772941000061,4.9,129.8772941000061,1,4.9,1,1,1000,num_4,0.956180500012124,,21,9,2026-03-02_18h01.59.387,2026A_exp2,2022.2.4,59.9159020447261,
1000,1,0.0,0.0,0,0,30,30,7,,,,,130.86156439999468,131.49533790000714,131.49533790000714,131.99705179999,315,45,131.99705179999,131.99705179999,131.99705179999,131.99705179999,131.99705179999,131.99705179999,131.99705179999,131.99705179999,131.99705179999,132.3630026000028,132.3630026000028,132.3630026000028,132.3630026000028,132.3630026000028,132.3630026000028,132.3630026000028,132.3630026000028,132.3630026000028,23,0,,,132.3630026000028,132.56338159998995,1000,132.56338159998995,1000,1000,1000,1000,1,num_2,0.9262650999880861,,21,9,2026-03-02_18h01.59.387,2026A_exp2,2022.2.4,59.9159020447261,
1,0,0.0,6.1,0,0,31,31,43,,,,,133.51433179999003,134.16509880000376,134.16509880000376,134.6659076999931,315,315,134.6659076999931,134.6659076999931,134.6659076999931,134.6659076999931,134.6659076999931,134.6659076999931,134.6659076999931,134.6659076999931,134.6659076999931,135.0321627999947,135.0321627999947,135.0321627999947,135.0321627999947,135.0321627999947,135.0321627999947,135.0321627999947,135.0321627999947,135.0321627999947,0,1,[0.0008409000001847744],[0.3673244999954477],135.0321627999947,135.23247889999766,0.0,135.23247889999766,0,0.0,0,1,1000,num_1,0.8169709999929182,,21,9,2026-03-02_18h01.59.387,2026A_exp2,2022.2.4,59.9159020447261,
1000,1,0.0,0.0,0,0,32,32,6,,,,,136.06689509999705,136.70104049998918,136.70104049998918,137.20260650001,315,45,137.20260650001,137.20260650001,137.20260650001,137.20260650001,137.20260650001,137.20260650001,137.20260650001,137.20260650001,137.20260650001,137.568165100005,137.568165100005,137.568165100005,137.568165100005,137.568165100005,137.568165100005,137.568165100005,137.568165100005,137.568165100005,14,4,"[0.15009949999512173, 0.23354139999719337, 0.2839481999981217, 0.36683779998566024]","[0.1833842999767512, 0.2668464999878779, 0.35019009999814443, 0.36684089998016134]",137.568165100005,137.76848620001692,1000,137.76848620001692,1000,1000,1000,1000,1,num_2,0.96085510001285,,21,9,2026-03-02_18h01.59.387,2026A_exp2,2022.2.4,59.9159020447261,
0,0,0.0,4.9,0,0,33,33,14,,,,,138.75288539999747,139.40304559998913,139.40304559998913,139.88890920000267,315,315,139.88890920000267,139.88890920000267,139.88890920000267,139.88890920000267,139.88890920000267,139.88890920000267,139.88890920000267,139.88890920000267,139.88890920000267,140.2542850000027,140.2542850000027,140.2542850000027,140.2542850000027,140.2542850000027,140.2542850000027,140.2542850000027,140.2542850000027,140.2542850000027,21,1,[0.11716789999627508],[0.1509139999980107],140.2542850000027,140.45514790000743,4.9,140.45514790000743,1,4.9,1,1,1000,num_4,1.1543201999738812,,21,9,2026-03-02_18h01.59.387,2026A_exp2,2022.2.4,59.9159020447261,
1,0,6.1,6.1,0,0,34,34,27,,,,,141.63893330001156,142.2892528999946,142.2892528999946,142.77428489999147,45,315,142.77428489999147,142.77428489999147,142.77428489999147,142.77428489999147,142.77428489999147,142.77428489999147,142.77428489999147,142.77428489999147,142.77428489999147,143.1403292999894,143.1403292999894,143.1403292999894,143.1403292999894,143.1403292999894,143.1403292999894,143.1403292999894,143.1403292999894,143.1403292999894,16,3,"[0.0009092999971471727, 0.0663291999953799, 0.1835047000204213]","[0.01715110000804998, 0.13346919999457896, 0.21678700001211837]",143.1403292999894,143.34083299999475,6.1,143.34083299999475,1,6.1,1,1,1000,num_4,0.7967443999950774,,21,9,2026-03-02_18h01.59.387,2026A_exp2,2022.2.4,59.9159020447261,
0,0,0.0,0.0,1,0,35,35,38,,,,,144.15824769999017,144.7920803000161,144.7920803000161,145.29365639999742,45,315,145.29365639999742,145.29365639999742,145.29365639999742,145.29365639999742,145.29365639999742,145.29365639999742,145.29365639999742,145.29365639999742,145.29365639999742,145.659539699991,145.659539699991,145.659539699991,145.659539699991,145.659539699991,145.659539699991,145.659539699991,145.659539699991,145.659539699991,0,1,[0.0007884000078774989],[0.3670052000088617],145.659539699991,145.85986669998965,0.0,145.85986669998965,0,0.0,0,1,1000,num_1,0.3655027000058908,,21,9,2026-03-02_18h01.59.387,2026A_exp2,2022.2.4,59.9159020447261,
0,0,0.0,0.0,0,0,36,36,70,,,,,146.24353179999162,146.87759590000496,146.87759590000496,147.37869750001119,315,45,147.37869750001119,147.37869750001119,147.37869750001119,147.37869750001119,147.37869750001119,147.37869750001119,147.37869750001119,147.37869750001119,147.37869750001119,147.74503379999078,147.74503379999078,147.74503379999078,147.74503379999078,147.74503379999078,147.74503379999078,147.74503379999078,147.74503379999078,147.74503379999078,21,2,"[0.30007220001425594, 0.36755610001273453]","[0.31706520001171157, 0.36755860000266694]",147.74503379999078,147.94526529998984,0.0,147.94526529998984,0,0.0,0,1,1000,num_1,0.38392490000114776,,21,9,2026-03-02_18h01.59.387,2026A_exp2,2022.2.4,59.9159020447261,
1,0,0.0,3.7,1,0,37,37,0,,,,,148.3458277999889,148.99639210000169,148.99639210000169,149.48117390001426,45,45,149.48117390001426,149.48117390001426,149.48117390001426,149.48117390001426,149.48117390001426,149.48117390001426,149.48117390001426,149.48117390001426,149.48117390001426,149.84694799999124,149.84694799999124,149.84694799999124,149.84694799999124,149.84694799999124,149.84694799999124,149.84694799999124,149.84694799999124,149.84694799999124,5,6,"[0.0009394000226166099, 0.10077310001361184, 0.13431650001439266, 0.16730310002458282, 0.20038160000694916, 0.23424010002054274]","[0.08370899999863468, 0.11696830001892522, 0.15053340001031756, 0.1837396000046283, 0.21732240001438186, 0.36743380001280457]",149.84694799999124,150.04726729998947,3.7,150.04726729998947,1,3.7,1,1,1000,num_4,0.5623905000102241,,21,9,2026-03-02_18h01.59.387,2026A_exp2,2022.2.4,59.9159020447261,
1,0,6.1,4.9,0,0,38,38,81,,,,,150.63132809998933,151.28198950001388,151.28198950001388,151.76634960001684,315,45,151.76634960001684,151.76634960001684,151.76634960001684,151.76634960001684,151.76634960001684,151.76634960001684,151.76634960001684,151.76634960001684,151.76634960001684,152.1326345000125,152.1326345000125,152.1326345000125,152.1326345000125,152.1326345000125,152.1326345000125,152.1326345000125,152.1326345000125,152.1326345000125,23,0,,,152.1326345000125,152.33269470001687,6.1,152.33269470001687,1,6.1,1,1,1000,num_4,0.6611559999873862,,21,9,2026-03-02_18h01.59.387,2026A_exp2,2022.2.4,59.9159020447261,
1000,1,0.0,0.0,1,0,39,39,46,,,,,153.01690859999508,153.6509331999987,153.6509331999987,154.15187170001445,45,315,154.15187170001445,154.15187170001445,154.15187170001445,154.15187170001445,154.15187170001445,154.15187170001445,154.15187170001445,154.15187170001445,154.15187170001445,154.5183803999971,154.5183803999971,154.5183803999971,154.5183803999971,154.5183803999971,154.5183803999971,154.5183803999971,154.5183803999971,154.5183803999971,2,2,"[0.0007198000093922019, 0.21818480000365525]","[0.18543789998511784, 0.3681663000024855]",154.5183803999971,154.71899290001602,1000,154.71899290001602,1000,1000,1000,1000,0,num_3,0.9379298000130802,,21,9,2026-03-02_18h01.59.387,2026A_exp2,2022.2.4,59.9159020447261,
1000,1,0.0,0.0,0,0,40,40,15,,,,,155.6866941000044,156.33744000000297,156.33744000000297,156.83844859999954,45,45,156.83844859999954,156.83844859999954,156.83844859999954,156.83844859999954,156.83844859999954,156.83844859999954,156.83844859999954,156.83844859999954,156.83844859999954,157.20458250000956,157.20458250000956,157.20458250000956,157.20458250000956,157.20458250000956,157.20458250000956,157.20458250000956,157.20458250000956,157.20458250000956,23,0,,,157.20458250000956,157.4048055000021,1000,157.4048055000021,1000,1000,1000,1000,0,num_3,0.844894200010458,,21,9,2026-03-02_18h01.59.387,2026A_exp2,2022.2.4,59.9159020447261,
1000,1,0.0,0.0,0,0,41,41,36,,,,,158.27254420000827,158.9062569999951,158.9062569999951,159.40710360000958,45,315,159.40710360000958,159.40710360000958,159.40710360000958,159.40710360000958,159.40710360000958,159.40710360000958,159.40710360000958,159.40710360000958,159.40710360000958,159.77452539998922,159.77452539998922,159.77452539998922,159.77452539998922,159.77452539998922,159.77452539998922,159.77452539998922,159.77452539998922,159.77452539998922,23,0,,,159.77452539998922,159.97424470001715,1000,159.97424470001715,1000,1000,1000,1000,0,num_3,0.9395810000132769,,21,9,2026-03-02_18h01.59.387,2026A_exp2,2022.2.4,59.9159020447261,
1,0,0.0,0.0,0,0,42,42,17,,,,,160.9414101000002,161.59242150001228,161.59242150001228,162.0930980000121,315,315,162.0930980000121,162.0930980000121,162.0930980000121,162.0930980000121,162.0930980000121,162.0930980000121,162.0930980000121,162.0930980000121,162.0930980000121,162.44330949999858,162.44330949999858,162.44330949999858,162.44330949999858,162.44330949999858,162.44330949999858,162.44330949999858,162.44330949999858,162.44330949999858,21,1,[0.06762190000154078],[0.08424330002162606],162.44330949999858,162.64351309998892,0.0,162.64351309998892,0,0.0,0,1,1000,num_1,0.7659262999950442,,21,9,2026-03-02_18h01.59.387,2026A_exp2,2022.2.4,59.9159020447261,
1000,1,0.0,6.1,0,0,43,43,85,,,,,163.42747709999094,164.06120450000162,164.06120450000162,164.5624073999934,315,45,164.5624073999934,164.5624073999934,164.5624073999934,164.5624073999934,164.5624073999934,164.5624073999934,164.5624073999934,164.5624073999934,164.5624073999934,164.92906960000983,164.92906960000983,164.92906960000983,164.92906960000983,164.92906960000983,164.92906960000983,164.92906960000983,164.92906960000983,164.92906960000983,22,1,[0.0007570000016130507],[0.017323999985819682],164.92906960000983,165.12924239999847,1000,165.12924239999847,1000,1000,1000,1000,1,num_2,0.9846869000175502,,21,9,2026-03-02_18h01.59.387,2026A_exp2,2022.2.4,59.9159020447261,
1,0,3.7,3.7,1,0,44,44,86,,,,,166.130258899997,166.78078450000612,166.78078450000612,167.28196240001125,315,315,167.28196240001125,167.28196240001125,167.28196240001125,167.28196240001125,167.28196240001125,167.28196240001125,167.28196240001125,167.28196240001125,167.28196240001125,167.63138219999382,167.63138219999382,167.63138219999382,167.63138219999382,167.63138219999382,167.63138219999382,167.63138219999382,167.63138219999382,167.63138219999382,21,1,[0.08329119998961687],[0.10000469998340122],167.63138219999382,167.8316455000022,3.7,167.8316455000022,1,3.7,1,1,1000,num_4,1.6580990999937057,,21,9,2026-03-02_18h01.59.387,2026A_exp2,2022.2.4,59.9159020447261,
0,0,0.0,3.7,0,0,45,45,47,,,,,169.51679039999726,170.15080520001356,170.15080520001356,170.6519685999956,315,315,170.6519685999956,170.6519685999956,170.6519685999956,170.6519685999956,170.6519685999956,170.6519685999956,170.6519685999956,170.6519685999956,170.6519685999956,171.0183781000087,171.0183781000087,171.0183781000087,171.0183781000087,171.0183781000087,171.0183781000087,171.0183781000087,171.0183781000087,171.0183781000087,5,3,"[0.0007170000171754509, 0.06691319998935796, 0.2673773000133224]","[0.05022160001681186, 0.2505955999949947, 0.33415499998955056]",171.0183781000087,171.218489699997,3.7,171.218489699997,0,3.7,1,0,1000,num_1,0.44703670000308193,,21,9,2026-03-02_18h01.59.387,2026A_exp2,2022.2.4,59.9159020447261,
1,0,4.9,6.1,0,0,46,46,33,,,,,171.6857839000004,172.33644829998957,172.33644829998957,172.82101819998934,45,45,172.82101819998934,172.82101819998934,172.82101819998934,172.82101819998934,172.82101819998934,172.82101819998934,172.82101819998934,172.82101819998934,172.82101819998934,173.1873414000147,173.1873414000147,173.1873414000147,173.1873414000147,173.1873414000147,173.1873414000147,173.1873414000147,173.1873414000147,173.1873414000147,13,6,"[0.01736280001932755, 0.10028160002548248, 0.18425230000866577, 0.2532517000217922, 0.2844270000059623, 0.3501453000062611]","[0.03407410002546385, 0.15029630000935867, 0.2016297000227496, 0.26756590002332814, 0.3179328000114765, 0.36691010001231916]",173.1873414000147,173.38918870000634,4.9,173.38918870000634,0,4.9,1,0,1000,num_1,2.5638592000177596,,21,9,2026-03-02_18h01.59.387,2026A_exp2,2022.2.4,59.9159020447261,
1,0,4.9,3.7,1,0,47,47,26,,,,,175.9731388000073,176.60843439999735,176.60843439999735,177.10848830000032,315,45,177.10848830000032,177.10848830000032,177.10848830000032,177.10848830000032,177.10848830000032,177.10848830000032,177.10848830000032,177.10848830000032,177.10848830000032,177.47615380000207,177.47615380000207,177.47615380000207,177.47615380000207,177.47615380000207,177.47615380000207,177.47615380000207,177.47615380000207,177.47615380000207,16,5,"[0.032910199981415644, 0.06614690000424162, 0.11679749999893829, 0.28398599999491125, 0.31786479998845607]","[0.04944209998939186, 0.09977699999581091, 0.13361200000508688, 0.30038479997892864, 0.35070599999744445]",177.47615380000207,177.69174760000897,3.7,177.69174760000897,0,3.7,1,0,1000,num_1,0.741862900002161,,21,9,2026-03-02_18h01.59.387,2026A_exp2,2022.2.4,59.9159020447261,
1000,1,0.0,0.0,1,0,48,48,60,,,,,178.4592731000157,179.09365049999906,179.09365049999906,179.59409709999454,45,45,179.59409709999454,179.59409709999454,179.59409709999454,179.59409709999454,179.59409709999454,179.59409709999454,179.59409709999454,179.59409709999454,179.59409709999454,179.96063159999903,179.96063159999903,179.96063159999903,179.96063159999903,179.96063159999903,179.96063159999903,179.96063159999903,179.96063159999903,179.96063159999903,11,9,"[0.000899500009836629, 0.04997329998877831, 0.08342099998844787, 0.11654300001100637, 0.18288020000909455, 0.21702410001307726, 0.25020360000780784, 0.28391229998669587, 0.34988689998863265]","[0.03356720000738278, 0.06689859999460168, 0.10010129999136552, 0.13341720000607893, 0.1995345999894198, 0.23376619999180548, 0.26684289998956956, 0.33359359999303706, 0.3668721000140067]",179.96063159999903,180.16111980000278,1000,180.16111980000278,1000,1000,1000,1000,0,num_3,0.8558703000016976,,21,9,2026-03-02_18h01.59.387,2026A_exp2,2022.2.4,59.9159020447261,
1000,1,0.0,0.0,1,0,49,49,16,,,,,181.04473600001074,181.67926410000655,181.67926410000655,182.18001280000317,45,315,182.18001280000317,182.18001280000317,182.18001280000317,182.18001280000317,182.18001280000317,182.18001280000317,182.18001280000317,182.18001280000317,182.18001280000317,182.54601620000903,182.54601620000903,182.54601620000903,182.54601620000903,182.54601620000903,182.54601620000903,182.54601620000903,182.54601620000903,182.54601620000903,15,4,"[0.0007389999809674919, 0.06687899999087676, 0.15051039998070337, 0.21712289997958578]","[0.050681900000199676, 0.11729149997700006, 0.1669794999761507, 0.23390709998784587]",182.54601620000903,182.74683399999049,1000,182.74683399999049,1000,1000,1000,1000,0,num_3,0.7745604999945499,,21,9,2026-03-02_18h01.59.387,2026A_exp2,2022.2.4,59.9159020447261,
1000,1,0.0,0.0,0,0,50,50,87,,,,,183.5475420000148,184.19815320000635,184.19815320000635,184.68239550001454,45,45,184.68239550001454,184.68239550001454,184.68239550001454,184.68239550001454,184.68239550001454,184.68239550001454,184.68239550001454,184.68239550001454,184.68239550001454,185.048998400016,185.048998400016,185.048998400016,185.048998400016,185.048998400016,185.048998400016,185.048998400016,185.048998400016,185.048998400016,15,7,"[0.03315339999971911, 0.0660677999840118, 0.13345019999542274, 0.2002601999847684, 0.2670810999989044, 0.30028879997553304, 0.33386349998181686]","[0.04940449999412522, 0.11660529999062419, 0.15009129999089055, 0.21721709999837913, 0.2835952999885194, 0.3169307999778539, 0.3505664999829605]",185.048998400016,185.24932130001253,1000,185.24932130001253,1000,1000,1000,1000,0,num_3,0.7839160000148695,,21,9,2026-03-02_18h01.59.387,2026A_exp2,2022.2.4,59.9159020447261,
1,0,3.7,0.0,1,0,51,51,28,,,,,186.05007679999107,186.70086720000836,186.70086720000836,187.1851730000053,315,45,187.1851730000053,187.1851730000053,187.1851730000053,187.1851730000053,187.1851730000053,187.1851730000053,187.1851730000053,187.1851730000053,187.1851730000053,187.55225790000986,187.55225790000986,187.55225790000986,187.55225790000986,187.55225790000986,187.55225790000986,187.55225790000986,187.55225790000986,187.55225790000986,11,4,"[0.017480900016380474, 0.16729290000512265, 0.20042030001059175, 0.3675015000044368]","[0.10045880000689067, 0.18381950000184588, 0.2843952000257559, 0.36750440002651885]",187.55225790000986,187.75201840000227,0.0,187.75201840000227,0,0.0,0,1,1000,num_1,0.7292885000060778,,21,9,2026-03-02_18h01.59.387,2026A_exp2,2022.2.4,59.9159020447261,
1,0,4.9,3.7,0,0,52,52,9,,,,,188.50270979999914,189.1531983000168,189.1531983000168,189.6542102000094,45,45,189.6542102000094,189.6542102000094,189.6542102000094,189.6542102000094,189.6542102000094,189.6542102000094,189.6542102000094,189.6542102000094,189.6542102000094,190.02029740001308,190.02029740001308,190.02029740001308,190.02029740001308,190.02029740001308,190.02029740001308,190.02029740001308,190.02029740001308,190.02029740001308,4,2,"[0.00073490000795573, 0.2669496000162326]","[0.23351910000201315, 0.3501989000069443]",190.02029740001308,190.22087600000668,4.9,190.22087600000668,1,4.9,1,1,1000,num_4,0.5089245999988634,,21,9,2026-03-02_18h01.59.387,2026A_exp2,2022.2.4,59.9159020447261,
1,0,3.7,0.0,1,0,53,53,11,,,,,190.75466579999193,191.3890531999932,191.3890531999932,191.88997970000491,315,315,191.88997970000491,191.88997970000491,191.88997970000491,191.88997970000491,191.88997970000491,191.88997970000491,191.88997970000491,191.88997970000491,191.88997970000491,192.25679660000606,192.25679660000606,192.25679660000606,192.25679660000606,192.25679660000606,192.25679660000606,192.25679660000606,192.25679660000606,192.25679660000606,0,1,[0.0009987000084947795],[0.36669439999968745],192.25679660000606,192.45662979999906,0.0,192.45662979999906,0,0.0,0,1,1000,num_1,0.6645752000040375,,21,9,2026-03-02_18h01.59.387,2026A_exp2,2022.2.4,59.9159020447261,
1000,1,0.0,4.9,1,0,54,54,79,,,,,193.14047069998924,193.790951700008,193.790951700008,194.27567229999113,45,315,194.27567229999113,194.27567229999113,194.27567229999113,194.27567229999113,194.27567229999113,194.27567229999113,194.27567229999113,194.27567229999113,194.27567229999113,194.6424823999987,194.6424823999987,194.6424823999987,194.6424823999987,194.6424823999987,194.6424823999987,194.6424823999987,194.6424823999987,194.6424823999987,20,2,"[0.316607099986868, 0.3504837999935262]","[0.3334300999995321, 0.36810149997472763]",194.6424823999987,194.84262800001306,1000,194.84262800001306,1000,1000,1000,1000,1,num_2,0.6068910000030883,,21,9,2026-03-02_18h01.59.387,2026A_exp2,2022.2.4,59.9159020447261,
1,0,4.9,3.7,1,0,55,55,10,,,,,195.47601340000983,196.11007319999044,196.11007319999044,196.6113997999928,315,45,196.6113997999928,196.6113997999928,196.6113997999928,196.6113997999928,196.6113997999928,196.6113997999928,196.6113997999928,196.6113997999928,196.6113997999928,196.97728369999095,196.97728369999095,196.97728369999095,196.97728369999095,196.97728369999095,196.97728369999095,196.97728369999095,196.97728369999095,196.97728369999095,5,4,"[0.0007717999978922307, 0.23411079999641515, 0.2672673000197392, 0.3012102000066079]","[0.21731830001226626, 0.25047600001562387, 0.28382400001282804, 0.350304599996889]",196.97728369999095,197.17773339999258,3.7,197.17773339999258,1,3.7,1,1,1000,num_4,0.7594070000050124,,21,9,2026-03-02_18h01.59.387,2026A_exp2,2022.2.4,59.9159020447261,
1000,1,0.0,0.0,1,0,56,56,56,,,,,197.96193610000773,198.61263660000986,198.61263660000986,199.0971514999983,315,315,199.0971514999983,199.0971514999983,199.0971514999983,199.0971514999983,199.0971514999983,199.0971514999983,199.0971514999983,199.0971514999983,199.0971514999983,199.46356559998821,199.46356559998821,199.46356559998821,199.46356559998821,199.46356559998821,199.46356559998821,199.46356559998821,199.46356559998821,199.46356559998821,0,1,[0.0007705999887548387],[0.36798859998816624],199.46356559998821,199.66363600001205,1000,199.66363600001205,1000,1000,1000,1000,0,num_3,0.7704455000057351,,21,9,2026-03-02_18h01.59.387,2026A_exp2,2022.2.4,59.9159020447261,
1000,1,3.7,0.0,1,0,57,57,54,,,,,200.46472819999326,201.1154346000112,201.1154346000112,201.5994684000034,315,45,201.5994684000034,201.5994684000034,201.5994684000034,201.5994684000034,201.5994684000034,201.5994684000034,201.5994684000034,201.5994684000034,201.5994684000034,201.9660348999896,201.9660348999896,201.9660348999896,201.9660348999896,201.9660348999896,201.9660348999896,201.9660348999896,201.9660348999896,201.9660348999896,23,0,,,201.9660348999896,202.1668287999928,1000,202.1668287999928,1000,1000,1000,1000,0,num_3,0.5941607000131626,,21,9,2026-03-02_18h01.59.387,2026A_exp2,2022.2.4,59.9159020447261,
1000,1,0.0,0.0,1,0,58,58,23,,,,,202.78363320001517,203.43388810000033,203.43388810000033,203.9185157000029,45,45,203.9185157000029,203.9185157000029,203.9185157000029,203.9185157000029,203.9185157000029,203.9185157000029,203.9185157000029,203.9185157000029,203.9185157000029,204.28494189999765,204.28494189999765,204.28494189999765,204.28494189999765,204.28494189999765,204.28494189999765,204.28494189999765,204.28494189999765,204.28494189999765,0,1,[0.0007591999892611057],[0.3679073999810498],204.28494189999765,204.48548189998837,1000,204.48548189998837,1000,1000,1000,1000,0,num_3,1.0113877999829128,,21,9,2026-03-02_18h01.59.387,2026A_exp2,2022.2.4,59.9159020447261,
1,0,0.0,0.0,1,0,59,59,41,,,,,205.51967939999304,206.17015960000572,206.17015960000572,206.67137190001085,315,315,206.67137190001085,206.67137190001085,206.67137190001085,206.67137190001085,206.67137190001085,206.67137190001085,206.67137190001085,206.67137190001085,206.67137190001085,207.03762519999873,207.03762519999873,207.03762519999873,207.03762519999873,207.03762519999873,207.03762519999873,207.03762519999873,207.03762519999873,207.03762519999873,23,0,,,207.03762519999873,207.23785060000955,0.0,207.23785060000955,0,0.0,0,1,1000,num_1,0.851014000014402,,21,9,2026-03-02_18h01.59.387,2026A_exp2,2022.2.4,59.9159020447261,
1000,1,0.0,4.9,0,0,60,60,74,,,,,208.10528160000104,208.75598220000393,208.75598220000393,209.24054580001393,45,315,209.24054580001393,209.24054580001393,209.24054580001393,209.24054580001393,209.24054580001393,209.24054580001393,209.24054580001393,209.24054580001393,209.24054580001393,209.60701649999828,209.60701649999828,209.60701649999828,209.60701649999828,209.60701649999828,209.60701649999828,209.60701649999828,209.60701649999828,209.60701649999828,23,0,,,209.60701649999828,209.80721490000724,1000,209.80721490000724,1000,1000,1000,1000,1,num_2,0.5307680000260007,,21,9,2026-03-02_18h01.59.387,2026A_exp2,2022.2.4,59.9159020447261,
1000,1,0.0,6.1,0,0,61,61,2,,,,,210.35878320000484,211.00819650001358,211.00819650001358,211.5091928000038,45,45,211.5091928000038,211.5091928000038,211.5091928000038,211.5091928000038,211.5091928000038,211.5091928000038,211.5091928000038,211.5091928000038,211.5091928000038,211.87579900000128,211.87579900000128,211.87579900000128,211.87579900000128,211.87579900000128,211.87579900000128,211.87579900000128,211.87579900000128,211.87579900000128,23,0,,,211.87579900000128,212.0763336000091,1000,212.0763336000091,1000,1000,1000,1000,1,num_2,0.3973953000095207,,21,9,2026-03-02_18h01.59.387,2026A_exp2,2022.2.4,59.9159020447261,
1000,1,3.7,0.0,0,0,62,62,66,,,,,212.49323620001087,213.14392370000132,213.14392370000132,213.62820700000157,45,45,213.62820700000157,213.62820700000157,213.62820700000157,213.62820700000157,213.62820700000157,213.62820700000157,213.62820700000157,213.62820700000157,213.62820700000157,213.99468460000935,213.99468460000935,213.99468460000935,213.99468460000935,213.99468460000935,213.99468460000935,213.99468460000935,213.99468460000935,213.99468460000935,23,0,,,213.99468460000935,214.195152100001,1000,214.195152100001,1000,1000,1000,1000,0,num_3,0.3578523000178393,,21,9,2026-03-02_18h01.59.387,2026A_exp2,2022.2.4,59.9159020447261,
1000,1,0.0,0.0,0,0,63,63,72,,,,,214.5782140000083,215.2128580000135,215.2128580000135,215.7135236999893,45,315,215.7135236999893,215.7135236999893,215.7135236999893,215.7135236999893,215.7135236999893,215.7135236999893,215.7135236999893,215.7135236999893,215.7135236999893,216.08000039999024,216.08000039999024,216.08000039999024,216.08000039999024,216.08000039999024,216.08000039999024,216.08000039999024,216.08000039999024,216.08000039999024,23,0,,,216.08000039999024,216.28003739999258,1000,216.28003739999258,1000,1000,1000,1000,0,num_3,0.9610961000144016,,21,9,2026-03-02_18h01.59.387,2026A_exp2,2022.2.4,59.9159020447261,
1000,1,0.0,4.9,1,0,64,64,55,,,,,217.26417470001616,217.8986057000002,217.8986057000002,218.39966970001115,45,315,218.39966970001115,218.39966970001115,218.39966970001115,218.39966970001115,218.39966970001115,218.39966970001115,218.39966970001115,218.39966970001115,218.39966970001115,218.7662876000104,218.7662876000104,218.7662876000104,218.7662876000104,218.7662876000104,218.7662876000104,218.7662876000104,218.7662876000104,218.7662876000104,23,0,,,218.7662876000104,218.96665760001633,1000,218.96665760001633,1000,1000,1000,1000,1,num_2,0.41038360001402907,,21,9,2026-03-02_18h01.59.387,2026A_exp2,2022.2.4,59.9159020447261,
1000,1,0.0,0.0,0,0,65,65,45,,,,,219.40038850001292,220.0505417000095,220.0505417000095,220.53524640001706,315,45,220.53524640001706,220.53524640001706,220.53524640001706,220.53524640001706,220.53524640001706,220.53524640001706,220.53524640001706,220.53524640001706,220.53524640001706,220.9019840999972,220.9019840999972,220.9019840999972,220.9019840999972,220.9019840999972,220.9019840999972,220.9019840999972,220.9019840999972,220.9019840999972,21,1,[0.0007297999982256442],[0.03399740002350882],220.9019840999972,221.10184370001662,1000,221.10184370001662,1000,1000,1000,1000,0,num_3,1.5957940999942366,,21,9,2026-03-02_18h01.59.387,2026A_exp2,2022.2.4,59.9159020447261,
1000,1,0.0,6.1,0,0,66,66,75,,,,,222.7201439999917,223.37076009999146,223.37076009999146,223.87183690001257,315,315,223.87183690001257,223.87183690001257,223.87183690001257,223.87183690001257,223.87183690001257,223.87183690001257,223.87183690001257,223.87183690001257,223.87183690001257,224.23827950001578,224.23827950001578,224.23827950001578,224.23827950001578,224.23827950001578,224.23827950001578,224.23827950001578,224.23827950001578,224.23827950001578,23,0,,,224.23827950001578,224.43838880001567,1000,224.43838880001567,1000,1000,1000,1000,1,num_2,0.371110400010366,,21,9,2026-03-02_18h01.59.387,2026A_exp2,2022.2.4,59.9159020447261,
1000,1,3.7,6.1,1,0,67,67,29,,,,,224.8386271999916,225.4891542000114,225.4891542000114,225.97357050000574,45,45,225.97357050000574,225.97357050000574,225.97357050000574,225.97357050000574,225.97357050000574,225.97357050000574,225.97357050000574,225.97357050000574,225.97357050000574,226.34036100000958,226.34036100000958,226.34036100000958,226.34036100000958,226.34036100000958,226.34036100000958,226.34036100000958,226.34036100000958,226.34036100000958,14,2,"[0.0007239000115077943, 0.200380900001619]","[0.13381450000451878, 0.2173995999910403]",226.34036100000958,226.54045299999416,1000,226.54045299999416,1000,1000,1000,1000,1,num_2,0.44545679999282584,,21,9,2026-03-02_18h01.59.387,2026A_exp2,2022.2.4,59.9159020447261,
1000,1,0.0,6.1,1,0,68,68,19,,,,,227.0076548999932,227.65800920000765,227.65800920000765,228.14282070001354,45,45,228.14282070001354,228.14282070001354,228.14282070001354,228.14282070001354,228.14282070001354,228.14282070001354,228.14282070001354,228.14282070001354,228.14282070001354,228.50909609999508,228.50909609999508,228.50909609999508,228.50909609999508,228.50909609999508,228.50909609999508,228.50909609999508,228.50909609999508,228.50909609999508,1,2,"[0.0007700000132899731, 0.033828700019512326]","[0.01738240002305247, 0.36726690002251416]",228.50909609999508,228.70953480000026,1000,228.70953480000026,1000,1000,1000,1000,1,num_2,0.39636939999763854,,21,9,2026-03-02_18h01.59.387,2026A_exp2,2022.2.4,59.9159020447261,
1,0,3.7,4.9,1,0,69,69,71,,,,,229.12645360000897,229.77721759999986,229.77721759999986,230.27832360001048,315,315,230.27832360001048,230.27832360001048,230.27832360001048,230.27832360001048,230.27832360001048,230.27832360001048,230.27832360001048,230.27832360001048,230.27832360001048,230.62802870001178,230.62802870001178,230.62802870001178,230.62802870001178,230.62802870001178,230.62802870001178,230.62802870001178,230.62802870001178,230.62802870001178,22,0,,,230.62802870001178,230.82807990000583,4.9,230.82807990000583,1,4.9,1,1,1000,num_4,0.8856338999758009,,21,9,2026-03-02_18h01.59.387,2026A_exp2,2022.2.4,59.9159020447261,
1,0,4.9,4.9,0,0,70,70,84,,,,,231.74547680001706,232.3795867000008,232.3795867000008,232.88049830001546,45,45,232.88049830001546,232.88049830001546,232.88049830001546,232.88049830001546,232.88049830001546,232.88049830001546,232.88049830001546,232.88049830001546,232.88049830001546,233.2470137999917,233.2470137999917,233.2470137999917,233.2470137999917,233.2470137999917,233.2470137999917,233.2470137999917,233.2470137999917,233.2470137999917,3,2,"[0.0007134999905247241, 0.15067489998182282]","[0.13413479999871925, 0.3506881999783218]",233.2470137999917,233.4471496999904,4.9,233.4471496999904,1,4.9,1,1,1000,num_4,0.6987390000140294,,21,9,2026-03-02_18h01.59.387,2026A_exp2,2022.2.4,59.9159020447261,
1000,1,0.0,4.9,0,0,71,71,5,,,,,234.16476990000228,234.79883139999583,234.79883139999583,235.30004709999776,315,45,235.30004709999776,235.30004709999776,235.30004709999776,235.30004709999776,235.30004709999776,235.30004709999776,235.30004709999776,235.30004709999776,235.30004709999776,235.66635829998995,235.66635829998995,235.66635829998995,235.66635829998995,235.66635829998995,235.66635829998995,235.66635829998995,235.66635829998995,235.66635829998995,23,0,,,235.66635829998995,235.86636169999838,1000,235.86636169999838,1000,1000,1000,1000,1,num_2,0.5672783000045456,,21,9,2026-03-02_18h01.59.387,2026A_exp2,2022.2.4,59.9159020447261,
1000,1,0.0,3.7,0,0,72,72,57,,,,,236.45057590000215,237.1010055000079,237.1010055000079,237.60223759998917,45,315,237.60223759998917,237.60223759998917,237.60223759998917,237.60223759998917,237.60223759998917,237.60223759998917,237.60223759998917,237.60223759998917,237.60223759998917,237.95197100000223,237.95197100000223,237.95197100000223,237.95197100000223,237.95197100000223,237.95197100000223,237.95197100000223,237.95197100000223,237.95197100000223,0,1,[0.0009735999919939786],[0.3507562000013422],237.95197100000223,238.15222180000274,1000,238.15222180000274,1000,1000,1000,1000,1,num_2,0.5134995999978855,,21,9,2026-03-02_18h01.59.387,2026A_exp2,2022.2.4,59.9159020447261,
0,0,0.0,3.7,0,0,73,73,83,,,,,238.68582220000098,239.3362586000003,239.3362586000003,239.8208348999906,315,315,239.8208348999906,239.8208348999906,239.8208348999906,239.8208348999906,239.8208348999906,239.8208348999906,239.8208348999906,239.8208348999906,239.8208348999906,240.18726140001672,240.18726140001672,240.18726140001672,240.18726140001672,240.18726140001672,240.18726140001672,240.18726140001672,240.18726140001672,240.18726140001672,19,2,"[0.0007461000059265643, 0.08395279999240302]","[0.03376630001002923, 0.11742639998556115]",240.18726140001672,240.38735249999445,3.7,240.38735249999445,1,3.7,1,1,1000,num_4,1.349866300006397,,21,9,2026-03-02_18h01.59.387,2026A_exp2,2022.2.4,59.9159020447261,
0,0,4.9,4.9,1,0,74,74,48,,,,,241.7554395000043,242.38937369998894,242.38937369998894,242.89091560000088,315,315,242.89091560000088,242.89091560000088,242.89091560000088,242.89091560000088,242.89091560000088,242.89091560000088,242.89091560000088,242.89091560000088,242.89091560000088,243.25759300001664,243.25759300001664,243.25759300001664,243.25759300001664,243.25759300001664,243.25759300001664,243.25759300001664,243.25759300001664,243.25759300001664,23,0,,,243.25759300001664,243.4574338000093,4.9,243.4574338000093,1,4.9,1,1,1000,num_4,0.672229400021024,,21,9,2026-03-02_18h01.59.387,2026A_exp2,2022.2.4,59.9159020447261,
1,0,3.7,4.9,0,0,75,75,76,,,,,244.1583793000027,244.808678100002,244.808678100002,245.2935492999968,315,45,245.2935492999968,245.2935492999968,245.2935492999968,245.2935492999968,245.2935492999968,245.2935492999968,245.2935492999968,245.2935492999968,245.2935492999968,245.65958579999278,245.65958579999278,245.65958579999278,245.65958579999278,245.65958579999278,245.65958579999278,245.65958579999278,245.65958579999278,245.65958579999278,0,1,[0.0008129999914672226],[0.3676442999858409],245.65958579999278,245.8596847000008,3.7,245.8596847000008,1,3.7,1,1,1000,num_4,0.43794139998499304,,21,9,2026-03-02_18h01.59.387,2026A_exp2,2022.2.4,59.9159020447261,
1000,1,0.0,3.7,1,0,76,76,65,,,,,246.32701830001315,246.96080380000058,246.96080380000058,247.46208100000513,315,315,247.46208100000513,247.46208100000513,247.46208100000513,247.46208100000513,247.46208100000513,247.46208100000513,247.46208100000513,247.46208100000513,247.46208100000513,247.82836929999758,247.82836929999758,247.82836929999758,247.82836929999758,247.82836929999758,247.82836929999758,247.82836929999758,247.82836929999758,247.82836929999758,20,2,"[0.0007701000140514225, 0.033848099992610514]","[0.017336899996735156, 0.06733570000506006]",247.82836929999758,248.02838160001556,1000,248.02838160001556,1000,1000,1000,1000,0,num_3,1.165266199997859,,21,9,2026-03-02_18h01.59.387,2026A_exp2,2022.2.4,59.9159020447261,
0,0,0.0,0.0,0,0,77,77,22,,,,,249.21328759999597,249.8639485000167,249.8639485000167,250.34815159998834,315,45,250.34815159998834,250.34815159998834,250.34815159998834,250.34815159998834,250.34815159998834,250.34815159998834,250.34815159998834,250.34815159998834,250.34815159998834,250.71475720001035,250.71475720001035,250.71475720001035,250.71475720001035,250.71475720001035,250.71475720001035,250.71475720001035,250.71475720001035,250.71475720001035,23,0,,,250.71475720001035,250.91487269999925,0.0,250.91487269999925,0,0.0,0,1,1000,num_1,0.40663809998659417,,21,9,2026-03-02_18h01.59.387,2026A_exp2,2022.2.4,59.9159020447261,
1,0,3.7,0.0,1,0,78,78,13,,,,,251.34892930000206,251.99926899999264,251.99926899999264,252.48386370000662,315,45,252.48386370000662,252.48386370000662,252.48386370000662,252.48386370000662,252.48386370000662,252.48386370000662,252.48386370000662,252.48386370000662,252.48386370000662,252.85033529999782,252.85033529999782,252.85033529999782,252.85033529999782,252.85033529999782,252.85033529999782,252.85033529999782,252.85033529999782,252.85033529999782,13,1,[0.0007465000089723617],[0.1499498000193853],252.85033529999782,253.05068539999775,0.0,253.05068539999775,0,0.0,0,1,1000,num_1,0.5427839999902062,,21,9,2026-03-02_18h01.59.387,2026A_exp2,2022.2.4,59.9159020447261,
1,0,4.9,3.7,0,0,79,79,63,,,,,253.6172504000133,254.25186200000462,254.25186200000462,254.75271570001496,45,45,254.75271570001496,254.75271570001496,254.75271570001496,254.75271570001496,254.75271570001496,254.75271570001496,254.75271570001496,254.75271570001496,254.75271570001496,255.11957780001103,255.11957780001103,255.11957780001103,255.11957780001103,255.11957780001103,255.11957780001103,255.11957780001103,255.11957780001103,255.11957780001103,23,0,,,255.11957780001103,255.31917289999546,4.9,255.31917289999546,1,4.9,1,1,1000,num_4,0.39478470000904053,,21,9,2026-03-02_18h01.59.387,2026A_exp2,2022.2.4,59.9159020447261,
1,0,0.0,0.0,0,0,80,80,34,,,,,255.73675909999292,256.37017539999215,256.37017539999215,256.8713657000044,45,315,256.8713657000044,256.8713657000044,256.8713657000044,256.8713657000044,256.8713657000044,256.8713657000044,256.8713657000044,256.8713657000044,256.8713657000044,257.2379829999991,257.2379829999991,257.2379829999991,257.2379829999991,257.2379829999991,257.2379829999991,257.2379829999991,257.2379829999991,257.2379829999991,23,0,,,257.2379829999991,257.43818779999856,0.0,257.43818779999856,0,0.0,0,1,1000,num_1,0.41927869999199174,,21,9,2026-03-02_18h01.59.387,2026A_exp2,2022.2.4,59.9159020447261,
0,0,3.7,6.1,0,0,81,81,73,,,,,257.88851190000423,258.5226018000103,258.5226018000103,259.0239505000063,315,45,259.0239505000063,259.0239505000063,259.0239505000063,259.0239505000063,259.0239505000063,259.0239505000063,259.0239505000063,259.0239505000063,259.0239505000063,259.3900146000087,259.3900146000087,259.3900146000087,259.3900146000087,259.3900146000087,259.3900146000087,259.3900146000087,259.3900146000087,259.3900146000087,23,0,,,259.3900146000087,259.59016600000905,6.1,259.59016600000905,1,6.1,1,1,1000,num_4,0.8670905999897514,,21,9,2026-03-02_18h01.59.387,2026A_exp2,2022.2.4,59.9159020447261,
1000,1,0.0,6.1,1,0,82,82,69,,,,,260.4742077999981,261.1085130000138,261.1085130000138,261.6095760000171,315,315,261.6095760000171,261.6095760000171,261.6095760000171,261.6095760000171,261.6095760000171,261.6095760000171,261.6095760000171,261.6095760000171,261.6095760000171,261.9760135000106,261.9760135000106,261.9760135000106,261.9760135000106,261.9760135000106,261.9760135000106,261.9760135000106,261.9760135000106,261.9760135000106,23,0,,,261.9760135000106,262.1762768999906,1000,262.1762768999906,1000,1000,1000,1000,1,num_2,0.5850141000119038,,21,9,2026-03-02_18h01.59.387,2026A_exp2,2022.2.4,59.9159020447261,
1,0,0.0,0.0,0,0,83,83,44,,,,,262.7770987999975,263.4274707000004,263.4274707000004,263.928430400003,315,315,263.928430400003,263.928430400003,263.928430400003,263.928430400003,263.928430400003,263.928430400003,263.928430400003,263.928430400003,263.928430400003,264.29496210001525,264.29496210001525,264.29496210001525,264.29496210001525,264.29496210001525,264.29496210001525,264.29496210001525,264.29496210001525,264.29496210001525,23,0,,,264.29496210001525,264.49521210000967,0.0,264.49521210000967,0,0.0,0,1,1000,num_1,0.4018114000209607,,21,9,2026-03-02_18h01.59.387,2026A_exp2,2022.2.4,59.9159020447261,
1000,1,6.1,3.7,0,0,84,84,18,,,,,264.9289711000165,265.5794637000072,265.5794637000072,266.06405429998995,45,45,266.06405429998995,266.06405429998995,266.06405429998995,266.06405429998995,266.06405429998995,266.06405429998995,266.06405429998995,266.06405429998995,266.06405429998995,266.4303154000081,266.4303154000081,266.4303154000081,266.4303154000081,266.4303154000081,266.4303154000081,266.4303154000081,266.4303154000081,266.4303154000081,23,0,,,266.4303154000081,266.63078320000204,1000,266.63078320000204,1000,1000,1000,1000,0,num_3,0.5626213999930769,,21,9,2026-03-02_18h01.59.387,2026A_exp2,2022.2.4,59.9159020447261,
1,0,0.0,0.0,0,0,85,85,51,,,,,267.2147842000122,267.86517659999663,267.86517659999663,268.3659575000056,45,45,268.3659575000056,268.3659575000056,268.3659575000056,268.3659575000056,268.3659575000056,268.3659575000056,268.3659575000056,268.3659575000056,268.3659575000056,268.716358900012,268.716358900012,268.716358900012,268.716358900012,268.716358900012,268.716358900012,268.716358900012,268.716358900012,268.716358900012,22,0,,,268.716358900012,268.9162864999962,0.0,268.93277169999783,0,0.0,0,1,1000,num_1,0.33284550000098534,,21,9,2026-03-02_18h01.59.387,2026A_exp2,2022.2.4,59.9159020447261,
1,0,4.9,0.0,1,0,86,86,25,,,,,269.28359939999063,269.91743880001013,269.91743880001013,270.4187360999931,45,315,270.4187360999931,270.4187360999931,270.4187360999931,270.4187360999931,270.4187360999931,270.4187360999931,270.4187360999931,270.4187360999931,270.4187360999931,270.78486839999096,270.78486839999096,270.78486839999096,270.78486839999096,270.78486839999096,270.78486839999096,270.78486839999096,270.78486839999096,270.78486839999096,23,0,,,270.78486839999096,270.98529179999605,0.0,270.98529179999605,0,0.0,0,1,1000,num_1,0.6646114999894053,,21,9,2026-03-02_18h01.59.387,2026A_exp2,2022.2.4,59.9159020447261,
1000,1,0.0,6.1,1,0,87,87,62,,,,,271.66915830000653,272.3196334000095,272.3196334000095,272.8206621000136,45,315,272.8206621000136,272.8206621000136,272.8206621000136,272.8206621000136,272.8206621000136,272.8206621000136,272.8206621000136,272.8206621000136,272.8206621000136,273.1706017999968,273.1706017999968,273.1706017999968,273.1706017999968,273.1706017999968,273.1706017999968,273.1706017999968,273.1706017999968,273.1706017999968,0,1,[0.0007867999956943095],[0.3508412999799475],273.1706017999968,273.3703892999911,1000,273.38701310000033,1000,1000,1000,1000,1,num_2,0.5899672000086866,,21,9,2026-03-02_18h01.59.387,2026A_exp2,2022.2.4,59.9159020447261,
1000,1,0.0,0.0,0,0,88,88,67,,,,,274.0048114999954,274.65533810001216,274.65533810001216,275.1562503000023,315,45,275.1562503000023,275.1562503000023,275.1562503000023,275.1562503000023,275.1562503000023,275.1562503000023,275.1562503000023,275.1562503000023,275.1562503000023,275.5226573999971,275.5226573999971,275.5226573999971,275.5226573999971,275.5226573999971,275.5226573999971,275.5226573999971,275.5226573999971,275.5226573999971,23,0,,,275.5226573999971,275.72336500001256,1000,275.72336500001256,1000,1000,1000,1000,1,num_2,1.1579822000057902,,21,9,2026-03-02_18h01.59.387,2026A_exp2,2022.2.4,59.9159020447261,
1,0,0.0,4.9,1,0,89,89,1,,,,,276.9076022999943,277.55873230000725,277.55873230000725,278.04295979999006,315,315,278.04295979999006,278.04295979999006,278.04295979999006,278.04295979999006,278.04295979999006,278.04295979999006,278.04295979999006,278.04295979999006,278.04295979999006,278.4090661999944,278.4090661999944,278.4090661999944,278.4090661999944,278.4090661999944,278.4090661999944,278.4090661999944,278.4090661999944,278.4090661999944,21,2,"[0.14895689999684691, 0.365829099988332]","[0.16641509998589754, 0.36583180000889115]",278.4090661999944,278.6091238000081,4.9,278.6091238000081,1,4.9,1,1,1000,num_4,0.6725603000086267,,21,9,2026-03-02_18h01.59.387,2026A_exp2,2022.2.4,59.9159020447261,
,,,,,,,,,,,,,,,,,,,,,,,,,,,,,,,,,,,,,,,,,,,,,,,,,,,,279.3130275000003,,,,,,,
