validity,detectorcomp,contrastCW,contrastCCW,precueCWorCCW,block_80trials.thisRepN,block_80trials.thisTrialN,block_80trials.thisN,block_80trials.thisIndex,etRecord.started,etRecord.stopped,text.started,text.stopped,text_4.started,text_4.stopped,text_6.started,text_6.stopped,oriCW,oriCCW,roi_2.started,grating_UR.started,grating_UL.started,grating_LR.started,grating_LL.started,noise_UR.started,noise_UL.started,noise_LR.started,noise_LL.started,roi_2.stopped,grating_UR.stopped,grating_UL.stopped,grating_LR.stopped,grating_LL.stopped,noise_UR.stopped,noise_UL.stopped,noise_LR.stopped,noise_LL.stopped,outframe,roi_2.numLooks,roi_2.timesOn,roi_2.timesOff,text_2.started,text_2.stopped,probedcontrast,key_resp.started,respdetect,relevantContrast,correctDetect,TorFdetect,respCWorCCW,key_resp.keys,key_resp.rt,feedback_display_.started,participantNo,blockNo,date,expName,psychopyVersion,frameRate,
1,0,0.0,0.0,0,0,0,0,87,7.690000347793102e-05,7.690000347793102e-05,48.088147400005255,50.0910546000232,50.0910546000232,50.72500009997748,50.72500009997748,51.243332399986684,45,45,51.243332399986684,51.243332399986684,51.243332399986684,51.243332399986684,51.243332399986684,51.243332399986684,51.243332399986684,51.243332399986684,51.243332399986684,51.59262140002102,51.59262140002102,51.59262140002102,51.59262140002102,51.59262140002102,51.59262140002102,51.59262140002102,51.59262140002102,51.59262140002102,0,1,[0.0008752999710850418],[0.36715449998155236],51.59262140002102,51.79274359997362,0.0,51.79274359997362,0,0.0,0,1,1000,num_1,1.912074699997902,,24,14,2026-03-04_16h24.42.799,2026A_exp2,2022.2.4,59.93903002192022,
1,0,0.0,3.7,0,0,1,1,34,,,,,53.72824159997981,54.378750999982,54.378750999982,54.87986460002139,45,45,54.87986460002139,54.87986460002139,54.87986460002139,54.87986460002139,54.87986460002139,54.87986460002139,54.87986460002139,54.87986460002139,54.87986460002139,55.22968510002829,55.22968510002829,55.22968510002829,55.22968510002829,55.22968510002829,55.22968510002829,55.22968510002829,55.22968510002829,55.22968510002829,0,1,[0.0007272000075317919],[0.3513245999929495],55.22968510002829,55.42979089997243,0.0,55.42979089997243,0,0.0,0,1,1000,num_1,0.7149518000078388,,24,14,2026-03-04_16h24.42.799,2026A_exp2,2022.2.4,59.93903002192022,
1000,1,6.1,0.0,1,0,2,2,71,,,,,56.16390230000252,56.81461040000431,56.81461040000431,57.29902460001176,315,315,57.29902460001176,57.29902460001176,57.29902460001176,57.29902460001176,57.29902460001176,57.29902460001176,57.29902460001176,57.29902460001176,57.29902460001176,57.665436499984935,57.665436499984935,57.665436499984935,57.665436499984935,57.665436499984935,57.665436499984935,57.665436499984935,57.665436499984935,57.665436499984935,0,1,[0.001294099958613515],[0.36713219998637214],57.665436499984935,57.86619939998491,1000,57.86619939998491,1000,1000,1000,1000,0,num_3,0.742701799958013,,24,14,2026-03-04_16h24.42.799,2026A_exp2,2022.2.4,59.93903002192022,
1,0,6.1,0.0,0,0,3,3,58,,,,,58.63298230001237,59.283731499977876,59.283731499977876,59.78477660001954,315,45,59.78477660001954,59.78477660001954,59.78477660001954,59.78477660001954,59.78477660001954,59.78477660001954,59.78477660001954,59.78477660001954,59.78477660001954,60.15115699998569,60.15115699998569,60.15115699998569,60.15115699998569,60.15115699998569,60.15115699998569,60.15115699998569,60.15115699998569,60.15115699998569,0,1,[0.0013290999922901392],[0.36733670003013685],60.15115699998569,60.35134170000674,6.1,60.35134170000674,1,6.1,1,1,1000,num_4,0.7685278000426479,,24,14,2026-03-04_16h24.42.799,2026A_exp2,2022.2.4,59.93903002192022,
1,0,0.0,4.9,0,0,4,4,48,,,,,61.15231219999259,61.7883659999934,61.7883659999934,62.292562199989334,45,315,62.292562199989334,62.292562199989334,62.292562199989334,62.292562199989334,62.292562199989334,62.292562199989334,62.292562199989334,62.292562199989334,62.292562199989334,62.653739399975166,62.653739399975166,62.653739399975166,62.653739399975166,62.653739399975166,62.653739399975166,62.653739399975166,62.653739399975166,62.653739399975166,0,1,[0.002565600036177784],[0.3656404000357725],62.653739399975166,62.853910900012124,0.0,62.853910900012124,0,0.0,0,1,1000,num_1,0.9550215000053868,,24,14,2026-03-04_16h24.42.799,2026A_exp2,2022.2.4,59.93903002192022,
1000,1,3.7,0.0,0,0,5,5,28,,,,,63.838335199980065,64.47226070001489,64.47226070001489,64.97361430001911,315,45,64.97361430001911,64.97361430001911,64.97361430001911,64.97361430001911,64.97361430001911,64.97361430001911,64.97361430001911,64.97361430001911,64.97361430001911,65.33977409999352,65.33977409999352,65.33977409999352,65.33977409999352,65.33977409999352,65.33977409999352,65.33977409999352,65.33977409999352,65.33977409999352,0,1,[0.0012092999531887472],[0.3666568999760784],65.33977409999352,65.54174770001555,1000,65.54174770001555,1000,1000,1000,1000,0,num_3,0.7952387999976054,,24,14,2026-03-04_16h24.42.799,2026A_exp2,2022.2.4,59.93903002192022,
1000,1,0.0,4.9,1,0,6,6,51,,,,,66.35737209999934,67.00799369998276,67.00799369998276,67.5092130000121,45,315,67.5092130000121,67.5092130000121,67.5092130000121,67.5092130000121,67.5092130000121,67.5092130000121,67.5092130000121,67.5092130000121,67.5092130000121,67.87562170001911,67.87562170001911,67.87562170001911,67.87562170001911,67.87562170001911,67.87562170001911,67.87562170001911,67.87562170001911,67.87562170001911,0,1,[0.0012937000137753785],[0.36721090000355616],67.87562170001911,68.0777302000206,1000,68.0777302000206,1000,1000,1000,1000,1,num_2,0.5791649000020698,,24,14,2026-03-04_16h24.42.799,2026A_exp2,2022.2.4,59.93903002192022,
1000,1,0.0,0.0,1,0,7,7,8,,,,,68.67635650001466,69.32707300002221,69.32707300002221,69.82825710001634,315,45,69.82825710001634,69.82825710001634,69.82825710001634,69.82825710001634,69.82825710001634,69.82825710001634,69.82825710001634,69.82825710001634,69.82825710001634,70.19450280000456,70.19450280000456,70.19450280000456,70.19450280000456,70.19450280000456,70.19450280000456,70.19450280000456,70.19450280000456,70.19450280000456,0,1,[0.0012447999906726182],[0.36723249999340624],70.19450280000456,70.39653000002727,1000,70.39653000002727,1000,1000,1000,1000,0,num_3,1.204105000011623,,24,14,2026-03-04_16h24.42.799,2026A_exp2,2022.2.4,59.93903002192022,
1,0,0.0,0.0,1,0,8,8,24,,,,,71.62949369999114,72.2800133000128,72.2800133000128,72.78111590002663,315,45,72.78111590002663,72.78111590002663,72.78111590002663,72.78111590002663,72.78111590002663,72.78111590002663,72.78111590002663,72.78111590002663,72.78111590002663,73.14768599998206,73.14768599998206,73.14768599998206,73.14768599998206,73.14768599998206,73.14768599998206,73.14768599998206,73.14768599998206,73.14768599998206,23,0,,,73.14768599998206,73.34773640002823,0.0,73.34773640002823,0,0.0,0,1,1000,num_1,0.9408380999811925,,24,14,2026-03-04_16h24.42.799,2026A_exp2,2022.2.4,59.93903002192022,
1,0,0.0,0.0,1,0,9,9,66,,,,,74.3152587999939,74.96593730000313,74.96593730000313,75.45023979997495,45,315,75.45023979997495,75.45023979997495,75.45023979997495,75.45023979997495,75.45023979997495,75.45023979997495,75.45023979997495,75.45023979997495,75.45023979997495,75.81683969998267,75.81683969998267,75.81683969998267,75.81683969998267,75.81683969998267,75.81683969998267,75.81683969998267,75.81683969998267,75.81683969998267,0,1,[0.0008578000124543905],[0.3671899000182748],75.81683969998267,76.01708580000559,0.0,76.01708580000559,0,0.0,0,1,1000,num_1,0.9192860000184737,,24,14,2026-03-04_16h24.42.799,2026A_exp2,2022.2.4,59.93903002192022,
1,0,0.0,4.9,0,0,10,10,9,,,,,76.96794220001902,77.61854519997723,77.61854519997723,78.10302610002691,45,315,78.10302610002691,78.10302610002691,78.10302610002691,78.10302610002691,78.10302610002691,78.10302610002691,78.10302610002691,78.10302610002691,78.10302610002691,78.46953950001625,78.46953950001625,78.46953950001625,78.46953950001625,78.46953950001625,78.46953950001625,78.46953950001625,78.46953950001625,78.46953950001625,0,1,[0.0012404000153765082],[0.3671974000171758],78.46953950001625,78.66989820002345,0.0,78.66989820002345,0,0.0,0,1,1000,num_1,1.586836399976164,,24,14,2026-03-04_16h24.42.799,2026A_exp2,2022.2.4,59.93903002192022,
1000,1,0.0,0.0,1,0,11,11,72,,,,,80.28791150002507,80.938739300007,80.938739300007,81.42319260002114,45,315,81.42319260002114,81.42319260002114,81.42319260002114,81.42319260002114,81.42319260002114,81.42319260002114,81.42319260002114,81.42319260002114,81.42319260002114,81.78966599999694,81.78966599999694,81.78966599999694,81.78966599999694,81.78966599999694,81.78966599999694,81.78966599999694,81.78966599999694,81.78966599999694,1,1,[0.0012895999825559556],[0.36732239997945726],81.78966599999694,81.98986209998839,1000,81.98986209998839,1000,1000,1000,1000,0,num_3,1.7139585000113584,,24,14,2026-03-04_16h24.42.799,2026A_exp2,2022.2.4,59.93903002192022,
1000,1,6.1,0.0,1,0,12,12,61,,,,,83.72512850002386,84.37523529998725,84.37523529998725,84.87655139999697,315,315,84.87655139999697,84.87655139999697,84.87655139999697,84.87655139999697,84.87655139999697,84.87655139999697,84.87655139999697,84.87655139999697,84.87655139999697,85.24301420000847,85.24301420000847,85.24301420000847,85.24301420000847,85.24301420000847,85.24301420000847,85.24301420000847,85.24301420000847,85.24301420000847,13,3,"[0.001494100026320666, 0.13307139999233186, 0.3505231000017375]","[0.1162503000232391, 0.16660170000977814, 0.3671574000036344]",85.24301420000847,85.44522519997554,1000,85.44522519997554,1000,1000,1000,1000,0,num_3,0.4664498000056483,,24,14,2026-03-04_16h24.42.799,2026A_exp2,2022.2.4,59.93903002192022,
1000,1,0.0,6.1,0,0,13,13,85,,,,,85.92686589999357,86.57769900001585,86.57769900001585,87.0787700000219,315,315,87.0787700000219,87.0787700000219,87.0787700000219,87.0787700000219,87.0787700000219,87.0787700000219,87.0787700000219,87.0787700000219,87.0787700000219,87.44527780002682,87.44527780002682,87.44527780002682,87.44527780002682,87.44527780002682,87.44527780002682,87.44527780002682,87.44527780002682,87.44527780002682,0,1,[0.0012441000435501337],[0.36731400003191084],87.44527780002682,87.64721650001593,1000,87.64721650001593,1000,1000,1000,1000,1,num_2,0.41689400002360344,,24,14,2026-03-04_16h24.42.799,2026A_exp2,2022.2.4,59.93903002192022,
0,0,4.9,3.7,1,0,14,14,13,,,,,88.09571750002215,88.72971550002694,88.72971550002694,89.23096509999596,315,315,89.23096509999596,89.23096509999596,89.23096509999596,89.23096509999596,89.23096509999596,89.23096509999596,89.23096509999596,89.23096509999596,89.23096509999596,89.59738430002471,89.59738430002471,89.59738430002471,89.59738430002471,89.59738430002471,89.59738430002471,89.59738430002471,89.59738430002471,89.59738430002471,0,1,[0.0012156000011600554],[0.3673789000022225],89.59738430002471,89.79742720001377,4.9,89.79742720001377,0,4.9,1,0,1000,num_1,0.7874426000053063,,24,14,2026-03-04_16h24.42.799,2026A_exp2,2022.2.4,59.93903002192022,
1000,1,0.0,0.0,1,0,15,15,37,,,,,90.61488609999651,91.2657355000265,91.2657355000265,91.7501079000067,315,45,91.7501079000067,91.7501079000067,91.7501079000067,91.7501079000067,91.7501079000067,91.7501079000067,91.7501079000067,91.7501079000067,91.7501079000067,92.11646649998147,92.11646649998147,92.11646649998147,92.11646649998147,92.11646649998147,92.11646649998147,92.11646649998147,92.11646649998147,92.11646649998147,0,1,[0.001208700006827712],[0.3669209000072442],92.11646649998147,92.31944430002477,1000,92.31944430002477,1000,1000,1000,1000,0,num_3,1.0806808999623172,,24,14,2026-03-04_16h24.42.799,2026A_exp2,2022.2.4,59.93903002192022,
1,0,0.0,0.0,1,0,16,16,60,,,,,93.41772909997962,94.06836320000002,94.06836320000002,94.58350070001325,45,315,94.58350070001325,94.58350070001325,94.58350070001325,94.58350070001325,94.58350070001325,94.58350070001325,94.58350070001325,94.58350070001325,94.58350070001325,94.9361572000198,94.9361572000198,94.9361572000198,94.9361572000198,94.9361572000198,94.9361572000198,94.9361572000198,94.9361572000198,94.9361572000198,4,4,"[0.00421069998992607, 0.13228829996660352, 0.21784489997662604, 0.3652918000007048]","[0.1152198999770917, 0.20093319995794445, 0.3317655999562703, 0.36530099995434284]",94.9361572000198,95.13619980000658,0.0,95.13619980000658,0,0.0,0,1,1000,num_1,0.992881899990607,,24,14,2026-03-04_16h24.42.799,2026A_exp2,2022.2.4,59.93903002192022,
1,0,0.0,0.0,0,0,17,17,64,,,,,96.15368669998134,96.80449399998179,96.80449399998179,97.28889919997891,315,45,97.28889919997891,97.28889919997891,97.28889919997891,97.28889919997891,97.28889919997891,97.28889919997891,97.28889919997891,97.28889919997891,97.28889919997891,97.65542720002122,97.65542720002122,97.65542720002122,97.65542720002122,97.65542720002122,97.65542720002122,97.65542720002122,97.65542720002122,97.65542720002122,0,1,[0.0012617000029422343],[0.3672478999942541],97.65542720002122,97.85556439997163,0.0,97.85556439997163,0,0.0,0,1,1000,num_1,1.145393899991177,,24,14,2026-03-04_16h24.42.799,2026A_exp2,2022.2.4,59.93903002192022,
1,0,4.9,4.9,1,0,18,18,32,,,,,99.02318000001833,99.67408939998131,99.67408939998131,100.15854819997912,315,45,100.15854819997912,100.15854819997912,100.15854819997912,100.15854819997912,100.15854819997912,100.15854819997912,100.15854819997912,100.15854819997912,100.15854819997912,100.5248710999731,100.5248710999731,100.5248710999731,100.5248710999731,100.5248710999731,100.5248710999731,100.5248710999731,100.5248710999731,100.5248710999731,0,1,[0.0012146999943070114],[0.3669691000250168],100.5248710999731,100.72509979997994,4.9,100.72509979997994,1,4.9,1,1,1000,num_4,0.6994801000109874,,24,14,2026-03-04_16h24.42.799,2026A_exp2,2022.2.4,59.93903002192022,
1000,1,3.7,3.7,1,0,19,19,25,,,,,101.44230880000396,102.09316879999824,102.09316879999824,102.5775953999837,315,315,102.5775953999837,102.5775953999837,102.5775953999837,102.5775953999837,102.5775953999837,102.5775953999837,102.5775953999837,102.5775953999837,102.5775953999837,102.94401979999384,102.94401979999384,102.94401979999384,102.94401979999384,102.94401979999384,102.94401979999384,102.94401979999384,102.94401979999384,102.94401979999384,23,0,,,102.94401979999384,103.14615849999245,1000,103.14615849999245,1000,1000,1000,1000,1,num_2,1.110652500006836,,24,14,2026-03-04_16h24.42.799,2026A_exp2,2022.2.4,59.93903002192022,
1000,1,0.0,3.7,1,0,20,20,86,,,,,104.27859679999528,104.92939329997171,104.92939329997171,105.44652270001825,315,315,105.44652270001825,105.44652270001825,105.44652270001825,105.44652270001825,105.44652270001825,105.44652270001825,105.44652270001825,105.44652270001825,105.44652270001825,105.79696690000128,105.79696690000128,105.79696690000128,105.79696690000128,105.79696690000128,105.79696690000128,105.79696690000128,105.79696690000128,105.79696690000128,7,3,"[0.00472790002822876, 0.29716160002863035, 0.3305267000105232]","[0.23051900003338233, 0.3139645000337623, 0.3471939000301063]",105.79696690000128,105.99907989997882,1000,105.99907989997882,1000,1000,1000,1000,1,num_2,0.4568578000180423,,24,14,2026-03-04_16h24.42.799,2026A_exp2,2022.2.4,59.93903002192022,
1000,1,0.0,0.0,0,0,21,21,33,,,,,106.48073409998324,107.13152629998513,107.13152629998513,107.63270080002258,315,315,107.63270080002258,107.63270080002258,107.63270080002258,107.63270080002258,107.63270080002258,107.63270080002258,107.63270080002258,107.63270080002258,107.63270080002258,107.99914089997765,107.99914089997765,107.99914089997765,107.99914089997765,107.99914089997765,107.99914089997765,107.99914089997765,107.99914089997765,107.99914089997765,0,1,[0.0012883999734185636],[0.3672393999877386],107.99914089997765,108.20126990001881,1000,108.20126990001881,1000,1000,1000,1000,1,num_2,0.608055799966678,,24,14,2026-03-04_16h24.42.799,2026A_exp2,2022.2.4,59.93903002192022,
1000,1,0.0,0.0,1,0,22,22,63,,,,,108.83320499997353,109.48379490000661,109.48379490000661,109.98508239997318,315,315,109.98508239997318,109.98508239997318,109.98508239997318,109.98508239997318,109.98508239997318,109.98508239997318,109.98508239997318,109.98508239997318,109.98508239997318,110.35128940001596,110.35128940001596,110.35128940001596,110.35128940001596,110.35128940001596,110.35128940001596,110.35128940001596,110.35128940001596,110.35128940001596,1,2,"[0.001293000008445233, 0.35032750002574176]","[0.3334399000159465, 0.3669131000060588]",110.35128940001596,110.55191219999688,1000,110.55191219999688,1000,1000,1000,1000,1,num_2,0.47199469996849075,,24,14,2026-03-04_16h24.42.799,2026A_exp2,2022.2.4,59.93903002192022,
1000,1,3.7,0.0,1,0,23,23,54,,,,,111.05210209998768,111.70277929998701,111.70277929998701,112.2038646999863,315,45,112.2038646999863,112.2038646999863,112.2038646999863,112.2038646999863,112.2038646999863,112.2038646999863,112.2038646999863,112.2038646999863,112.2038646999863,112.57035970001016,112.57035970001016,112.57035970001016,112.57035970001016,112.57035970001016,112.57035970001016,112.57035970001016,112.57035970001016,112.57035970001016,18,2,"[0.13328760000877082, 0.2335884000058286]","[0.1833300999714993, 0.2672168000135571]",112.57035970001016,112.77214080002159,1000,112.77214080002159,1000,1000,1000,1000,0,num_3,1.1559025999740697,,24,14,2026-03-04_16h24.42.799,2026A_exp2,2022.2.4,59.93903002192022,
1,0,4.9,0.0,0,0,24,24,14,,,,,113.95488009997644,114.60571799997706,114.60571799997706,115.10673250001855,45,315,115.10673250001855,115.10673250001855,115.10673250001855,115.10673250001855,115.10673250001855,115.10673250001855,115.10673250001855,115.10673250001855,115.10673250001855,115.47321189998183,115.47321189998183,115.47321189998183,115.47321189998183,115.47321189998183,115.47321189998183,115.47321189998183,115.47321189998183,115.47321189998183,0,1,[0.001202500017825514],[0.3671428000088781],115.47321189998183,115.67350590002025,4.9,115.67350590002025,1,4.9,1,1,1000,num_4,1.5913589000119828,,24,14,2026-03-04_16h24.42.799,2026A_exp2,2022.2.4,59.93903002192022,
0,0,6.1,0.0,0,0,25,25,65,,,,,117.29173840000294,117.94238399999449,117.94238399999449,118.42672829999356,45,45,118.42672829999356,118.42672829999356,118.42672829999356,118.42672829999356,118.42672829999356,118.42672829999356,118.42672829999356,118.42672829999356,118.42672829999356,118.79322280001361,118.79322280001361,118.79322280001361,118.79322280001361,118.79322280001361,118.79322280001361,118.79322280001361,118.79322280001361,118.79322280001361,9,3,"[0.0012218999909237027, 0.21645579999312758, 0.3171498999581672]","[0.19995599996764213, 0.23320650000823662, 0.33386529999552295]",118.79322280001361,118.99347779998789,0.0,118.99347779998789,0,0.0,0,1,1000,num_1,1.1032622999628074,,24,14,2026-03-04_16h24.42.799,2026A_exp2,2022.2.4,59.93903002192022,
1,0,6.1,0.0,0,0,26,26,22,,,,,120.12773200002266,120.77849940001033,120.77849940001033,121.2629947999958,315,45,121.2629947999958,121.2629947999958,121.2629947999958,121.2629947999958,121.2629947999958,121.2629947999958,121.2629947999958,121.2629947999958,121.2629947999958,121.6292857999797,121.6292857999797,121.6292857999797,121.6292857999797,121.6292857999797,121.6292857999797,121.6292857999797,121.6292857999797,121.6292857999797,17,4,"[0.06691769999451935, 0.10040479997405782, 0.1837785000097938, 0.28386690001934767]","[0.08374610001919791, 0.117068899970036, 0.21714620001148432, 0.31721180002205074]",121.6292857999797,121.8294361999724,6.1,121.8294361999724,1,6.1,1,1,1000,num_4,0.6904689000220969,,24,14,2026-03-04_16h24.42.799,2026A_exp2,2022.2.4,59.93903002192022,
1,0,6.1,4.9,1,0,27,27,38,,,,,122.54679519997444,123.19750220002607,123.19750220002607,123.68200510001043,315,315,123.68200510001043,123.68200510001043,123.68200510001043,123.68200510001043,123.68200510001043,123.68200510001043,123.68200510001043,123.68200510001043,123.68200510001043,124.04830199998105,124.04830199998105,124.04830199998105,124.04830199998105,124.04830199998105,124.04830199998105,124.04830199998105,124.04830199998105,124.04830199998105,23,0,,,124.04830199998105,124.24876889999723,4.9,124.24876889999723,1,4.9,1,1,1000,num_4,0.7834291000035591,,24,14,2026-03-04_16h24.42.799,2026A_exp2,2022.2.4,59.93903002192022,
1,0,6.1,3.7,0,0,28,28,79,,,,,125.04930329998024,125.70004379999591,125.70004379999591,126.18432709999615,315,315,126.18432709999615,126.18432709999615,126.18432709999615,126.18432709999615,126.18432709999615,126.18432709999615,126.18432709999615,126.18432709999615,126.18432709999615,126.55082940001739,126.55082940001739,126.55082940001739,126.55082940001739,126.55082940001739,126.55082940001739,126.55082940001739,126.55082940001739,126.55082940001739,15,5,"[0.001615300017874688, 0.11719260003883392, 0.1836646000156179, 0.2837796999956481, 0.33394919999409467]","[0.017311900039203465, 0.1338283999939449, 0.25036900001578033, 0.30017230001976714, 0.35065510001732036]",126.55082940001739,126.75107950001257,6.1,126.75107950001257,1,6.1,1,1,1000,num_4,0.6817029000376351,,24,14,2026-03-04_16h24.42.799,2026A_exp2,2022.2.4,59.93903002192022,
0,0,0.0,6.1,0,0,29,29,30,,,,,127.45190310000908,128.08572319999803,128.08572319999803,128.5868528999854,315,315,128.5868528999854,128.5868528999854,128.5868528999854,128.5868528999854,128.5868528999854,128.5868528999854,128.5868528999854,128.5868528999854,128.5868528999854,128.95341929997085,128.95341929997085,128.95341929997085,128.95341929997085,128.95341929997085,128.95341929997085,128.95341929997085,128.95341929997085,128.95341929997085,15,5,"[0.001242100028321147, 0.09963400004198775, 0.13313339999876916, 0.23332669999217615, 0.3335662999888882]","[0.0661250000121072, 0.11624760000267997, 0.14989060000516474, 0.2500302999978885, 0.3502864000038244]",128.95341929997085,129.1535748000024,6.1,129.1535748000024,1,6.1,1,1,1000,num_4,0.5349373999633826,,24,14,2026-03-04_16h24.42.799,2026A_exp2,2022.2.4,59.93903002192022,
1,0,0.0,3.7,1,0,30,30,83,,,,,129.70398779999232,130.35480169998482,130.35480169998482,130.83925319998525,45,315,130.83925319998525,130.83925319998525,130.83925319998525,130.83925319998525,130.83925319998525,130.83925319998525,130.83925319998525,130.83925319998525,130.83925319998525,131.20566789997974,131.20566789997974,131.20566789997974,131.20566789997974,131.20566789997974,131.20566789997974,131.20566789997974,131.20566789997974,131.20566789997974,10,2,"[0.1669926000176929, 0.2505648999940604]","[0.2337750000297092, 0.3673715000040829]",131.20566789997974,131.40568809997058,3.7,131.40568809997058,1,3.7,1,1,1000,num_4,0.5705390000366606,,24,14,2026-03-04_16h24.42.799,2026A_exp2,2022.2.4,59.93903002192022,
1,0,6.1,0.0,1,0,31,31,41,,,,,132.00648949999595,132.65719619998708,132.65719619998708,133.14139539998723,315,315,133.14139539998723,133.14139539998723,133.14139539998723,133.14139539998723,133.14139539998723,133.14139539998723,133.14139539998723,133.14139539998723,133.14139539998723,133.50785850000102,133.50785850000102,133.50785850000102,133.50785850000102,133.50785850000102,133.50785850000102,133.50785850000102,133.50785850000102,133.50785850000102,20,2,"[0.0008469000458717346, 0.0834432000410743]","[0.01714660000288859, 0.11697580001782626]",133.50785850000102,133.70795790001284,0.0,133.70795790001284,0,0.0,0,1,1000,num_1,0.9327794999699108,,24,14,2026-03-04_16h24.42.799,2026A_exp2,2022.2.4,59.93903002192022,
1000,1,0.0,0.0,1,0,32,32,27,,,,,134.65893849998247,135.30977260001237,135.30977260001237,135.8107385999756,45,315,135.8107385999756,135.8107385999756,135.8107385999756,135.8107385999756,135.8107385999756,135.8107385999756,135.8107385999756,135.8107385999756,135.8107385999756,136.160584199999,136.160584199999,136.160584199999,136.160584199999,136.160584199999,136.160584199999,136.160584199999,136.160584199999,136.160584199999,4,3,"[0.017126999970059842, 0.16737999999895692, 0.3008501000003889]","[0.13392929994734004, 0.28414199996041134, 0.35093269997742027]",136.160584199999,136.36265939997975,1000,136.36265939997975,1000,1000,1000,1000,1,num_2,1.6052972000325099,,24,14,2026-03-04_16h24.42.799,2026A_exp2,2022.2.4,59.93903002192022,
1,0,0.0,0.0,0,0,33,33,31,,,,,137.99573560000863,138.64627620001556,138.64627620001556,139.14752200001385,315,45,139.14752200001385,139.14752200001385,139.14752200001385,139.14752200001385,139.14752200001385,139.14752200001385,139.14752200001385,139.14752200001385,139.14752200001385,139.49712940002792,139.49712940002792,139.49712940002792,139.49712940002792,139.49712940002792,139.49712940002792,139.49712940002792,139.49712940002792,139.49712940002792,20,2,"[0.01731700001982972, 0.15022419998422265]","[0.03350610000779852, 0.1668400999624282]",139.49712940002792,139.69730559998425,0.0,139.69730559998425,0,0.0,0,1,1000,num_1,1.119163999974262,,24,14,2026-03-04_16h24.42.799,2026A_exp2,2022.2.4,59.93903002192022,
1,0,3.7,0.0,1,0,34,34,55,,,,,140.848673600005,141.49927750002826,141.49927750002826,141.98360729997512,315,315,141.98360729997512,141.98360729997512,141.98360729997512,141.98360729997512,141.98360729997512,141.98360729997512,141.98360729997512,141.98360729997512,141.98360729997512,142.35006030002842,142.35006030002842,142.35006030002842,142.35006030002842,142.35006030002842,142.35006030002842,142.35006030002842,142.35006030002842,142.35006030002842,23,0,,,142.35006030002842,142.55037020001328,0.0,142.55037020001328,0,0.0,0,1,1000,num_1,1.169802599994,,24,14,2026-03-04_16h24.42.799,2026A_exp2,2022.2.4,59.93903002192022,
1,0,0.0,6.1,1,0,35,35,39,,,,,143.75146120000863,144.40187220001826,144.40187220001826,144.886542799999,45,315,144.886542799999,144.886542799999,144.886542799999,144.886542799999,144.886542799999,144.886542799999,144.886542799999,144.886542799999,144.886542799999,145.25307939999038,145.25307939999038,145.25307939999038,145.25307939999038,145.25307939999038,145.25307939999038,145.25307939999038,145.25307939999038,145.25307939999038,22,1,[0.30015650001587346],[0.3168968000099994],145.25307939999038,145.45279499999015,6.1,145.45279499999015,1,6.1,1,1,1000,num_4,0.5481515999999829,,24,14,2026-03-04_16h24.42.799,2026A_exp2,2022.2.4,59.93903002192022,
1000,1,4.9,6.1,0,0,36,36,35,,,,,146.020217399986,146.6712004999863,146.6712004999863,147.15564349998021,315,315,147.15564349998021,147.15564349998021,147.15564349998021,147.15564349998021,147.15564349998021,147.15564349998021,147.15564349998021,147.15564349998021,147.15564349998021,147.52197100000922,147.52197100000922,147.52197100000922,147.52197100000922,147.52197100000922,147.52197100000922,147.52197100000922,147.52197100000922,147.52197100000922,23,0,,,147.52197100000922,147.72396530001424,1000,147.72396530001424,1000,1000,1000,1000,1,num_2,1.2046188000240363,,24,14,2026-03-04_16h24.42.799,2026A_exp2,2022.2.4,59.93903002192022,
1,0,0.0,6.1,0,0,37,37,3,,,,,148.95657729997765,149.60760559997289,149.60760559997289,150.10848880000412,315,315,150.10848880000412,150.10848880000412,150.10848880000412,150.10848880000412,150.10848880000412,150.10848880000412,150.10848880000412,150.10848880000412,150.10848880000412,150.47488400002476,150.47488400002476,150.47488400002476,150.47488400002476,150.47488400002476,150.47488400002476,150.47488400002476,150.47488400002476,150.47488400002476,2,2,"[0.0012132999836467206, 0.3672309999819845]","[0.3338723999913782, 0.367236599966418]",150.47488400002476,150.67507190001197,0.0,150.67507190001197,0,0.0,0,1,1000,num_1,2.765724400000181,,24,14,2026-03-04_16h24.42.799,2026A_exp2,2022.2.4,59.93903002192022,
1000,1,0.0,6.1,0,0,38,38,5,,,,,153.46098729997175,154.11184949998278,154.11184949998278,154.59630029997788,45,315,154.59630029997788,154.59630029997788,154.59630029997788,154.59630029997788,154.59630029997788,154.59630029997788,154.59630029997788,154.59630029997788,154.59630029997788,154.96259840001585,154.96259840001585,154.96259840001585,154.96259840001585,154.96259840001585,154.96259840001585,154.96259840001585,154.96259840001585,154.96259840001585,6,4,"[0.0012359999818727374, 0.08367209997959435, 0.1337436999892816, 0.21715769998263568]","[0.06687480001710355, 0.11707480001496151, 0.1501857999828644, 0.3671664000139572]",154.96259840001585,155.1652621999965,1000,155.1652621999965,1000,1000,1000,1000,1,num_2,0.5632039000047371,,24,14,2026-03-04_16h24.42.799,2026A_exp2,2022.2.4,59.93903002192022,
1000,1,0.0,0.0,1,0,39,39,78,,,,,155.7466957999859,156.397364799981,156.397364799981,156.89855310000712,45,45,156.89855310000712,156.89855310000712,156.89855310000712,156.89855310000712,156.89855310000712,156.89855310000712,156.89855310000712,156.89855310000712,156.89855310000712,157.2651443000068,157.2651443000068,157.2651443000068,157.2651443000068,157.2651443000068,157.2651443000068,157.2651443000068,157.2651443000068,157.2651443000068,14,5,"[0.0012452999944798648, 0.15036289999261498, 0.20029879995854571, 0.30054279998876154, 0.3671780999866314]","[0.06686049996642396, 0.16693889995804057, 0.21700299996882677, 0.33387509995372966, 0.3671838999725878]",157.2651443000068,157.4672445000033,1000,157.4672445000033,1000,1000,1000,1000,0,num_3,0.5485282000154257,,24,14,2026-03-04_16h24.42.799,2026A_exp2,2022.2.4,59.93903002192022,
0,0,0.0,6.1,1,0,40,40,84,,,,,158.0323490999872,158.68310770002427,158.68310770002427,159.18444969999837,45,45,159.18444969999837,159.18444969999837,159.18444969999837,159.18444969999837,159.18444969999837,159.18444969999837,159.18444969999837,159.18444969999837,159.18444969999837,159.5505871999776,159.5505871999776,159.5505871999776,159.5505871999776,159.5505871999776,159.5505871999776,159.5505871999776,159.5505871999776,159.5505871999776,6,4,"[0.03369279997423291, 0.10073050000937656, 0.18397620000177994, 0.21736949996557087]","[0.06701349996728823, 0.16716599999926984, 0.20068569999421015, 0.3677451999974437]",159.5505871999776,159.7506823000149,0.0,159.7506823000149,0,0.0,0,1,1000,num_1,1.145970200013835,,24,14,2026-03-04_16h24.42.799,2026A_exp2,2022.2.4,59.93903002192022,
0,0,0.0,0.0,0,0,41,41,10,,,,,160.9185567999957,161.5693345000036,161.5693345000036,162.05383709998569,45,315,162.05383709998569,162.05383709998569,162.05383709998569,162.05383709998569,162.05383709998569,162.05383709998569,162.05383709998569,162.05383709998569,162.05383709998569,162.42023549997248,162.42023549997248,162.42023549997248,162.42023549997248,162.42023549997248,162.42023549997248,162.42023549997248,162.42023549997248,162.42023549997248,20,2,"[0.0012020000140182674, 0.08355330000631511]","[0.03371290001086891, 0.10022490000119433]",162.42023549997248,162.62028480001027,0.0,162.62028480001027,0,0.0,0,1,1000,num_1,0.8604560000239871,,24,14,2026-03-04_16h24.42.799,2026A_exp2,2022.2.4,59.93903002192022,
0,0,3.7,0.0,0,0,42,42,16,,,,,163.50435549998656,164.15528200002154,164.15528200002154,164.65622300002724,45,45,164.65622300002724,164.65622300002724,164.65622300002724,164.65622300002724,164.65622300002724,164.65622300002724,164.65622300002724,164.65622300002724,164.65622300002724,165.00594730000012,165.00594730000012,165.00594730000012,165.00594730000012,165.00594730000012,165.00594730000012,165.00594730000012,165.00594730000012,165.00594730000012,22,0,,,165.00594730000012,165.20630489999894,0.0,165.20630489999894,0,0.0,0,1,1000,num_1,0.994347799976822,,24,14,2026-03-04_16h24.42.799,2026A_exp2,2022.2.4,59.93903002192022,
1,0,0.0,6.1,1,0,43,43,17,,,,,166.223829799972,166.87464950000867,166.87464950000867,167.35895700001856,45,315,167.35895700001856,167.35895700001856,167.35895700001856,167.35895700001856,167.35895700001856,167.35895700001856,167.35895700001856,167.35895700001856,167.35895700001856,167.72548859997187,167.72548859997187,167.72548859997187,167.72548859997187,167.72548859997187,167.72548859997187,167.72548859997187,167.72548859997187,167.72548859997187,23,0,,,167.72548859997187,167.9256205999991,6.1,167.9256205999991,1,6.1,1,1,1000,num_4,0.7468825999530964,,24,14,2026-03-04_16h24.42.799,2026A_exp2,2022.2.4,59.93903002192022,
1,0,0.0,0.0,1,0,44,44,42,,,,,168.69298100000015,169.34375399997225,169.34375399997225,169.82805269997334,45,45,169.82805269997334,169.82805269997334,169.82805269997334,169.82805269997334,169.82805269997334,169.82805269997334,169.82805269997334,169.82805269997334,169.82805269997334,170.1946119000204,170.1946119000204,170.1946119000204,170.1946119000204,170.1946119000204,170.1946119000204,170.1946119000204,170.1946119000204,170.1946119000204,23,0,,,170.1946119000204,170.39481059997343,0.0,170.39481059997343,0,0.0,0,1,1000,num_1,0.7903912999900058,,24,14,2026-03-04_16h24.42.799,2026A_exp2,2022.2.4,59.93903002192022,
0,0,3.7,0.0,1,0,45,45,0,,,,,171.21213449997595,171.86296220001532,171.86296220001532,172.34739319997607,45,45,172.34739319997607,172.34739319997607,172.34739319997607,172.34739319997607,172.34739319997607,172.34739319997607,172.34739319997607,172.34739319997607,172.34739319997607,172.7138360000099,172.7138360000099,172.7138360000099,172.7138360000099,172.7138360000099,172.7138360000099,172.7138360000099,172.7138360000099,172.7138360000099,23,0,,,172.7138360000099,172.91401020000922,3.7,172.91401020000922,1,3.7,1,1,1000,num_4,0.9107951000332832,,24,14,2026-03-04_16h24.42.799,2026A_exp2,2022.2.4,59.93903002192022,
1000,1,6.1,3.7,0,0,46,46,43,,,,,173.8481045999797,174.4989452000009,174.4989452000009,174.9833946999861,45,45,174.9833946999861,174.9833946999861,174.9833946999861,174.9833946999861,174.9833946999861,174.9833946999861,174.9833946999861,174.9833946999861,174.9833946999861,175.34978400002,175.34978400002,175.34978400002,175.34978400002,175.34978400002,175.34978400002,175.34978400002,175.34978400002,175.34978400002,23,0,,,175.34978400002,175.55205260001821,1000,175.55205260001821,1000,1000,1000,1000,0,num_3,1.11183589999564,,24,14,2026-03-04_16h24.42.799,2026A_exp2,2022.2.4,59.93903002192022,
1000,1,4.9,6.1,0,0,47,47,49,,,,,176.6843044999987,177.33940709999297,177.33940709999297,177.8362907000119,315,315,177.8362907000119,177.8362907000119,177.8362907000119,177.8362907000119,177.8362907000119,177.8362907000119,177.8362907000119,177.8362907000119,177.8362907000119,178.20256309997058,178.20256309997058,178.20256309997058,178.20256309997058,178.20256309997058,178.20256309997058,178.20256309997058,178.20256309997058,178.20256309997058,0,1,[0.0018054000101983547],[0.3666744999936782],178.20256309997058,178.40473639999982,1000,178.40473639999982,1000,1000,1000,1000,1,num_2,2.0995839000097476,,24,14,2026-03-04_16h24.42.799,2026A_exp2,2022.2.4,59.93903002192022,
0,0,4.9,6.1,0,0,48,48,1,,,,,180.52166849997593,181.17227099998854,181.17227099998854,181.65663899999345,45,315,181.65663899999345,181.65663899999345,181.65663899999345,181.65663899999345,181.65663899999345,181.65663899999345,181.65663899999345,181.65663899999345,181.65663899999345,182.02312229998643,182.02312229998643,182.02312229998643,182.02312229998643,182.02312229998643,182.02312229998643,182.02312229998643,182.02312229998643,182.02312229998643,0,1,[0.0012435000389814377],[0.36708720005117357],182.02312229998643,182.22323669999605,6.1,182.22323669999605,1,6.1,1,1,1000,num_4,0.7288670999696478,,24,14,2026-03-04_16h24.42.799,2026A_exp2,2022.2.4,59.93903002192022,
1000,1,4.9,3.7,1,0,49,49,46,,,,,182.97389560000738,183.62467729998752,183.62467729998752,184.1090065999888,315,45,184.1090065999888,184.1090065999888,184.1090065999888,184.1090065999888,184.1090065999888,184.1090065999888,184.1090065999888,184.1090065999888,184.1090065999888,184.47550060000503,184.47550060000503,184.47550060000503,184.47550060000503,184.47550060000503,184.47550060000503,184.47550060000503,184.47550060000503,184.47550060000503,0,1,[0.0012024000170640647],[0.3672008000430651],184.47550060000503,184.67785380000714,1000,184.67785380000714,1000,1000,1000,1000,1,num_2,1.3074235999956727,,24,14,2026-03-04_16h24.42.799,2026A_exp2,2022.2.4,59.93903002192022,
1,0,4.9,3.7,0,0,50,50,89,,,,,186.01050979999127,186.66110740002478,186.66110740002478,187.16223730001366,45,45,187.16223730001366,187.16223730001366,187.16223730001366,187.16223730001366,187.16223730001366,187.16223730001366,187.16223730001366,187.16223730001366,187.16223730001366,187.51181649998762,187.51181649998762,187.51181649998762,187.51181649998762,187.51181649998762,187.51181649998762,187.51181649998762,187.51181649998762,187.51181649998762,19,3,"[0.2670168000040576, 0.30052140000043437, 0.35058030002983287]","[0.28368430002592504, 0.31726580002577975, 0.3505849000066519]",187.51181649998762,187.712122500001,4.9,187.712122500001,1,4.9,1,1,1000,num_4,0.7608546000556089,,24,14,2026-03-04_16h24.42.799,2026A_exp2,2022.2.4,59.93903002192022,
1000,1,4.9,4.9,1,0,51,51,67,,,,,188.49605379998684,189.14684130001115,189.14684130001115,189.63111229997594,45,315,189.63111229997594,189.63111229997594,189.63111229997594,189.63111229997594,189.63111229997594,189.63111229997594,189.63111229997594,189.63111229997594,189.63111229997594,189.99762530002045,189.99762530002045,189.99762530002045,189.99762530002045,189.99762530002045,189.99762530002045,189.99762530002045,189.99762530002045,189.99762530002045,0,1,[0.0012521999888122082],[0.36737260001245886],189.99762530002045,190.22516650002217,1000,190.22516650002217,1000,1000,1000,1000,0,num_3,0.9916148000047542,,24,14,2026-03-04_16h24.42.799,2026A_exp2,2022.2.4,59.93903002192022,
1000,1,0.0,3.7,0,0,52,52,18,,,,,191.23220540001057,191.88283929997124,191.88283929997124,192.3841195999994,45,315,192.3841195999994,192.3841195999994,192.3841195999994,192.3841195999994,192.3841195999994,192.3841195999994,192.3841195999994,192.3841195999994,192.3841195999994,192.73377599997912,192.73377599997912,192.73377599997912,192.73377599997912,192.73377599997912,192.73377599997912,192.73377599997912,192.73377599997912,192.73377599997912,0,1,[0.0012944999616593122],[0.35063880000961944],192.73377599997912,192.9359875000082,1000,192.95060380001087,1000,1000,1000,1000,1,num_2,0.6253682000096887,,24,14,2026-03-04_16h24.42.799,2026A_exp2,2022.2.4,59.93903002192022,
1,0,6.1,0.0,1,0,53,53,29,,,,,193.60151840001345,194.2519463999779,194.2519463999779,194.73781820002478,45,315,194.73781820002478,194.73781820002478,194.73781820002478,194.73781820002478,194.73781820002478,194.73781820002478,194.73781820002478,194.73781820002478,194.73781820002478,195.10287020000396,195.10287020000396,195.10287020000396,195.10287020000396,195.10287020000396,195.10287020000396,195.10287020000396,195.10287020000396,195.10287020000396,0,1,[0.00197500002104789],[0.36648199998307973],195.10287020000396,195.30315110000083,0.0,195.30315110000083,0,0.0,0,1,1000,num_1,0.9696575999842025,,24,14,2026-03-04_16h24.42.799,2026A_exp2,2022.2.4,59.93903002192022,
1,0,4.9,0.0,1,0,54,54,52,,,,,196.3038340000203,196.95469980000053,196.95469980000053,197.4391693000216,315,45,197.4391693000216,197.4391693000216,197.4391693000216,197.4391693000216,197.4391693000216,197.4391693000216,197.4391693000216,197.4391693000216,197.4391693000216,197.80551899998682,197.80551899998682,197.80551899998682,197.80551899998682,197.80551899998682,197.80551899998682,197.80551899998682,197.80551899998682,197.80551899998682,21,1,[0.35089160001371056],[0.3672403999953531],197.80551899998682,198.00570380000863,0.0,198.00570380000863,1,0.0,0,0,1000,num_4,1.9786970000131987,,24,14,2026-03-04_16h24.42.799,2026A_exp2,2022.2.4,59.93903002192022,
1,0,4.9,6.1,1,0,55,55,62,,,,,200.00756250001723,200.6416479999898,200.6416479999898,201.14288719999604,315,45,201.14288719999604,201.14288719999604,201.14288719999604,201.14288719999604,201.14288719999604,201.14288719999604,201.14288719999604,201.14288719999604,201.14288719999604,201.50915110000642,201.50915110000642,201.50915110000642,201.50915110000642,201.50915110000642,201.50915110000642,201.50915110000642,201.50915110000642,201.50915110000642,8,3,"[0.05021750001469627, 0.13359069998841733, 0.2504375000135042]","[0.08352909999666736, 0.21715649997349828, 0.36727809999138117]",201.50915110000642,201.7094740999746,6.1,201.7094740999746,1,6.1,1,1,1000,num_4,0.5784677999909036,,24,14,2026-03-04_16h24.42.799,2026A_exp2,2022.2.4,59.93903002192022,
1000,1,0.0,3.7,0,0,56,56,21,,,,,202.30985560000408,202.96070330002112,202.96070330002112,203.44507660000818,315,45,203.44507660000818,203.44507660000818,203.44507660000818,203.44507660000818,203.44507660000818,203.44507660000818,203.44507660000818,203.44507660000818,203.44507660000818,203.8115399000235,203.8115399000235,203.8115399000235,203.8115399000235,203.8115399000235,203.8115399000235,203.8115399000235,203.8115399000235,203.8115399000235,15,6,"[0.01713190000737086, 0.10003420000430197, 0.1502226999728009, 0.18362229998456314, 0.2669064999790862, 0.30033240001648664]","[0.0333593999966979, 0.1169573999941349, 0.16688009997596964, 0.21682530001271516, 0.2837162999785505, 0.3336103999754414]",203.8115399000235,204.01401169999735,1000,204.01401169999735,1000,1000,1000,1000,1,num_2,1.3627879999694414,,24,14,2026-03-04_16h24.42.799,2026A_exp2,2022.2.4,59.93903002192022,
1,0,4.9,0.0,0,0,57,57,57,,,,,205.3964558999869,206.04714879998937,206.04714879998937,206.54823680000845,315,315,206.54823680000845,206.54823680000845,206.54823680000845,206.54823680000845,206.54823680000845,206.54823680000845,206.54823680000845,206.54823680000845,206.54823680000845,206.91471199999796,206.91471199999796,206.91471199999796,206.91471199999796,206.91471199999796,206.91471199999796,206.91471199999796,206.91471199999796,206.91471199999796,10,6,"[0.00121189997298643, 0.10035309998784214, 0.18387429998256266, 0.21676079998724163, 0.2836746000102721, 0.3668150000157766]","[0.06705760001204908, 0.15042239998001605, 0.2003705999813974, 0.26681070000631735, 0.3004056999925524, 0.3668179999804124]",206.91471199999796,207.1147794999997,4.9,207.1147794999997,1,4.9,1,1,1000,num_4,0.7495786999934353,,24,14,2026-03-04_16h24.42.799,2026A_exp2,2022.2.4,59.93903002192022,
1,0,3.7,3.7,1,0,58,58,11,,,,,207.8820631999988,208.53299320000224,208.53299320000224,209.01709600002505,45,45,209.01709600002505,209.01709600002505,209.01709600002505,209.01709600002505,209.01709600002505,209.01709600002505,209.01709600002505,209.01709600002505,209.01709600002505,209.3836404000176,209.3836404000176,209.3836404000176,209.3836404000176,209.3836404000176,209.3836404000176,209.3836404000176,209.3836404000176,209.3836404000176,2,1,[0.03343980002682656],[0.36722309998003766],209.3836404000176,209.5840554999886,3.7,209.5840554999886,1,3.7,1,1,1000,num_4,1.1932017999934033,,24,14,2026-03-04_16h24.42.799,2026A_exp2,2022.2.4,59.93903002192022,
0,0,0.0,0.0,0,0,59,59,20,,,,,210.8020947999903,211.45263379998505,211.45263379998505,211.93692479998572,315,315,211.93692479998572,211.93692479998572,211.93692479998572,211.93692479998572,211.93692479998572,211.93692479998572,211.93692479998572,211.93692479998572,211.93692479998572,212.3031402999768,212.3031402999768,212.3031402999768,212.3031402999768,212.3031402999768,212.3031402999768,212.3031402999768,212.3031402999768,212.3031402999768,23,0,,,212.3031402999768,212.50361559999874,0.0,212.50361559999874,0,0.0,0,1,1000,num_1,0.7774876999901608,,24,14,2026-03-04_16h24.42.799,2026A_exp2,2022.2.4,59.93903002192022,
1000,1,4.9,4.9,0,0,60,60,6,,,,,213.30419789999723,213.95502180000767,213.95502180000767,214.43943269999,45,315,214.43943269999,214.43943269999,214.43943269999,214.43943269999,214.43943269999,214.43943269999,214.43943269999,214.43943269999,214.43943269999,214.80577580002137,214.80577580002137,214.80577580002137,214.80577580002137,214.80577580002137,214.80577580002137,214.80577580002137,214.80577580002137,214.80577580002137,11,3,"[0.0007899999618530273, 0.06753659999230877, 0.18424939998658374]","[0.03419219999341294, 0.1509560999693349, 0.2673357999883592]",214.80577580002137,215.00838080001995,1000,215.00838080001995,1000,1000,1000,1000,0,num_3,1.7205702000064775,,24,14,2026-03-04_16h24.42.799,2026A_exp2,2022.2.4,59.93903002192022,
1,0,3.7,3.7,0,0,61,61,69,,,,,216.7577134000021,217.40848819998791,217.40848819998791,217.9095935000223,315,45,217.9095935000223,217.9095935000223,217.9095935000223,217.9095935000223,217.9095935000223,217.9095935000223,217.9095935000223,217.9095935000223,217.9095935000223,218.2760738999932,218.2760738999932,218.2760738999932,218.2760738999932,218.2760738999932,218.2760738999932,218.2760738999932,218.2760738999932,218.2760738999932,22,1,[0.0012419999693520367],[0.017339700018055737],218.2760738999932,218.47623139998177,3.7,218.47623139998177,1,3.7,1,1,1000,num_4,0.8362605000147596,,24,14,2026-03-04_16h24.42.799,2026A_exp2,2022.2.4,59.93903002192022,
1000,1,0.0,4.9,0,0,62,62,50,,,,,219.343618599989,219.9944612000254,219.9944612000254,220.47880039998563,315,315,220.47880039998563,220.47880039998563,220.47880039998563,220.47880039998563,220.47880039998563,220.47880039998563,220.47880039998563,220.47880039998563,220.47880039998563,220.84525329997996,220.84525329997996,220.84525329997996,220.84525329997996,220.84525329997996,220.84525329997996,220.84525329997996,220.84525329997996,220.84525329997996,20,3,"[0.0012944000191055238, 0.13329399999929592, 0.18332950002513826]","[0.017261700006201863, 0.15011830005096272, 0.20043670001905411]",220.84525329997996,221.0474094999954,1000,221.0474094999954,1000,1000,1000,1000,1,num_2,1.4013252999866381,,24,14,2026-03-04_16h24.42.799,2026A_exp2,2022.2.4,59.93903002192022,
1,0,0.0,0.0,1,0,63,63,56,,,,,222.4799210000201,223.1307527999743,223.1307527999743,223.6203876999789,45,315,223.6203876999789,223.6203876999789,223.6203876999789,223.6203876999789,223.6203876999789,223.6203876999789,223.6203876999789,223.6203876999789,223.6203876999789,223.9818705000216,223.9818705000216,223.9818705000216,223.9818705000216,223.9818705000216,223.9818705000216,223.9818705000216,223.9818705000216,223.9818705000216,22,1,[0.3172197000239976],[0.33388099999865517],223.9818705000216,224.18579379998846,0.0,224.18579379998846,1,0.0,0,0,1000,num_4,2.34213829995133,,24,14,2026-03-04_16h24.42.799,2026A_exp2,2022.2.4,59.93903002192022,
1,0,3.7,6.1,0,0,64,64,74,,,,,226.55081139999675,227.20165549998637,227.20165549998637,227.68614539998816,45,45,227.68614539998816,227.68614539998816,227.68614539998816,227.68614539998816,227.68614539998816,227.68614539998816,227.68614539998816,227.68614539998816,227.68614539998816,228.05250950000482,228.05250950000482,228.05250950000482,228.05250950000482,228.05250950000482,228.05250950000482,228.05250950000482,228.05250950000482,228.05250950000482,14,2,"[0.0012650999706238508, 0.11689840001054108]","[0.10026859998470172, 0.1665511999744922]",228.05250950000482,228.25259609997738,3.7,228.25259609997738,0,3.7,1,0,1000,num_1,0.7640643999911845,,24,14,2026-03-04_16h24.42.799,2026A_exp2,2022.2.4,59.93903002192022,
1000,1,4.9,4.9,0,0,65,65,36,,,,,229.0367458999972,229.67077079997398,229.67077079997398,230.17180449998705,315,315,230.17180449998705,230.17180449998705,230.17180449998705,230.17180449998705,230.17180449998705,230.17180449998705,230.17180449998705,230.17180449998705,230.17180449998705,230.53822540002875,230.53822540002875,230.53822540002875,230.53822540002875,230.53822540002875,230.53822540002875,230.53822540002875,230.53822540002875,230.53822540002875,1,2,"[0.0012106000212952495, 0.1503010000451468]","[0.13372179999714717, 0.3672722000046633]",230.53822540002875,230.74013069999637,1000,230.74013069999637,1000,1000,1000,1000,1,num_2,1.2207000000053085,,24,14,2026-03-04_16h24.42.799,2026A_exp2,2022.2.4,59.93903002192022,
1,0,0.0,0.0,0,0,66,66,75,,,,,231.9896354000084,232.64120700000785,232.64120700000785,233.14143020001939,315,45,233.14143020001939,233.14143020001939,233.14143020001939,233.14143020001939,233.14143020001939,233.14143020001939,233.14143020001939,233.14143020001939,233.14143020001939,233.49108130001696,233.49108130001696,233.49108130001696,233.49108130001696,233.49108130001696,233.49108130001696,233.49108130001696,233.49108130001696,233.49108130001696,0,1,[0.0012464000028558075],[0.3504377000499517],233.49108130001696,233.69748899998376,0.0,233.69748899998376,0,0.0,0,1,1000,num_1,0.9983405999955721,,24,14,2026-03-04_16h24.42.799,2026A_exp2,2022.2.4,59.93903002192022,
1,0,6.1,0.0,1,0,67,67,53,,,,,234.72580329998164,235.35978860000614,235.35978860000614,235.86090969998622,45,45,235.86090969998622,235.86090969998622,235.86090969998622,235.86090969998622,235.86090969998622,235.86090969998622,235.86090969998622,235.86090969998622,235.86090969998622,236.22734739998123,236.22734739998123,236.22734739998123,236.22734739998123,236.22734739998123,236.22734739998123,236.22734739998123,236.22734739998123,236.22734739998123,23,0,,,236.22734739998123,236.42755580000812,0.0,236.42755580000812,0,0.0,0,1,1000,num_1,1.149297900032252,,24,14,2026-03-04_16h24.42.799,2026A_exp2,2022.2.4,59.93903002192022,
1,0,0.0,0.0,1,0,68,68,68,,,,,237.59515010000905,238.24600230000215,238.24600230000215,238.73029729997506,315,45,238.73029729997506,238.73029729997506,238.73029729997506,238.73029729997506,238.73029729997506,238.73029729997506,238.73029729997506,238.73029729997506,238.73029729997506,239.09691640001256,239.09691640001256,239.09691640001256,239.09691640001256,239.09691640001256,239.09691640001256,239.09691640001256,239.09691640001256,239.09691640001256,9,2,"[0.0012149999965913594, 0.31710990000283346]","[0.21737329999450594, 0.33393389999400824]",239.09691640001256,239.2968698000186,0.0,239.2968698000186,1,0.0,0,0,1000,num_4,0.9922295999713242,,24,14,2026-03-04_16h24.42.799,2026A_exp2,2022.2.4,59.93903002192022,
1,0,0.0,4.9,1,0,69,69,2,,,,,240.31452539999736,240.96540540002752,240.96540540002752,241.4498943000217,315,45,241.4498943000217,241.4498943000217,241.4498943000217,241.4498943000217,241.4498943000217,241.4498943000217,241.4498943000217,241.4498943000217,241.4498943000217,241.8162008000072,241.8162008000072,241.8162008000072,241.8162008000072,241.8162008000072,241.8162008000072,241.8162008000072,241.8162008000072,241.8162008000072,23,0,,,241.8162008000072,242.01640449999832,4.9,242.01640449999832,1,4.9,1,1,1000,num_4,0.5755732000106946,,24,14,2026-03-04_16h24.42.799,2026A_exp2,2022.2.4,59.93903002192022,
0,0,0.0,6.1,0,0,70,70,12,,,,,242.61673250002787,243.26768330001505,243.26768330001505,243.7520421000081,315,45,243.7520421000081,243.7520421000081,243.7520421000081,243.7520421000081,243.7520421000081,243.7520421000081,243.7520421000081,243.7520421000081,243.7520421000081,244.11847839999245,244.11847839999245,244.11847839999245,244.11847839999245,244.11847839999245,244.11847839999245,244.11847839999245,244.11847839999245,244.11847839999245,0,1,[0.0012909999932162464],[0.36712780001107603],244.11847839999245,244.31880160002038,6.1,244.31880160002038,1,6.1,1,1,1000,num_4,0.6330845000338741,,24,14,2026-03-04_16h24.42.799,2026A_exp2,2022.2.4,59.93903002192022,
1000,1,3.7,3.7,0,0,71,71,76,,,,,244.96906169998692,245.62012899998808,245.62012899998808,246.104486599972,45,45,246.104486599972,246.104486599972,246.104486599972,246.104486599972,246.104486599972,246.104486599972,246.104486599972,246.104486599972,246.104486599972,246.47093070001574,246.47093070001574,246.47093070001574,246.47093070001574,246.47093070001574,246.47093070001574,246.47093070001574,246.47093070001574,246.47093070001574,0,1,[0.0012217999901622534],[0.36727490002522245],246.47093070001574,246.67270489997463,1000,246.67270489997463,1000,1000,1000,1000,0,num_3,2.3837907999986783,,24,14,2026-03-04_16h24.42.799,2026A_exp2,2022.2.4,59.93903002192022,
1,0,4.9,0.0,0,0,72,72,47,,,,,249.07343270001002,249.7242225999944,249.7242225999944,250.22526279999875,45,315,250.22526279999875,250.22526279999875,250.22526279999875,250.22526279999875,250.22526279999875,250.22526279999875,250.22526279999875,250.22526279999875,250.22526279999875,250.57501390000107,250.57501390000107,250.57501390000107,250.57501390000107,250.57501390000107,250.57501390000107,250.57501390000107,250.57501390000107,250.57501390000107,0,1,[0.0012829999905079603],[0.35064679995412007],250.57501390000107,250.77510069997516,4.9,250.77510069997516,1,4.9,1,1,1000,num_4,0.7775273000006564,,24,14,2026-03-04_16h24.42.799,2026A_exp2,2022.2.4,59.93903002192022,
1000,1,0.0,6.1,1,0,73,73,40,,,,,251.57586859998992,252.22668159997556,252.22668159997556,252.71096290001879,45,315,252.71096290001879,252.71096290001879,252.71096290001879,252.71096290001879,252.71096290001879,252.71096290001879,252.71096290001879,252.71096290001879,252.71096290001879,253.07752619998064,253.07752619998064,253.07752619998064,253.07752619998064,253.07752619998064,253.07752619998064,253.07752619998064,253.07752619998064,253.07752619998064,0,1,[0.0012058999855071306],[0.36679120000917464],253.07752619998064,253.2799750000122,1000,253.2799750000122,1000,1000,1000,1000,1,num_2,0.6648916999693029,,24,14,2026-03-04_16h24.42.799,2026A_exp2,2022.2.4,59.93903002192022,
1,0,3.7,0.0,0,0,74,74,15,,,,,253.9617028000066,254.61221059999662,254.61221059999662,255.09685670002364,315,45,255.09685670002364,255.09685670002364,255.09685670002364,255.09685670002364,255.09685670002364,255.09685670002364,255.09685670002364,255.09685670002364,255.09685670002364,255.46289490000345,255.46289490000345,255.46289490000345,255.46289490000345,255.46289490000345,255.46289490000345,255.46289490000345,255.46289490000345,255.46289490000345,0,1,[0.0008428999572061002],[0.3674500999622978],255.46289490000345,255.6632047999883,3.7,255.6632047999883,1,3.7,1,1,1000,num_4,0.7365531999967061,,24,14,2026-03-04_16h24.42.799,2026A_exp2,2022.2.4,59.93903002192022,
1000,1,0.0,0.0,1,0,75,75,80,,,,,256.431158100022,257.08131239999784,257.08131239999784,257.5658610999817,45,315,257.5658610999817,257.5658610999817,257.5658610999817,257.5658610999817,257.5658610999817,257.5658610999817,257.5658610999817,257.5658610999817,257.5658610999817,257.93210879998514,257.93210879998514,257.93210879998514,257.93210879998514,257.93210879998514,257.93210879998514,257.93210879998514,257.93210879998514,257.93210879998514,0,1,[0.0013387000071816146],[0.36698980000801384],257.93210879998514,258.1341918000253,1000,258.1341918000253,1000,1000,1000,1000,0,num_3,1.5626779000158422,,24,14,2026-03-04_16h24.42.799,2026A_exp2,2022.2.4,59.93903002192022,
1,0,6.1,3.7,1,0,76,76,45,,,,,259.71734650002327,260.36812759999884,260.36812759999884,260.86927710002055,315,315,260.86927710002055,260.86927710002055,260.86927710002055,260.86927710002055,260.86927710002055,260.86927710002055,260.86927710002055,260.86927710002055,260.86927710002055,261.2190188000095,261.2190188000095,261.2190188000095,261.2190188000095,261.2190188000095,261.2190188000095,261.2190188000095,261.2190188000095,261.2190188000095,4,4,"[0.0012115000281482935, 0.11704850004753098, 0.2669696999946609, 0.3503918999922462]","[0.10012590000405908, 0.2504169000312686, 0.3165760000119917, 0.35039630002574995]",261.2190188000095,261.4192106000264,3.7,261.4192106000264,1,3.7,1,1,1000,num_4,0.9100388000370003,,24,14,2026-03-04_16h24.42.799,2026A_exp2,2022.2.4,59.93903002192022,
1,0,0.0,4.9,1,0,77,77,44,,,,,262.35325749998447,263.00390090001747,263.00390090001747,263.4883789999876,315,45,263.4883789999876,263.4883789999876,263.4883789999876,263.4883789999876,263.4883789999876,263.4883789999876,263.4883789999876,263.4883789999876,263.4883789999876,263.8548534999718,263.8548534999718,263.8548534999718,263.8548534999718,263.8548534999718,263.8548534999718,263.8548534999718,263.8548534999718,263.8548534999718,23,0,,,263.8548534999718,264.0551772000035,4.9,264.0551772000035,1,4.9,1,1,1000,num_4,0.6166281000478193,,24,14,2026-03-04_16h24.42.799,2026A_exp2,2022.2.4,59.93903002192022,
1000,1,0.0,3.7,1,0,78,78,7,,,,,264.6889901999966,265.33992020000005,265.33992020000005,265.82407889998285,45,45,265.82407889998285,265.82407889998285,265.82407889998285,265.82407889998285,265.82407889998285,265.82407889998285,265.82407889998285,265.82407889998285,265.82407889998285,266.19058619998395,266.19058619998395,266.19058619998395,266.19058619998395,266.19058619998395,266.19058619998395,266.19058619998395,266.19058619998395,266.19058619998395,13,3,"[0.0012312000035308301, 0.08354800002416596, 0.2503808999899775]","[0.06671010004356503, 0.1502794999978505, 0.2837635999894701]",266.19058619998395,266.39270790002774,1000,266.39270790002774,1000,1000,1000,1000,1,num_2,1.6961566000245512,,24,14,2026-03-04_16h24.42.799,2026A_exp2,2022.2.4,59.93903002192022,
1000,1,0.0,3.7,1,0,79,79,81,,,,,268.1090385999996,268.759799499996,268.759799499996,269.2609536999953,315,315,269.2609536999953,269.2609536999953,269.2609536999953,269.2609536999953,269.2609536999953,269.2609536999953,269.2609536999953,269.2609536999953,269.2609536999953,269.6274714000174,269.6274714000174,269.6274714000174,269.6274714000174,269.6274714000174,269.6274714000174,269.6274714000174,269.6274714000174,269.6274714000174,0,1,[0.0012140999897383153],[0.36654770001769066],269.6274714000174,269.82966639997903,1000,269.82966639997903,1000,1000,1000,1000,1,num_2,0.594161199987866,,24,14,2026-03-04_16h24.42.799,2026A_exp2,2022.2.4,59.93903002192022,
1,0,0.0,0.0,1,0,80,80,77,,,,,270.44493439997314,271.0953424000181,271.0953424000181,271.57996359997196,45,45,271.57996359997196,271.57996359997196,271.57996359997196,271.57996359997196,271.57996359997196,271.57996359997196,271.57996359997196,271.57996359997196,271.57996359997196,271.9462087000138,271.9462087000138,271.9462087000138,271.9462087000138,271.9462087000138,271.9462087000138,271.9462087000138,271.9462087000138,271.9462087000138,0,1,[0.0012069999938830733],[0.367154199979268],271.9462087000138,272.14612330001546,0.0,272.14612330001546,0,0.0,0,1,1000,num_1,1.0217982000322081,,24,14,2026-03-04_16h24.42.799,2026A_exp2,2022.2.4,59.93903002192022,
1000,1,4.9,3.7,0,0,81,81,26,,,,,273.19738560001133,273.84828039997956,273.84828039997956,274.3325947999838,45,45,274.3325947999838,274.3325947999838,274.3325947999838,274.3325947999838,274.3325947999838,274.3325947999838,274.3325947999838,274.3325947999838,274.3325947999838,274.69907630002126,274.69907630002126,274.69907630002126,274.69907630002126,274.69907630002126,274.69907630002126,274.69907630002126,274.69907630002126,274.69907630002126,0,1,[0.0012444000458344817],[0.3670533000258729],274.69907630002126,274.9017102000071,1000,274.9017102000071,1000,1000,1000,1000,0,num_3,1.0186094000237063,,24,14,2026-03-04_16h24.42.799,2026A_exp2,2022.2.4,59.93903002192022,
0,0,4.9,4.9,0,0,82,82,88,,,,,275.95025709999027,276.6008331999765,276.6008331999765,277.102168500016,45,315,277.102168500016,277.102168500016,277.102168500016,277.102168500016,277.102168500016,277.102168500016,277.102168500016,277.102168500016,277.102168500016,277.4685889999964,277.4685889999964,277.4685889999964,277.4685889999964,277.4685889999964,277.4685889999964,277.4685889999964,277.4685889999964,277.4685889999964,0,1,[0.00120160001097247],[0.3671178999939002],277.4685889999964,277.6686709999922,4.9,277.6686709999922,1,4.9,1,1,1000,num_4,0.812391999992542,,24,14,2026-03-04_16h24.42.799,2026A_exp2,2022.2.4,59.93903002192022,
1,0,6.1,0.0,1,0,83,83,23,,,,,278.5026643999736,279.1535788999754,279.1535788999754,279.63762340001995,45,315,279.63762340001995,279.63762340001995,279.63762340001995,279.63762340001995,279.63762340001995,279.63762340001995,279.63762340001995,279.63762340001995,279.63762340001995,280.00454569997964,280.00454569997964,280.00454569997964,280.00454569997964,280.00454569997964,280.00454569997964,280.00454569997964,280.00454569997964,280.00454569997964,0,1,[0.0012332000187598169],[0.36692559998482466],280.00454569997964,280.2045793000143,0.0,280.2045793000143,0,0.0,0,1,1000,num_1,1.796645599999465,,24,14,2026-03-04_16h24.42.799,2026A_exp2,2022.2.4,59.93903002192022,
1000,1,4.9,0.0,0,0,84,84,82,,,,,282.022810399998,282.6736592000234,282.6736592000234,283.15824329998577,315,315,283.15824329998577,283.15824329998577,283.15824329998577,283.15824329998577,283.15824329998577,283.15824329998577,283.15824329998577,283.15824329998577,283.15824329998577,283.5245404000161,283.5245404000161,283.5245404000161,283.5245404000161,283.5245404000161,283.5245404000161,283.5245404000161,283.5245404000161,283.5245404000161,0,1,[0.0012048999778926373],[0.3673083999892697],283.5245404000161,283.73357260000193,1000,283.73357260000193,1000,1000,1000,1000,0,num_3,0.6504076999844983,,24,14,2026-03-04_16h24.42.799,2026A_exp2,2022.2.4,59.93903002192022,
1000,1,4.9,6.1,1,0,85,85,4,,,,,284.4086688000243,285.05941970000276,285.05941970000276,285.56048149999697,315,315,285.56048149999697,285.56048149999697,285.56048149999697,285.56048149999697,285.56048149999697,285.56048149999697,285.56048149999697,285.56048149999697,285.56048149999697,285.92703259998234,285.92703259998234,285.92703259998234,285.92703259998234,285.92703259998234,285.92703259998234,285.92703259998234,285.92703259998234,285.92703259998234,1,2,"[0.0012394000077620149, 0.20033059996785596]","[0.1839146999991499, 0.3672458999790251]",285.92703259998234,286.1296276000212,1000,286.1296276000212,1000,1000,1000,1000,1,num_2,0.5106881999527104,,24,14,2026-03-04_16h24.42.799,2026A_exp2,2022.2.4,59.93903002192022,
1,0,3.7,0.0,1,0,86,86,73,,,,,286.66088390001096,287.3116037999862,287.3116037999862,287.8127155000111,45,315,287.8127155000111,287.8127155000111,287.8127155000111,287.8127155000111,287.8127155000111,287.8127155000111,287.8127155000111,287.8127155000111,287.8127155000111,288.17904419999104,288.17904419999104,288.17904419999104,288.17904419999104,288.17904419999104,288.17904419999104,288.17904419999104,288.17904419999104,288.17904419999104,0,1,[0.0012385000009089708],[0.3674814999685623],288.17904419999104,288.37938790000044,0.0,288.37938790000044,0,0.0,0,1,1000,num_1,1.1092685000039637,,24,14,2026-03-04_16h24.42.799,2026A_exp2,2022.2.4,59.93903002192022,
1,0,3.7,4.9,0,0,87,87,70,,,,,289.513775600004,290.16452629998093,290.16452629998093,290.64890949998517,315,45,290.64890949998517,290.64890949998517,290.64890949998517,290.64890949998517,290.64890949998517,290.64890949998517,290.64890949998517,290.64890949998517,290.64890949998517,291.0156463999883,291.0156463999883,291.0156463999883,291.0156463999883,291.0156463999883,291.0156463999883,291.0156463999883,291.0156463999883,291.0156463999883,18,1,[0.03347039996879175],[0.11708090000320226],291.0156463999883,291.21578750002664,3.7,291.21578750002664,0,3.7,1,0,1000,num_1,0.9125582999549806,,24,14,2026-03-04_16h24.42.799,2026A_exp2,2022.2.4,59.93903002192022,
1000,1,4.9,6.1,0,0,88,88,59,,,,,292.14970880001783,292.8005103999749,292.8005103999749,293.28492559998995,315,45,293.28492559998995,293.28492559998995,293.28492559998995,293.28492559998995,293.28492559998995,293.28492559998995,293.28492559998995,293.28492559998995,293.28492559998995,293.6513087999774,293.6513087999774,293.6513087999774,293.6513087999774,293.6513087999774,293.6513087999774,293.6513087999774,293.6513087999774,293.6513087999774,0,1,[0.001134999969508499],[0.3668487999821082],293.6513087999774,293.8516468000016,1000,293.8516468000016,1000,1000,1000,1000,1,num_2,1.2452446999959648,,24,14,2026-03-04_16h24.42.799,2026A_exp2,2022.2.4,59.93903002192022,
1,0,4.9,0.0,0,0,89,89,19,,,,,295.1193295000121,295.77007440000307,295.77007440000307,296.27113030001055,315,315,296.27113030001055,296.27113030001055,296.27113030001055,296.27113030001055,296.27113030001055,296.27113030001055,296.27113030001055,296.27113030001055,296.27113030001055,296.63754760002485,296.63754760002485,296.63754760002485,296.63754760002485,296.63754760002485,296.63754760002485,296.63754760002485,296.63754760002485,296.63754760002485,0,1,[0.0012017999542877078],[0.3672708999947645],296.63754760002485,296.83793989999685,4.9,296.83793989999685,1,4.9,1,1,1000,num_4,0.6428659000084735,,24,14,2026-03-04_16h24.42.799,2026A_exp2,2022.2.4,59.93903002192022,
,,,,,,,,,,,,,,,,,,,,,,,,,,,,,,,,,,,,,,,,,,,,,,,,,,,,297.5351781999925,,,,,,,
