validity,detectorcomp,contrastCW,contrastCCW,precueCWorCCW,block_80trials.thisRepN,block_80trials.thisTrialN,block_80trials.thisN,block_80trials.thisIndex,etRecord.started,etRecord.stopped,text.started,text.stopped,text_4.started,text_4.stopped,text_6.started,text_6.stopped,oriCW,oriCCW,roi_2.started,grating_UR.started,grating_UL.started,grating_LR.started,grating_LL.started,noise_UR.started,noise_UL.started,noise_LR.started,noise_LL.started,roi_2.stopped,grating_UR.stopped,grating_UL.stopped,grating_LR.stopped,grating_LL.stopped,noise_UR.stopped,noise_UL.stopped,noise_LR.stopped,noise_LL.stopped,outframe,roi_2.numLooks,roi_2.timesOn,roi_2.timesOff,text_2.started,text_2.stopped,probedcontrast,key_resp.started,respdetect,relevantContrast,correctDetect,TorFdetect,respCWorCCW,key_resp.keys,key_resp.rt,feedback_display_.started,participantNo,blockNo,date,expName,psychopyVersion,frameRate,
1,0,0.0,0.0,0,0,0,0,88,6.289989687502384e-05,6.289989687502384e-05,132.81942279986106,134.8219971000217,134.8219971000217,135.45661779982038,135.45661779982038,135.97631499986164,45,45,135.97631499986164,135.97631499986164,135.97631499986164,135.97631499986164,135.97631499986164,135.97631499986164,135.97631499986164,135.97631499986164,135.97631499986164,136.32382479985245,136.32382479985245,136.32382479985245,136.32382479985245,136.32382479985245,136.32382479985245,136.32382479985245,136.32382479985245,136.32382479985245,23,0,,,136.32382479985245,136.5240676999092,0.0,136.5240676999092,1,0.0,0,0,1000,num_4,0.5493205999955535,,32,12,2026-03-12_16h16.19.032,2026A_exp2,2022.2.4,59.95052880984449,
1000,1,0.0,4.9,1,0,1,1,66,,,,,137.0914855999872,137.72526540001854,137.72526540001854,138.22636620001867,45,45,138.22636620001867,138.22636620001867,138.22636620001867,138.22636620001867,138.22636620001867,138.22636620001867,138.22636620001867,138.22636620001867,138.22636620001867,138.59249599999748,138.59249599999748,138.59249599999748,138.59249599999748,138.59249599999748,138.59249599999748,138.59249599999748,138.59249599999748,138.59249599999748,23,0,,,138.59249599999748,138.7928793998435,1000,138.7928793998435,1000,1000,1000,1000,1,num_2,0.46481160004623234,,32,12,2026-03-12_16h16.19.032,2026A_exp2,2022.2.4,59.95052880984449,
1000,1,0.0,4.9,0,0,2,2,61,,,,,139.27682619984262,139.92737229983322,139.92737229983322,140.4285860999953,45,45,140.4285860999953,140.4285860999953,140.4285860999953,140.4285860999953,140.4285860999953,140.4285860999953,140.4285860999953,140.4285860999953,140.4285860999953,140.79492000001483,140.79492000001483,140.79492000001483,140.79492000001483,140.79492000001483,140.79492000001483,140.79492000001483,140.79492000001483,140.79492000001483,23,0,,,140.79492000001483,140.99711279990152,1000,140.99711279990152,1000,1000,1000,1000,1,num_2,0.3167882999405265,,32,12,2026-03-12_16h16.19.032,2026A_exp2,2022.2.4,59.95052880984449,
1,0,0.0,0.0,0,0,3,3,55,,,,,141.34560439991765,141.9961704998277,141.9961704998277,142.49730859999545,315,45,142.49730859999545,142.49730859999545,142.49730859999545,142.49730859999545,142.49730859999545,142.49730859999545,142.49730859999545,142.49730859999545,142.49730859999545,142.86369429994375,142.86369429994375,142.86369429994375,142.86369429994375,142.86369429994375,142.86369429994375,142.86369429994375,142.86369429994375,142.86369429994375,23,0,,,142.86369429994375,143.06383410003036,0.0,143.06383410003036,1,0.0,0,0,1000,num_4,0.4978867000900209,,32,12,2026-03-12_16h16.19.032,2026A_exp2,2022.2.4,59.95052880984449,
0,0,6.1,0.0,0,0,4,4,74,,,,,143.5810354000423,144.23169709998183,144.23169709998183,144.71604999992996,45,45,144.71604999992996,144.71604999992996,144.71604999992996,144.71604999992996,144.71604999992996,144.71604999992996,144.71604999992996,144.71604999992996,144.71604999992996,145.08263699989766,145.08263699989766,145.08263699989766,145.08263699989766,145.08263699989766,145.08263699989766,145.08263699989766,145.08263699989766,145.08263699989766,23,0,,,145.08263699989766,145.28283939999528,0.0,145.28283939999528,0,0.0,0,1,1000,num_1,0.638477300060913,,32,12,2026-03-12_16h16.19.032,2026A_exp2,2022.2.4,59.95052880984449,
1000,1,0.0,0.0,0,0,5,5,15,,,,,145.94993519992568,146.60084860003553,146.60084860003553,147.10185420000926,315,45,147.10185420000926,147.10185420000926,147.10185420000926,147.10185420000926,147.10185420000926,147.10185420000926,147.10185420000926,147.10185420000926,147.10185420000926,147.46817300003022,147.46817300003022,147.46817300003022,147.46817300003022,147.46817300003022,147.46817300003022,147.46817300003022,147.46817300003022,147.46817300003022,23,0,,,147.46817300003022,147.67041000002064,1000,147.67041000002064,1000,1000,1000,1000,0,num_3,0.4752454000990838,,32,12,2026-03-12_16h16.19.032,2026A_exp2,2022.2.4,59.95052880984449,
1,0,0.0,4.9,1,0,6,6,37,,,,,148.1689081999939,148.81950979982503,148.81950979982503,149.32083610002883,45,315,149.32083610002883,149.32083610002883,149.32083610002883,149.32083610002883,149.32083610002883,149.32083610002883,149.32083610002883,149.32083610002883,149.32083610002883,149.67035799985752,149.67035799985752,149.67035799985752,149.67035799985752,149.67035799985752,149.67035799985752,149.67035799985752,149.67035799985752,149.67035799985752,0,1,[0.0013272999785840511],[0.3504601998720318],149.67035799985752,149.8705914998427,4.9,149.88735629990697,1,4.9,1,1,1000,num_4,0.634893000125885,,32,12,2026-03-12_16h16.19.032,2026A_exp2,2022.2.4,59.95052880984449,
1000,1,6.1,3.7,0,0,7,7,75,,,,,150.5379289998673,151.18868330004625,151.18868330004625,151.68971249996684,45,45,151.68971249996684,151.68971249996684,151.68971249996684,151.68971249996684,151.68971249996684,151.68971249996684,151.68971249996684,151.68971249996684,151.68971249996684,152.03952939994633,152.03952939994633,152.03952939994633,152.03952939994633,152.03952939994633,152.03952939994633,152.03952939994633,152.03952939994633,152.03952939994633,0,1,[0.001250899862498045],[0.3503562998957932],152.03952939994633,152.2407460999675,1000,152.2407460999675,1000,1000,1000,1000,0,num_3,0.3686496000736952,,32,12,2026-03-12_16h16.19.032,2026A_exp2,2022.2.4,59.95052880984449,
1000,1,0.0,3.7,0,0,8,8,46,,,,,152.6400422998704,153.29080610000528,153.29080610000528,153.79194609983824,315,315,153.79194609983824,153.79194609983824,153.79194609983824,153.79194609983824,153.79194609983824,153.79194609983824,153.79194609983824,153.79194609983824,153.79194609983824,154.15825519990176,154.15825519990176,154.15825519990176,154.15825519990176,154.15825519990176,154.15825519990176,154.15825519990176,154.15825519990176,154.15825519990176,5,2,"[0.0012362999841570854, 0.2500429998617619]","[0.23383239982649684, 0.3333081000018865]",154.15825519990176,154.36092490004376,1000,154.36092490004376,1000,1000,1000,1000,1,num_2,0.37688240013085306,,32,12,2026-03-12_16h16.19.032,2026A_exp2,2022.2.4,59.95052880984449,
1,0,6.1,4.9,1,0,9,9,64,,,,,154.7589254998602,155.39286389993504,155.39286389993504,155.89396839984693,315,315,155.89396839984693,155.89396839984693,155.89396839984693,155.89396839984693,155.89396839984693,155.89396839984693,155.89396839984693,155.89396839984693,155.89396839984693,156.26045229984447,156.26045229984447,156.26045229984447,156.26045229984447,156.26045229984447,156.26045229984447,156.26045229984447,156.26045229984447,156.26045229984447,1,2,"[0.001240599900484085, 0.23342979978770018]","[0.21708939992822707, 0.36731049977242947]",156.26045229984447,156.4606675999239,4.9,156.4606675999239,1,4.9,1,1,1000,num_4,0.5897970001678914,,32,12,2026-03-12_16h16.19.032,2026A_exp2,2022.2.4,59.95052880984449,
1000,1,0.0,3.7,1,0,10,10,13,,,,,157.07783449999988,157.7285155998543,157.7285155998543,158.2129096998833,45,45,158.2129096998833,158.2129096998833,158.2129096998833,158.2129096998833,158.2129096998833,158.2129096998833,158.2129096998833,158.2129096998833,158.2129096998833,158.57949739997275,158.57949739997275,158.57949739997275,158.57949739997275,158.57949739997275,158.57949739997275,158.57949739997275,158.57949739997275,158.57949739997275,0,1,[0.001245400169864297],[0.367346600163728],158.57949739997275,158.781536599854,1000,158.781536599854,1000,1000,1000,1000,1,num_2,0.4036564000416547,,32,12,2026-03-12_16h16.19.032,2026A_exp2,2022.2.4,59.95052880984449,
1000,1,0.0,6.1,1,0,11,11,71,,,,,159.2133865999058,159.86418319982477,159.86418319982477,160.34845609986223,45,45,160.34845609986223,160.34845609986223,160.34845609986223,160.34845609986223,160.34845609986223,160.34845609986223,160.34845609986223,160.34845609986223,160.34845609986223,160.71490439982153,160.71490439982153,160.71490439982153,160.71490439982153,160.71490439982153,160.71490439982153,160.71490439982153,160.71490439982153,160.71490439982153,22,1,[0.21750849997624755],[0.23418129980564117],160.71490439982153,160.9169971998781,1000,160.9169971998781,1000,1000,1000,1000,1,num_2,0.33282320015132427,,32,12,2026-03-12_16h16.19.032,2026A_exp2,2022.2.4,59.95052880984449,
1,0,0.0,0.0,0,0,12,12,24,,,,,161.26517719984986,161.91600049985573,161.91600049985573,162.41706079989672,45,315,162.41706079989672,162.41706079989672,162.41706079989672,162.41706079989672,162.41706079989672,162.41706079989672,162.41706079989672,162.41706079989672,162.41706079989672,162.7669043999631,162.7669043999631,162.7669043999631,162.7669043999631,162.7669043999631,162.7669043999631,162.7669043999631,162.7669043999631,162.7669043999631,7,1,[0.0012208002153784037],[0.2503890001680702],162.7669043999631,162.96709980000742,0.0,162.96709980000742,1,0.0,0,0,1000,num_4,0.5632676999084651,,32,12,2026-03-12_16h16.19.032,2026A_exp2,2022.2.4,59.95052880984449,
1000,1,0.0,4.9,0,0,13,13,60,,,,,163.5511608000379,164.2017808998935,164.2017808998935,164.68621809990145,45,45,164.68621809990145,164.68621809990145,164.68621809990145,164.68621809990145,164.68621809990145,164.68621809990145,164.68621809990145,164.68621809990145,164.68621809990145,165.0525133998599,165.0525133998599,165.0525133998599,165.0525133998599,165.0525133998599,165.0525133998599,165.0525133998599,165.0525133998599,165.0525133998599,6,1,[0.0011997001711279154],[0.28361070016399026],165.0525133998599,165.25263500004075,1000,165.25263500004075,1000,1000,1000,1000,1,num_2,0.49323660018853843,,32,12,2026-03-12_16h16.19.032,2026A_exp2,2022.2.4,59.95052880984449,
1000,1,6.1,6.1,1,0,14,14,8,,,,,165.7699045999907,166.42055059992708,166.42055059992708,166.92155059985816,45,315,166.92155059985816,166.92155059985816,166.92155059985816,166.92155059985816,166.92155059985816,166.92155059985816,166.92155059985816,166.92155059985816,166.92155059985816,167.28810779983178,167.28810779983178,167.28810779983178,167.28810779983178,167.28810779983178,167.28810779983178,167.28810779983178,167.28810779983178,167.28810779983178,23,0,,,167.28810779983178,167.49039960000664,1000,167.49039960000664,1000,1000,1000,1000,1,num_2,0.3114509000442922,,32,12,2026-03-12_16h16.19.032,2026A_exp2,2022.2.4,59.95052880984449,
1,0,0.0,0.0,1,0,15,15,42,,,,,167.82179529988207,168.47255730000325,168.47255730000325,168.97381599992514,45,315,168.97381599992514,168.97381599992514,168.97381599992514,168.97381599992514,168.97381599992514,168.97381599992514,168.97381599992514,168.97381599992514,168.97381599992514,169.34002520004287,169.34002520004287,169.34002520004287,169.34002520004287,169.34002520004287,169.34002520004287,169.34002520004287,169.34002520004287,169.34002520004287,23,0,,,169.34002520004287,169.5404370999895,0.0,169.5404370999895,0,0.0,0,1,1000,num_1,0.6771716999355704,,32,12,2026-03-12_16h16.19.032,2026A_exp2,2022.2.4,59.95052880984449,
1000,1,6.1,0.0,0,0,16,16,81,,,,,170.24124130001292,170.89175079995766,170.89175079995766,171.3928467000369,45,315,171.3928467000369,171.3928467000369,171.3928467000369,171.3928467000369,171.3928467000369,171.3928467000369,171.3928467000369,171.3928467000369,171.3928467000369,171.75920689990744,171.75920689990744,171.75920689990744,171.75920689990744,171.75920689990744,171.75920689990744,171.75920689990744,171.75920689990744,171.75920689990744,10,6,"[0.0012487000785768032, 0.04976620012894273, 0.18360959994606674, 0.21710920007899404, 0.2505632000975311, 0.2838981000240892]","[0.017507600132375956, 0.16707770014181733, 0.20054410002194345, 0.23408420011401176, 0.2672379999421537, 0.31739420001395047]",171.75920689990744,171.9617683000397,1000,171.9617683000397,1000,1000,1000,1000,0,num_3,0.3284748001024127,,32,12,2026-03-12_16h16.19.032,2026A_exp2,2022.2.4,59.95052880984449,
1,0,6.1,0.0,1,0,17,17,89,,,,,172.3097659999039,172.9605101000052,172.9605101000052,173.46141480002552,45,45,173.46141480002552,173.46141480002552,173.46141480002552,173.46141480002552,173.46141480002552,173.46141480002552,173.46141480002552,173.46141480002552,173.46141480002552,173.82795459986664,173.82795459986664,173.82795459986664,173.82795459986664,173.82795459986664,173.82795459986664,173.82795459986664,173.82795459986664,173.82795459986664,21,2,"[0.1334160000551492, 0.31706260005012155]","[0.15015000011771917, 0.33368570008315146]",173.82795459986664,174.0282582999207,0.0,174.0282582999207,0,0.0,0,1,1000,num_1,0.4617765999864787,,32,12,2026-03-12_16h16.19.032,2026A_exp2,2022.2.4,59.95052880984449,
1000,1,4.9,0.0,0,0,18,18,54,,,,,174.51187799987383,175.16272399993613,175.16272399993613,175.6470299998764,45,315,175.6470299998764,175.6470299998764,175.6470299998764,175.6470299998764,175.6470299998764,175.6470299998764,175.6470299998764,175.6470299998764,175.6470299998764,176.01353639992885,176.01353639992885,176.01353639992885,176.01353639992885,176.01353639992885,176.01353639992885,176.01353639992885,176.01353639992885,176.01353639992885,18,5,"[0.03350769984535873, 0.11678609997034073, 0.1669457999523729, 0.3004137999378145, 0.3669846998527646]","[0.05021029990166426, 0.1335235999431461, 0.18364150007255375, 0.31731790001504123, 0.3669896998908371]",176.01353639992885,176.21567309997045,1000,176.21567309997045,1000,1000,1000,1000,0,num_3,0.45772280008532107,,32,12,2026-03-12_16h16.19.032,2026A_exp2,2022.2.4,59.95052880984449,
1,0,0.0,3.7,1,0,19,19,14,,,,,176.6974249999039,177.34821569989435,177.34821569989435,177.84918869985268,315,315,177.84918869985268,177.84918869985268,177.84918869985268,177.84918869985268,177.84918869985268,177.84918869985268,177.84918869985268,177.84918869985268,177.84918869985268,178.21574779995717,178.21574779995717,178.21574779995717,178.21574779995717,178.21574779995717,178.21574779995717,178.21574779995717,178.21574779995717,178.21574779995717,22,1,[0.15013339999131858],[0.16677269991487265],178.21574779995717,178.41579540004022,3.7,178.41579540004022,1,3.7,1,1,1000,num_4,0.4984912001527846,,32,12,2026-03-12_16h16.19.032,2026A_exp2,2022.2.4,59.95052880984449,
1000,1,4.9,0.0,0,0,20,20,41,,,,,178.93303459999152,179.58367679989897,179.58367679989897,180.08490549982525,45,315,180.08490549982525,180.08490549982525,180.08490549982525,180.08490549982525,180.08490549982525,180.08490549982525,180.08490549982525,180.08490549982525,180.08490549982525,180.45140989986248,180.45140989986248,180.45140989986248,180.45140989986248,180.45140989986248,180.45140989986248,180.45140989986248,180.45140989986248,180.45140989986248,16,4,"[0.050200399942696095, 0.1835129999089986, 0.2501949998550117, 0.3338149997871369]","[0.0668250999879092, 0.21695869998075068, 0.26710719987750053, 0.36715710000135005]",180.45140989986248,180.65333639993332,1000,180.65333639993332,1000,1000,1000,1000,0,num_3,0.021379500161856413,,32,12,2026-03-12_16h16.19.032,2026A_exp2,2022.2.4,59.95052880984449,
1000,1,0.0,4.9,0,0,21,21,26,,,,,180.7014879998751,181.35222080000676,181.35222080000676,181.85316539998166,315,315,181.85316539998166,181.85316539998166,181.85316539998166,181.85316539998166,181.85316539998166,181.85316539998166,181.85316539998166,181.85316539998166,181.85316539998166,182.21980109997094,182.21980109997094,182.21980109997094,182.21980109997094,182.21980109997094,182.21980109997094,182.21980109997094,182.21980109997094,182.21980109997094,10,3,"[0.0012332999613136053, 0.20026790001429617, 0.3003839000593871]","[0.166898800060153, 0.2171428999863565, 0.33387390011921525]",182.21980109997094,182.42161590000615,1000,182.42161590000615,1000,1000,1000,1000,1,num_2,0.7807257000822574,,32,12,2026-03-12_16h16.19.032,2026A_exp2,2022.2.4,59.95052880984449,
1000,1,6.1,0.0,1,0,22,22,83,,,,,183.2206696998328,183.8714163999539,183.8714163999539,184.37246099999174,45,45,184.37246099999174,184.37246099999174,184.37246099999174,184.37246099999174,184.37246099999174,184.37246099999174,184.37246099999174,184.37246099999174,184.37246099999174,184.72222190001048,184.72222190001048,184.72222190001048,184.72222190001048,184.72222190001048,184.72222190001048,184.72222190001048,184.72222190001048,184.72222190001048,21,1,[0.0012302999384701252],[0.017707300139591098],184.72222190001048,184.9239651998505,1000,184.9239651998505,1000,1000,1000,1000,0,num_3,0.3574572999496013,,32,12,2026-03-12_16h16.19.032,2026A_exp2,2022.2.4,59.95052880984449,
1,0,0.0,6.1,1,0,23,23,36,,,,,185.30606169998646,185.9567064999137,185.9567064999137,186.45779390004463,45,45,186.45779390004463,186.45779390004463,186.45779390004463,186.45779390004463,186.45779390004463,186.45779390004463,186.45779390004463,186.45779390004463,186.45779390004463,186.8077059998177,186.8077059998177,186.8077059998177,186.8077059998177,186.8077059998177,186.8077059998177,186.8077059998177,186.8077059998177,186.8077059998177,21,1,[0.16700290003791451],[0.18355110008269548],186.8077059998177,187.00787519989535,6.1,187.02457829983905,1,6.1,1,1,1000,num_4,0.4089317002799362,,32,12,2026-03-12_16h16.19.032,2026A_exp2,2022.2.4,59.95052880984449,
1000,1,0.0,3.7,1,0,24,24,84,,,,,187.4581801998429,188.10890350001864,188.10890350001864,188.5932999998331,315,45,188.5932999998331,188.5932999998331,188.5932999998331,188.5932999998331,188.5932999998331,188.5932999998331,188.5932999998331,188.5932999998331,188.5932999998331,188.95978879998438,188.95978879998438,188.95978879998438,188.95978879998438,188.95978879998438,188.95978879998438,188.95978879998438,188.95978879998438,188.95978879998438,15,6,"[0.05041699996218085, 0.1337577998638153, 0.1672010999172926, 0.25070099998265505, 0.30060989991761744, 0.35068269982002676]","[0.06716650002636015, 0.15053220000118017, 0.18400290003046393, 0.2672802999150008, 0.31746329995803535, 0.3674405999481678]",188.95978879998438,189.16206529992633,1000,189.16206529992633,1000,1000,1000,1000,1,num_2,0.39963120012544096,,32,12,2026-03-12_16h16.19.032,2026A_exp2,2022.2.4,59.95052880984449,
1000,1,0.0,0.0,0,0,25,25,7,,,,,189.5769509000238,190.2277655999642,190.2277655999642,190.7288130999077,45,45,190.7288130999077,190.7288130999077,190.7288130999077,190.7288130999077,190.7288130999077,190.7288130999077,190.7288130999077,190.7288130999077,190.7288130999077,191.09517819993198,191.09517819993198,191.09517819993198,191.09517819993198,191.09517819993198,191.09517819993198,191.09517819993198,191.09517819993198,191.09517819993198,1,2,"[0.0012417999096214771, 0.049933299887925386]","[0.03333609993569553, 0.3670842999126762]",191.09517819993198,191.2972987999674,1000,191.2972987999674,1000,1000,1000,1000,0,num_3,0.5523540002759546,,32,12,2026-03-12_16h16.19.032,2026A_exp2,2022.2.4,59.95052880984449,
0,0,4.9,0.0,1,0,26,26,67,,,,,191.87946540000848,192.52999129984528,192.52999129984528,193.0309723999817,45,45,193.0309723999817,193.0309723999817,193.0309723999817,193.0309723999817,193.0309723999817,193.0309723999817,193.0309723999817,193.0309723999817,193.0309723999817,193.39737199991941,193.39737199991941,193.39737199991941,193.39737199991941,193.39737199991941,193.39737199991941,193.39737199991941,193.39737199991941,193.39737199991941,23,0,,,193.39737199991941,193.59781880001538,4.9,193.59781880001538,1,4.9,1,1,1000,num_4,0.5075819999910891,,32,12,2026-03-12_16h16.19.032,2026A_exp2,2022.2.4,59.95052880984449,
1,0,0.0,3.7,1,0,27,27,32,,,,,194.13151440001093,194.78230199986137,194.78230199986137,195.2667560998816,315,45,195.2667560998816,195.2667560998816,195.2667560998816,195.2667560998816,195.2667560998816,195.2667560998816,195.2667560998816,195.2667560998816,195.2667560998816,195.63281490001827,195.63281490001827,195.63281490001827,195.63281490001827,195.63281490001827,195.63281490001827,195.63281490001827,195.63281490001827,195.63281490001827,19,3,"[0.13362999982200563, 0.3001995999366045, 0.33357149991206825]","[0.16711769998073578, 0.31720069982111454, 0.3498568998184055]",195.63281490001827,195.83335660002194,3.7,195.83335660002194,1,3.7,1,1,1000,num_4,0.4166435000952333,,32,12,2026-03-12_16h16.19.032,2026A_exp2,2022.2.4,59.95052880984449,
1000,1,0.0,0.0,1,0,28,28,1,,,,,196.26713319984265,196.91764929983765,196.91764929983765,197.40214869985357,45,45,197.40214869985357,197.40214869985357,197.40214869985357,197.40214869985357,197.40214869985357,197.40214869985357,197.40214869985357,197.40214869985357,197.40214869985357,197.76864549983293,197.76864549983293,197.76864549983293,197.76864549983293,197.76864549983293,197.76864549983293,197.76864549983293,197.76864549983293,197.76864549983293,23,0,,,197.76864549983293,197.96887169987895,1000,197.96887169987895,1000,1000,1000,1000,0,num_3,0.5531447001267225,,32,12,2026-03-12_16h16.19.032,2026A_exp2,2022.2.4,59.95052880984449,
1000,1,0.0,0.0,1,0,29,29,78,,,,,198.55257609998807,199.20321089983918,199.20321089983918,199.68739310000092,315,45,199.68739310000092,199.68739310000092,199.68739310000092,199.68739310000092,199.68739310000092,199.68739310000092,199.68739310000092,199.68739310000092,199.68739310000092,200.05418640002608,200.05418640002608,200.05418640002608,200.05418640002608,200.05418640002608,200.05418640002608,200.05418640002608,200.05418640002608,200.05418640002608,23,0,,,200.05418640002608,200.25612469995394,1000,200.25612469995394,1000,1000,1000,1000,1,num_2,0.42644910025410354,,32,12,2026-03-12_16h16.19.032,2026A_exp2,2022.2.4,59.95052880984449,
1,0,3.7,0.0,0,0,30,30,87,,,,,200.7047598999925,201.35539359995164,201.35539359995164,201.8566792998463,45,315,201.8566792998463,201.8566792998463,201.8566792998463,201.8566792998463,201.8566792998463,201.8566792998463,201.8566792998463,201.8566792998463,201.8566792998463,202.20633969991468,202.20633969991468,202.20633969991468,202.20633969991468,202.20633969991468,202.20633969991468,202.20633969991468,202.20633969991468,202.20633969991468,1,1,[0.017343000043183565],[0.35075880005024374],202.20633969991468,202.4064950000029,3.7,202.42327090003528,1,3.7,1,1,1000,num_4,0.5791966000106186,,32,12,2026-03-12_16h16.19.032,2026A_exp2,2022.2.4,59.95052880984449,
1000,1,4.9,0.0,1,0,31,31,10,,,,,203.02367160003632,203.6744978998322,203.6744978998322,204.15888469992206,315,315,204.15888469992206,204.15888469992206,204.15888469992206,204.15888469992206,204.15888469992206,204.15888469992206,204.15888469992206,204.15888469992206,204.15888469992206,204.52538689994253,204.52538689994253,204.52538689994253,204.52538689994253,204.52538689994253,204.52538689994253,204.52538689994253,204.52538689994253,204.52538689994253,23,0,,,204.52538689994253,204.7272252999246,1000,204.7272252999246,1000,1000,1000,1000,0,num_3,0.2662214001175016,,32,12,2026-03-12_16h16.19.032,2026A_exp2,2022.2.4,59.95052880984449,
1,0,0.0,4.9,0,0,32,32,73,,,,,205.00912489998154,205.65972270001657,205.65972270001657,206.16086209984496,45,45,206.16086209984496,206.16086209984496,206.16086209984496,206.16086209984496,206.16086209984496,206.16086209984496,206.16086209984496,206.16086209984496,206.16086209984496,206.52720159990713,206.52720159990713,206.52720159990713,206.52720159990713,206.52720159990713,206.52720159990713,206.52720159990713,206.52720159990713,206.52720159990713,23,0,,,206.52720159990713,206.7276138998568,0.0,206.7276138998568,1,0.0,0,0,1000,num_4,0.4416986999567598,,32,12,2026-03-12_16h16.19.032,2026A_exp2,2022.2.4,59.95052880984449,
1,0,3.7,6.1,0,0,33,33,52,,,,,207.19456420000643,207.8451751000248,207.8451751000248,208.32973190001212,315,315,208.32973190001212,208.32973190001212,208.32973190001212,208.32973190001212,208.32973190001212,208.32973190001212,208.32973190001212,208.32973190001212,208.32973190001212,208.69620019989088,208.69620019989088,208.69620019989088,208.69620019989088,208.69620019989088,208.69620019989088,208.69620019989088,208.69620019989088,208.69620019989088,23,0,,,208.69620019989088,208.8964382999111,3.7,208.8964382999111,0,3.7,1,0,1000,num_1,0.9301305999979377,,32,12,2026-03-12_16h16.19.032,2026A_exp2,2022.2.4,59.95052880984449,
1,0,0.0,0.0,1,0,34,34,49,,,,,209.84722789982334,210.49805649998598,210.49805649998598,210.9824502998963,45,315,210.9824502998963,210.9824502998963,210.9824502998963,210.9824502998963,210.9824502998963,210.9824502998963,210.9824502998963,210.9824502998963,210.9824502998963,211.34884290001355,211.34884290001355,211.34884290001355,211.34884290001355,211.34884290001355,211.34884290001355,211.34884290001355,211.34884290001355,211.34884290001355,23,0,,,211.34884290001355,211.54910889989696,0.0,211.54910889989696,1,0.0,0,0,1000,num_4,0.7563905001152307,,32,12,2026-03-12_16h16.19.032,2026A_exp2,2022.2.4,59.95052880984449,
1,0,4.9,3.7,0,0,35,35,44,,,,,212.33296329993755,212.98379379999824,212.98379379999824,213.484713899903,315,315,213.484713899903,213.484713899903,213.484713899903,213.484713899903,213.484713899903,213.484713899903,213.484713899903,213.484713899903,213.484713899903,213.83466719998978,213.83466719998978,213.83466719998978,213.83466719998978,213.83466719998978,213.83466719998978,213.83466719998978,213.83466719998978,213.83466719998978,3,2,"[0.017043199855834246, 0.21724389982409775]","[0.18389609991572797, 0.35088489996269345]",213.83466719998978,214.03483949997462,4.9,214.03483949997462,1,4.9,1,1,1000,num_4,0.27896180003881454,,32,12,2026-03-12_16h16.19.032,2026A_exp2,2022.2.4,59.95052880984449,
1000,1,3.7,3.7,0,0,36,36,63,,,,,214.33507699985057,214.9857903998345,214.9857903998345,215.47004759986885,315,45,215.47004759986885,215.47004759986885,215.47004759986885,215.47004759986885,215.47004759986885,215.47004759986885,215.47004759986885,215.47004759986885,215.47004759986885,215.83679950004444,215.83679950004444,215.83679950004444,215.83679950004444,215.83679950004444,215.83679950004444,215.83679950004444,215.83679950004444,215.83679950004444,4,3,"[0.0012047002092003822, 0.05021690018475056, 0.333609500201419]","[0.01702090003527701, 0.30021990020759404, 0.3668062000069767]",215.83679950004444,216.0386932999827,1000,216.0386932999827,1000,1000,1000,1000,0,num_3,0.6186482000630349,,32,12,2026-03-12_16h16.19.032,2026A_exp2,2022.2.4,59.95052880984449,
0,0,0.0,3.7,0,0,37,37,34,,,,,216.6874960998539,217.33816609997302,217.33816609997302,217.83918439992703,315,315,217.83918439992703,217.83918439992703,217.83918439992703,217.83918439992703,217.83918439992703,217.83918439992703,217.83918439992703,217.83918439992703,217.83918439992703,218.2057497999631,218.2057497999631,218.2057497999631,218.2057497999631,218.2057497999631,218.2057497999631,218.2057497999631,218.2057497999631,218.2057497999631,0,1,[0.0012320000678300858],[0.3672660000156611],218.2057497999631,218.40595109993592,3.7,218.40595109993592,1,3.7,1,1,1000,num_4,0.5726160001941025,,32,12,2026-03-12_16h16.19.032,2026A_exp2,2022.2.4,59.95052880984449,
1000,1,6.1,0.0,1,0,38,38,25,,,,,219.00629769987427,219.65723849995993,219.65723849995993,220.1416267999448,45,315,220.1416267999448,220.1416267999448,220.1416267999448,220.1416267999448,220.1416267999448,220.1416267999448,220.1416267999448,220.1416267999448,220.1416267999448,220.50801440002397,220.50801440002397,220.50801440002397,220.50801440002397,220.50801440002397,220.50801440002397,220.50801440002397,220.50801440002397,220.50801440002397,23,0,,,220.50801440002397,220.71040260000154,1000,220.71040260000154,1000,1000,1000,1000,0,num_3,0.32293520006351173,,32,12,2026-03-12_16h16.19.032,2026A_exp2,2022.2.4,59.95052880984449,
1,0,0.0,0.0,0,0,39,39,79,,,,,221.05846649990417,221.70920059992932,221.70920059992932,222.210243599955,45,45,222.210243599955,222.210243599955,222.210243599955,222.210243599955,222.210243599955,222.210243599955,222.210243599955,222.210243599955,222.210243599955,222.57680539996363,222.57680539996363,222.57680539996363,222.57680539996363,222.57680539996363,222.57680539996363,222.57680539996363,222.57680539996363,222.57680539996363,0,1,[0.0012278000358492136],[0.36646679998375475],222.57680539996363,222.77678219997324,0.0,222.77678219997324,1,0.0,0,0,1000,num_4,1.1765824002213776,,32,12,2026-03-12_16h16.19.032,2026A_exp2,2022.2.4,59.95052880984449,
1000,1,4.9,0.0,1,0,40,40,77,,,,,223.97799999988638,224.62873929995112,224.62873929995112,225.11324539990164,315,45,225.11324539990164,225.11324539990164,225.11324539990164,225.11324539990164,225.11324539990164,225.11324539990164,225.11324539990164,225.11324539990164,225.11324539990164,225.47968570003286,225.47968570003286,225.47968570003286,225.47968570003286,225.47968570003286,225.47968570003286,225.47968570003286,225.47968570003286,225.47968570003286,21,1,[0.0012747999280691147],[0.03359379991889],225.47968570003286,225.68190769990906,1000,225.68190769990906,1000,1000,1000,1000,0,num_3,0.28746030014008284,,32,12,2026-03-12_16h16.19.032,2026A_exp2,2022.2.4,59.95052880984449,
1,0,0.0,0.0,1,0,41,41,69,,,,,225.99673959985375,226.6475124999415,226.6475124999415,227.14866319997236,45,45,227.14866319997236,227.14866319997236,227.14866319997236,227.14866319997236,227.14866319997236,227.14866319997236,227.14866319997236,227.14866319997236,227.14866319997236,227.51502399984747,227.51502399984747,227.51502399984747,227.51502399984747,227.51502399984747,227.51502399984747,227.51502399984747,227.51502399984747,227.51502399984747,23,0,,,227.51502399984747,227.71512739988975,0.0,227.71512739988975,0,0.0,0,1,1000,num_1,0.69490240002051,,32,12,2026-03-12_16h16.19.032,2026A_exp2,2022.2.4,59.95052880984449,
1,0,0.0,6.1,1,0,42,42,33,,,,,228.4324935998302,229.06646849983372,229.06646849983372,229.56764819985256,45,45,229.56764819985256,229.56764819985256,229.56764819985256,229.56764819985256,229.56764819985256,229.56764819985256,229.56764819985256,229.56764819985256,229.56764819985256,229.9341827998869,229.9341827998869,229.9341827998869,229.9341827998869,229.9341827998869,229.9341827998869,229.9341827998869,229.9341827998869,229.9341827998869,23,0,,,229.9341827998869,230.13417149987072,6.1,230.13417149987072,1,6.1,1,1,1000,num_4,0.300074300263077,,32,12,2026-03-12_16h16.19.032,2026A_exp2,2022.2.4,59.95052880984449,
1000,1,3.7,4.9,0,0,43,43,45,,,,,230.4512103998568,231.10190259991214,231.10190259991214,231.58643349981867,315,315,231.58643349981867,231.58643349981867,231.58643349981867,231.58643349981867,231.58643349981867,231.58643349981867,231.58643349981867,231.58643349981867,231.58643349981867,231.95280659990385,231.95280659990385,231.95280659990385,231.95280659990385,231.95280659990385,231.95280659990385,231.95280659990385,231.95280659990385,231.95280659990385,2,1,[0.001228200038895011],[0.3507676001172513],231.95280659990385,232.15509360004216,1000,232.15509360004216,1000,1000,1000,1000,0,num_3,0.43063480011187494,,32,12,2026-03-12_16h16.19.032,2026A_exp2,2022.2.4,59.95052880984449,
1000,1,4.9,3.7,0,0,44,44,40,,,,,232.60342890000902,233.2539993999526,233.2539993999526,233.73835679981858,45,315,233.73835679981858,233.73835679981858,233.73835679981858,233.73835679981858,233.73835679981858,233.73835679981858,233.73835679981858,233.73835679981858,233.73835679981858,234.1047574998811,234.1047574998811,234.1047574998811,234.1047574998811,234.1047574998811,234.1047574998811,234.1047574998811,234.1047574998811,234.1047574998811,5,1,[0.0008107998874038458],[0.30089630000293255],234.1047574998811,234.30669580004178,1000,234.30669580004178,1000,1000,1000,1000,0,num_3,0.45539760007523,,32,12,2026-03-12_16h16.19.032,2026A_exp2,2022.2.4,59.95052880984449,
1000,1,3.7,0.0,0,0,45,45,56,,,,,234.7888189998921,235.43959819991142,235.43959819991142,235.94048530003056,45,315,235.94048530003056,235.94048530003056,235.94048530003056,235.94048530003056,235.94048530003056,235.94048530003056,235.94048530003056,235.94048530003056,235.94048530003056,236.29049419984221,236.29049419984221,236.29049419984221,236.29049419984221,236.29049419984221,236.29049419984221,236.29049419984221,236.29049419984221,236.29049419984221,21,1,[0.01696409983560443],[0.03295669984072447],236.29049419984221,236.4925418999046,1000,236.5072331998963,1000,1000,1000,1000,0,num_3,0.2227752001490444,,32,12,2026-03-12_16h16.19.032,2026A_exp2,2022.2.4,59.95052880984449,
1,0,3.7,4.9,1,0,46,46,18,,,,,236.7574050000403,237.40820189984515,237.40820189984515,237.90922549995594,315,45,237.90922549995594,237.90922549995594,237.90922549995594,237.90922549995594,237.90922549995594,237.90922549995594,237.90922549995594,237.90922549995594,237.90922549995594,238.25911059998907,238.25911059998907,238.25911059998907,238.25911059998907,238.25911059998907,238.25911059998907,238.25911059998907,238.25911059998907,238.25911059998907,22,0,,,238.25911059998907,238.4592436000239,4.9,238.4592436000239,1,4.9,1,1,1000,num_4,0.3987214001826942,,32,12,2026-03-12_16h16.19.032,2026A_exp2,2022.2.4,59.95052880984449,
0,0,4.9,3.7,0,0,47,47,28,,,,,238.87621759995818,239.52707850001752,239.52707850001752,240.01148179988377,45,315,240.01148179988377,240.01148179988377,240.01148179988377,240.01148179988377,240.01148179988377,240.01148179988377,240.01148179988377,240.01148179988377,240.01148179988377,240.3778593998868,240.3778593998868,240.3778593998868,240.3778593998868,240.3778593998868,240.3778593998868,240.3778593998868,240.3778593998868,240.3778593998868,23,0,,,240.3778593998868,240.57813359983265,3.7,240.57813359983265,0,3.7,1,0,1000,num_1,0.5360928000882268,,32,12,2026-03-12_16h16.19.032,2026A_exp2,2022.2.4,59.95052880984449,
1,0,4.9,3.7,1,0,48,48,27,,,,,241.145302799996,241.79589319997467,241.79589319997467,242.28038869984448,315,315,242.28038869984448,242.28038869984448,242.28038869984448,242.28038869984448,242.28038869984448,242.28038869984448,242.28038869984448,242.28038869984448,242.28038869984448,242.64676579996012,242.64676579996012,242.64676579996012,242.64676579996012,242.64676579996012,242.64676579996012,242.64676579996012,242.64676579996012,242.64676579996012,16,3,"[0.001404500100761652, 0.050268799997866154, 0.10028730006888509]","[0.033580000046640635, 0.06693540001288056, 0.1669437000527978]",242.64676579996012,242.84704070002772,3.7,242.84704070002772,1,3.7,1,1,1000,num_4,0.9555984002072364,,32,12,2026-03-12_16h16.19.032,2026A_exp2,2022.2.4,59.95052880984449,
1,0,3.7,3.7,1,0,49,49,30,,,,,243.83145029982552,244.4652960000094,244.4652960000094,244.96636900003068,45,45,244.96636900003068,244.96636900003068,244.96636900003068,244.96636900003068,244.96636900003068,244.96636900003068,244.96636900003068,244.96636900003068,244.96636900003068,245.33279869984835,245.33279869984835,245.33279869984835,245.33279869984835,245.33279869984835,245.33279869984835,245.33279869984835,245.33279869984835,245.33279869984835,23,0,,,245.33279869984835,245.53289849986322,3.7,245.53289849986322,1,3.7,1,1,1000,num_4,0.5164948001038283,,32,12,2026-03-12_16h16.19.032,2026A_exp2,2022.2.4,59.95052880984449,
1,0,0.0,0.0,1,0,50,50,39,,,,,246.06697789998725,246.71760339988396,246.71760339988396,247.2020294999238,45,315,247.2020294999238,247.2020294999238,247.2020294999238,247.2020294999238,247.2020294999238,247.2020294999238,247.2020294999238,247.2020294999238,247.2020294999238,247.56838979991153,247.56838979991153,247.56838979991153,247.56838979991153,247.56838979991153,247.56838979991153,247.56838979991153,247.56838979991153,247.56838979991153,11,2,"[0.03359120013192296, 0.1170624999795109]","[0.06699790013954043, 0.3005244000814855]",247.56838979991153,247.76863799989223,0.0,247.76863799989223,0,0.0,0,1,1000,num_1,0.6258372000884265,,32,12,2026-03-12_16h16.19.032,2026A_exp2,2022.2.4,59.95052880984449,
1,0,0.0,6.1,0,0,51,51,0,,,,,248.4195026999805,249.06987180002034,249.06987180002034,249.5542319000233,45,315,249.5542319000233,249.5542319000233,249.5542319000233,249.5542319000233,249.5542319000233,249.5542319000233,249.5542319000233,249.5542319000233,249.5542319000233,249.92069549998268,249.92069549998268,249.92069549998268,249.92069549998268,249.92069549998268,249.92069549998268,249.92069549998268,249.92069549998268,249.92069549998268,5,2,"[0.05046029994264245, 0.1836089000571519]","[0.16721990006044507, 0.36734100012108684]",249.92069549998268,250.12092569982633,0.0,250.12092569982633,0,0.0,0,1,1000,num_1,0.5923986001871526,,32,12,2026-03-12_16h16.19.032,2026A_exp2,2022.2.4,59.95052880984449,
1,0,0.0,4.9,0,0,52,52,3,,,,,250.73817100003362,251.38893379992805,251.38893379992805,251.87327129999176,45,315,251.87327129999176,251.87327129999176,251.87327129999176,251.87327129999176,251.87327129999176,251.87327129999176,251.87327129999176,251.87327129999176,251.87327129999176,252.23976100003347,252.23976100003347,252.23976100003347,252.23976100003347,252.23976100003347,252.23976100003347,252.23976100003347,252.23976100003347,252.23976100003347,22,1,[0.25038550002500415],[0.26699759997427464],252.23976100003347,252.43991620000452,0.0,252.43991620000452,1,0.0,0,0,1000,num_4,1.1214886999223381,,32,12,2026-03-12_16h16.19.032,2026A_exp2,2022.2.4,59.95052880984449,
1,0,6.1,0.0,1,0,53,53,70,,,,,253.59130169986747,254.22495129983872,254.22495129983872,254.72620869986713,315,315,254.72620869986713,254.72620869986713,254.72620869986713,254.72620869986713,254.72620869986713,254.72620869986713,254.72620869986713,254.72620869986713,254.72620869986713,255.09243349987082,255.09243349987082,255.09243349987082,255.09243349987082,255.09243349987082,255.09243349987082,255.09243349987082,255.09243349987082,255.09243349987082,23,0,,,255.09243349987082,255.29282470000908,0.0,255.29282470000908,0,0.0,0,1,1000,num_1,0.8451902000233531,,32,12,2026-03-12_16h16.19.032,2026A_exp2,2022.2.4,59.95052880984449,
1000,1,3.7,6.1,1,0,54,54,58,,,,,256.160123599926,256.79431699984707,256.79431699984707,257.29545699991286,45,315,257.29545699991286,257.29545699991286,257.29545699991286,257.29545699991286,257.29545699991286,257.29545699991286,257.29545699991286,257.29545699991286,257.29545699991286,257.66171859996393,257.66171859996393,257.66171859996393,257.66171859996393,257.66171859996393,257.66171859996393,257.66171859996393,257.66171859996393,257.66171859996393,19,4,"[0.03349060006439686, 0.08355260011740029, 0.16687690000981092, 0.25033530010841787]","[0.0502105001360178, 0.100097700022161, 0.18347340007312596, 0.26709440001286566]",257.66171859996393,257.8641269998625,1000,257.8641269998625,1000,1000,1000,1000,1,num_2,0.7055312001612037,,32,12,2026-03-12_16h16.19.032,2026A_exp2,2022.2.4,59.95052880984449,
1,0,4.9,0.0,0,0,55,55,53,,,,,258.5959570000414,259.23001939989626,259.23001939989626,259.7309681000188,45,45,259.7309681000188,259.7309681000188,259.7309681000188,259.7309681000188,259.7309681000188,259.7309681000188,259.7309681000188,259.7309681000188,259.7309681000188,260.09759350004606,260.09759350004606,260.09759350004606,260.09759350004606,260.09759350004606,260.09759350004606,260.09759350004606,260.09759350004606,260.09759350004606,4,5,"[0.0012278000358492136, 0.08336609997786582, 0.1669268999248743, 0.2337781998794526, 0.35055339988321066]","[0.06691549997776747, 0.15019559999927878, 0.21707820007577538, 0.33371459995396435, 0.3671875]",260.09759350004606,260.2977978999261,4.9,260.2977978999261,1,4.9,1,1,1000,num_4,0.5287936001550406,,32,12,2026-03-12_16h16.19.032,2026A_exp2,2022.2.4,59.95052880984449,
1,0,6.1,0.0,0,0,56,56,21,,,,,260.8483243000228,261.4990133999381,261.4990133999381,261.9834610999096,45,45,261.9834610999096,261.9834610999096,261.9834610999096,261.9834610999096,261.9834610999096,261.9834610999096,261.9834610999096,261.9834610999096,261.9834610999096,262.3498778999783,262.3498778999783,262.3498778999783,262.3498778999783,262.3498778999783,262.3498778999783,262.3498778999783,262.3498778999783,262.3498778999783,18,2,"[0.25057849986478686, 0.3172812999691814]","[0.26714139990508556, 0.3673415998928249]",262.3498778999783,262.55010679992847,6.1,262.55010679992847,1,6.1,1,1,1000,num_4,0.5001846002414823,,32,12,2026-03-12_16h16.19.032,2026A_exp2,2022.2.4,59.95052880984449,
1000,1,0.0,0.0,1,0,57,57,85,,,,,263.0670759999193,263.7179002999328,263.7179002999328,264.2022104000207,315,45,264.2022104000207,264.2022104000207,264.2022104000207,264.2022104000207,264.2022104000207,264.2022104000207,264.2022104000207,264.2022104000207,264.2022104000207,264.5687577999197,264.5687577999197,264.5687577999197,264.5687577999197,264.5687577999197,264.5687577999197,264.5687577999197,264.5687577999197,264.5687577999197,8,1,[0.1337258000858128],[0.3672738999594003],264.5687577999197,264.7711401998531,1000,264.7711401998531,1000,1000,1000,1000,0,num_3,0.48665720014832914,,32,12,2026-03-12_16h16.19.032,2026A_exp2,2022.2.4,59.95052880984449,
1,0,4.9,0.0,1,0,58,58,65,,,,,265.28608229989186,265.93647890002467,265.93647890002467,266.4378263000399,315,315,266.4378263000399,266.4378263000399,266.4378263000399,266.4378263000399,266.4378263000399,266.4378263000399,266.4378263000399,266.4378263000399,266.4378263000399,266.8041516998783,266.8041516998783,266.8041516998783,266.8041516998783,266.8041516998783,266.8041516998783,266.8041516998783,266.8041516998783,266.8041516998783,21,2,"[0.06685740011744201, 0.3672986999154091]","[0.10030609997920692, 0.36730329995043576]",266.8041516998783,267.00446560001,0.0,267.00446560001,0,0.0,0,1,1000,num_1,0.5167517000809312,,32,12,2026-03-12_16h16.19.032,2026A_exp2,2022.2.4,59.95052880984449,
1000,1,6.1,6.1,0,0,59,59,16,,,,,267.5384664000012,268.18877050001174,268.18877050001174,268.6734929999802,315,315,268.6734929999802,268.6734929999802,268.6734929999802,268.6734929999802,268.6734929999802,268.6734929999802,268.6734929999802,268.6734929999802,268.6734929999802,269.039898699848,269.039898699848,269.039898699848,269.039898699848,269.039898699848,269.039898699848,269.039898699848,269.039898699848,269.039898699848,10,6,"[0.0012367998715490103, 0.05017269984818995, 0.08359459997154772, 0.15036329999566078, 0.21692879986949265, 0.3337299998383969]","[0.0173463998362422, 0.0670348999556154, 0.13351009995676577, 0.18362389993853867, 0.300332399783656, 0.3671541998628527]",269.039898699848,269.2411147998646,1000,269.2411147998646,1000,1000,1000,1000,0,num_3,0.6001163001637906,,32,12,2026-03-12_16h16.19.032,2026A_exp2,2022.2.4,59.95052880984449,
1000,1,0.0,6.1,1,0,60,60,43,,,,,269.85728490003385,270.5080230999738,270.5080230999738,271.00895849987864,315,45,271.00895849987864,271.00895849987864,271.00895849987864,271.00895849987864,271.00895849987864,271.00895849987864,271.00895849987864,271.00895849987864,271.00895849987864,271.3754079998471,271.3754079998471,271.3754079998471,271.3754079998471,271.3754079998471,271.3754079998471,271.3754079998471,271.3754079998471,271.3754079998471,23,0,,,271.3754079998471,271.57778639998287,1000,271.57778639998287,1000,1000,1000,1000,1,num_2,0.3034686001483351,,32,12,2026-03-12_16h16.19.032,2026A_exp2,2022.2.4,59.95052880984449,
1000,1,0.0,0.0,0,0,61,61,5,,,,,271.9093239000067,272.5598414998967,272.5598414998967,273.0611741000321,45,45,273.0611741000321,273.0611741000321,273.0611741000321,273.0611741000321,273.0611741000321,273.0611741000321,273.0611741000321,273.0611741000321,273.0611741000321,273.42757039982826,273.42757039982826,273.42757039982826,273.42757039982826,273.42757039982826,273.42757039982826,273.42757039982826,273.42757039982826,273.42757039982826,10,5,"[0.0012164001818746328, 0.0668557002209127, 0.11675520008429885, 0.20019650016911328, 0.2670052000321448]","[0.05008110008202493, 0.10024190018884838, 0.16689070011489093, 0.25016860011965036, 0.3002398000098765]",273.42757039982826,273.62988819996826,1000,273.62988819996826,1000,1000,1000,1000,1,num_2,1.2606351000722498,,32,12,2026-03-12_16h16.19.032,2026A_exp2,2022.2.4,59.95052880984449,
1000,1,3.7,0.0,1,0,62,62,38,,,,,274.912306800019,275.5629192998167,275.5629192998167,276.0640779999085,45,45,276.0640779999085,276.0640779999085,276.0640779999085,276.0640779999085,276.0640779999085,276.0640779999085,276.0640779999085,276.0640779999085,276.0640779999085,276.4306022999808,276.4306022999808,276.4306022999808,276.4306022999808,276.4306022999808,276.4306022999808,276.4306022999808,276.4306022999808,276.4306022999808,15,4,"[0.0011996999382972717, 0.08348329993896186, 0.20042239991016686, 0.2508612999226898]","[0.050241699907928705, 0.10039180004969239, 0.2337718999478966, 0.28323960001580417]",276.4306022999808,276.6453436999582,1000,276.6453436999582,1000,1000,1000,1000,0,num_3,0.5093455002643168,,32,12,2026-03-12_16h16.19.032,2026A_exp2,2022.2.4,59.95052880984449,
1000,1,0.0,4.9,0,0,63,63,6,,,,,277.18139519984834,277.8320079999976,277.8320079999976,278.3330991000403,315,315,278.3330991000403,278.3330991000403,278.3330991000403,278.3330991000403,278.3330991000403,278.3330991000403,278.3330991000403,278.3330991000403,278.3330991000403,278.6995728998445,278.6995728998445,278.6995728998445,278.6995728998445,278.6995728998445,278.6995728998445,278.6995728998445,278.6995728998445,278.6995728998445,15,4,"[0.050097799859941006, 0.18348309979774058, 0.2503990998957306, 0.3671797998249531]","[0.08326499979011714, 0.20024099992588162, 0.317011300008744, 0.36718499986454844]",278.6995728998445,278.9015082998667,1000,278.9015082998667,1000,1000,1000,1000,0,num_3,0.5244979001581669,,32,12,2026-03-12_16h16.19.032,2026A_exp2,2022.2.4,59.95052880984449,
1,0,0.0,6.1,1,0,64,64,50,,,,,279.45049880002625,280.08410989982076,280.08410989982076,280.58542969985865,315,45,280.58542969985865,280.58542969985865,280.58542969985865,280.58542969985865,280.58542969985865,280.58542969985865,280.58542969985865,280.58542969985865,280.58542969985865,280.9517085000407,280.9517085000407,280.9517085000407,280.9517085000407,280.9517085000407,280.9517085000407,280.9517085000407,280.9517085000407,280.9517085000407,21,1,[0.31741350004449487],[0.35088859987445176],280.9517085000407,281.15195699990727,6.1,281.15195699990727,1,6.1,1,1,1000,num_4,0.4658627000171691,,32,12,2026-03-12_16h16.19.032,2026A_exp2,2022.2.4,59.95052880984449,
1000,1,3.7,6.1,1,0,65,65,48,,,,,281.63567229988985,282.2864317998756,282.2864317998756,282.77077919989824,315,315,282.77077919989824,282.77077919989824,282.77077919989824,282.77077919989824,282.77077919989824,282.77077919989824,282.77077919989824,282.77077919989824,282.77077919989824,283.13722569984384,283.13722569984384,283.13722569984384,283.13722569984384,283.13722569984384,283.13722569984384,283.13722569984384,283.13722569984384,283.13722569984384,20,2,"[0.03356450004503131, 0.2837970999535173]","[0.050248999847099185, 0.31726389983668923]",283.13722569984384,283.3394483998418,1000,283.3394483998418,1000,1000,1000,1000,1,num_2,0.47040310013107955,,32,12,2026-03-12_16h16.19.032,2026A_exp2,2022.2.4,59.95052880984449,
1000,1,0.0,0.0,0,0,66,66,86,,,,,283.8378981000278,284.48863789997995,284.48863789997995,284.98981969989836,45,45,284.98981969989836,284.98981969989836,284.98981969989836,284.98981969989836,284.98981969989836,284.98981969989836,284.98981969989836,284.98981969989836,284.98981969989836,285.3562186998315,285.3562186998315,285.3562186998315,285.3562186998315,285.3562186998315,285.3562186998315,285.3562186998315,285.3562186998315,285.3562186998315,23,0,,,285.3562186998315,285.5581429998856,1000,285.5581429998856,1000,1000,1000,1000,0,num_3,0.4597585001029074,,32,12,2026-03-12_16h16.19.032,2026A_exp2,2022.2.4,59.95052880984449,
1,0,6.1,4.9,1,0,67,67,11,,,,,286.0401951998938,286.69077220000327,286.69077220000327,287.19200529996306,315,45,287.19200529996306,287.19200529996306,287.19200529996306,287.19200529996306,287.19200529996306,287.19200529996306,287.19200529996306,287.19200529996306,287.19200529996306,287.5416323998943,287.5416323998943,287.5416323998943,287.5416323998943,287.5416323998943,287.5416323998943,287.5416323998943,287.5416323998943,287.5416323998943,22,1,[0.11704620020464063],[0.1335170001257211],287.5416323998943,287.7418762999587,4.9,287.75857059983537,1,4.9,1,1,1000,num_4,0.5548726001288742,,32,12,2026-03-12_16h16.19.032,2026A_exp2,2022.2.4,59.95052880984449,
1000,1,3.7,0.0,0,0,68,68,76,,,,,288.34243369987234,288.99291160004213,288.99291160004213,289.4772945998702,315,45,289.4772945998702,289.4772945998702,289.4772945998702,289.4772945998702,289.4772945998702,289.4772945998702,289.4772945998702,289.4772945998702,289.4772945998702,289.8440511999652,289.8440511999652,289.8440511999652,289.8440511999652,289.8440511999652,289.8440511999652,289.8440511999652,289.8440511999652,289.8440511999652,3,1,[0.0011536001693457365],[0.33417010004632175],289.8440511999652,290.04649450001307,1000,290.04649450001307,1000,1000,1000,1000,0,num_3,0.4595160000026226,,32,12,2026-03-12_16h16.19.032,2026A_exp2,2022.2.4,59.95052880984449,
1,0,6.1,0.0,1,0,69,69,80,,,,,290.5278857999947,291.17863360000774,291.17863360000774,291.67962369997986,315,45,291.67962369997986,291.67962369997986,291.67962369997986,291.67962369997986,291.67962369997986,291.67962369997986,291.67962369997986,291.67962369997986,291.67962369997986,292.0461989999749,292.0461989999749,292.0461989999749,292.0461989999749,292.0461989999749,292.0461989999749,292.0461989999749,292.0461989999749,292.0461989999749,21,2,"[0.0011397001799196005, 0.2343469001352787]","[0.017309500137344003, 0.2507830001413822]",292.0461989999749,292.24641489982605,0.0,292.24641489982605,0,0.0,0,1,1000,num_1,0.5234121002722532,,32,12,2026-03-12_16h16.19.032,2026A_exp2,2022.2.4,59.95052880984449,
0,0,0.0,0.0,0,0,70,70,59,,,,,292.796826899983,293.44744679983705,293.44744679983705,293.9318770999089,315,45,293.9318770999089,293.9318770999089,293.9318770999089,293.9318770999089,293.9318770999089,293.9318770999089,293.9318770999089,293.9318770999089,293.9318770999089,294.2984211000148,294.2984211000148,294.2984211000148,294.2984211000148,294.2984211000148,294.2984211000148,294.2984211000148,294.2984211000148,294.2984211000148,6,4,"[0.0012167999520897865, 0.08349490002728999, 0.18297419999726117, 0.23359060008078814]","[0.03337740013375878, 0.16643620003014803, 0.19989760010503232, 0.36725520016625524]",294.2984211000148,294.4986451000441,0.0,294.4986451000441,1,0.0,0,0,1000,num_4,1.0228078002110124,,32,12,2026-03-12_16h16.19.032,2026A_exp2,2022.2.4,59.95052880984449,
1,0,6.1,6.1,1,0,71,71,23,,,,,295.5497522999067,296.20031949994154,296.20031949994154,296.70150059997104,45,45,296.70150059997104,296.70150059997104,296.70150059997104,296.70150059997104,296.70150059997104,296.70150059997104,296.70150059997104,296.70150059997104,296.70150059997104,297.06767899985425,297.06767899985425,297.06767899985425,297.06767899985425,297.06767899985425,297.06767899985425,297.06767899985425,297.06767899985425,297.06767899985425,21,1,[0.2503478000871837],[0.28378130006603897],297.06767899985425,297.26809669984505,6.1,297.26809669984505,1,6.1,1,1,1000,num_4,0.4531561001203954,,32,12,2026-03-12_16h16.19.032,2026A_exp2,2022.2.4,59.95052880984449,
1,0,3.7,0.0,1,0,72,72,12,,,,,297.75210089981556,298.3858329998329,298.3858329998329,298.88692009984516,315,45,298.88692009984516,298.88692009984516,298.88692009984516,298.88692009984516,298.88692009984516,298.88692009984516,298.88692009984516,298.88692009984516,298.88692009984516,299.2533668000251,299.2533668000251,299.2533668000251,299.2533668000251,299.2533668000251,299.2533668000251,299.2533668000251,299.2533668000251,299.2533668000251,23,0,,,299.2533668000251,299.45357170002535,0.0,299.45357170002535,0,0.0,0,1,1000,num_1,0.5487145001534373,,32,12,2026-03-12_16h16.19.032,2026A_exp2,2022.2.4,59.95052880984449,
1,0,3.7,4.9,1,0,73,73,20,,,,,300.020685599884,300.67153179994784,300.67153179994784,301.15590339992195,315,45,301.15590339992195,301.15590339992195,301.15590339992195,301.15590339992195,301.15590339992195,301.15590339992195,301.15590339992195,301.15590339992195,301.15590339992195,301.52239079982974,301.52239079982974,301.52239079982974,301.52239079982974,301.52239079982974,301.52239079982974,301.52239079982974,301.52239079982974,301.52239079982974,21,1,[0.16701340000145137],[0.20043610013090074],301.52239079982974,301.72241569985636,4.9,301.72241569985636,1,4.9,1,1,1000,num_4,0.6071000001393259,,32,12,2026-03-12_16h16.19.032,2026A_exp2,2022.2.4,59.95052880984449,
1000,1,6.1,0.0,1,0,74,74,29,,,,,302.3564526999835,303.00708199990913,303.00708199990913,303.4916123000439,45,45,303.4916123000439,303.4916123000439,303.4916123000439,303.4916123000439,303.4916123000439,303.4916123000439,303.4916123000439,303.4916123000439,303.4916123000439,303.85790820000693,303.85790820000693,303.85790820000693,303.85790820000693,303.85790820000693,303.85790820000693,303.85790820000693,303.85790820000693,303.85790820000693,22,1,[0.05027969996444881],[0.06689799996092916],303.85790820000693,304.06054589990526,1000,304.06054589990526,1000,1000,1000,1000,0,num_3,0.4531018999405205,,32,12,2026-03-12_16h16.19.032,2026A_exp2,2022.2.4,59.95052880984449,
1,0,6.1,3.7,1,0,75,75,51,,,,,304.54188150004484,305.1926690998953,305.1926690998953,305.6938234998379,315,45,305.6938234998379,305.6938234998379,305.6938234998379,305.6938234998379,305.6938234998379,305.6938234998379,305.6938234998379,305.6938234998379,305.6938234998379,306.04350419994444,306.04350419994444,306.04350419994444,306.04350419994444,306.04350419994444,306.04350419994444,306.04350419994444,306.04350419994444,306.04350419994444,21,1,[0.26667969999834895],[0.2835464000236243],306.04350419994444,306.24375010002404,3.7,306.24375010002404,1,3.7,1,1,1000,num_4,1.462618200108409,,32,12,2026-03-12_16h16.19.032,2026A_exp2,2022.2.4,59.95052880984449,
0,0,3.7,0.0,0,0,76,76,62,,,,,307.7285471998621,308.3791706999764,308.3791706999764,308.86366219981574,315,315,308.86366219981574,308.86366219981574,308.86366219981574,308.86366219981574,308.86366219981574,308.86366219981574,308.86366219981574,308.86366219981574,308.86366219981574,309.22997209988534,309.22997209988534,309.22997209988534,309.22997209988534,309.22997209988534,309.22997209988534,309.22997209988534,309.22997209988534,309.22997209988534,7,6,"[0.0012263001408427954, 0.050245100166648626, 0.1335103001911193, 0.21698170015588403, 0.28378719999454916, 0.3504843001719564]","[0.01750540011562407, 0.10021260008215904, 0.2004653001204133, 0.26718050008639693, 0.3174446001648903, 0.3672387001570314]",309.22997209988534,309.43026659986936,0.0,309.43026659986936,0,0.0,0,1,1000,num_1,0.6121076000854373,,32,12,2026-03-12_16h16.19.032,2026A_exp2,2022.2.4,59.95052880984449,
1000,1,3.7,0.0,1,0,77,77,19,,,,,310.06414969987236,310.7149265999906,310.7149265999906,311.19934489997104,45,315,311.19934489997104,311.19934489997104,311.19934489997104,311.19934489997104,311.19934489997104,311.19934489997104,311.19934489997104,311.19934489997104,311.19934489997104,311.5659111998975,311.5659111998975,311.5659111998975,311.5659111998975,311.5659111998975,311.5659111998975,311.5659111998975,311.5659111998975,311.5659111998975,23,0,,,311.5659111998975,311.7676861998625,1000,311.7676861998625,1000,1000,1000,1000,0,num_3,0.40220300015062094,,32,12,2026-03-12_16h16.19.032,2026A_exp2,2022.2.4,59.95052880984449,
0,0,6.1,4.9,0,0,78,78,22,,,,,312.19964989996515,312.8502289999742,312.8502289999742,313.3515393999405,45,315,313.3515393999405,313.3515393999405,313.3515393999405,313.3515393999405,313.3515393999405,313.3515393999405,313.3515393999405,313.3515393999405,313.3515393999405,313.70128369983286,313.70128369983286,313.70128369983286,313.70128369983286,313.70128369983286,313.70128369983286,313.70128369983286,313.70128369983286,313.70128369983286,1,2,"[0.001248599961400032, 0.05015299981459975]","[0.03344489983282983, 0.35000330000184476]",313.70128369983286,313.90126489987597,4.9,313.91812979988754,0,4.9,1,0,1000,num_1,0.6835700999945402,,32,12,2026-03-12_16h16.19.032,2026A_exp2,2022.2.4,59.95052880984449,
1000,1,3.7,3.7,0,0,79,79,72,,,,,314.61872959998436,315.269420000026,315.269420000026,315.7537155000027,45,45,315.7537155000027,315.7537155000027,315.7537155000027,315.7537155000027,315.7537155000027,315.7537155000027,315.7537155000027,315.7537155000027,315.7537155000027,316.1201669999864,316.1201669999864,316.1201669999864,316.1201669999864,316.1201669999864,316.1201669999864,316.1201669999864,316.1201669999864,316.1201669999864,9,4,"[0.016950000077486038, 0.11706570000387728, 0.20042930007912219, 0.26734070014208555]","[0.0670493000652641, 0.1504592001438141, 0.233871900010854, 0.3672142999712378]",316.1201669999864,316.3446990000084,1000,316.3446990000084,1000,1000,1000,1000,1,num_2,0.6568987001664937,,32,12,2026-03-12_16h16.19.032,2026A_exp2,2022.2.4,59.95052880984449,
1000,1,6.1,6.1,1,0,80,80,4,,,,,317.0210630998481,317.67184789991006,317.67184789991006,318.173071899917,315,315,318.173071899917,318.173071899917,318.173071899917,318.173071899917,318.173071899917,318.173071899917,318.173071899917,318.173071899917,318.173071899917,318.53956559998915,318.53956559998915,318.53956559998915,318.53956559998915,318.53956559998915,318.53956559998915,318.53956559998915,318.53956559998915,318.53956559998915,18,5,"[0.05016270000487566, 0.10013840021565557, 0.16705650021322072, 0.2002816000021994, 0.33352330001071095]","[0.06716570002026856, 0.11701799998991191, 0.18382020015269518, 0.2170579000376165, 0.3667303000111133]",318.53956559998915,318.73956019990146,1000,318.73956019990146,1000,1000,1000,1000,1,num_2,0.4776854000519961,,32,12,2026-03-12_16h16.19.032,2026A_exp2,2022.2.4,59.95052880984449,
1000,1,4.9,4.9,1,0,81,81,68,,,,,319.2398202000186,319.8905350000132,319.8905350000132,320.3918488000054,45,315,320.3918488000054,320.3918488000054,320.3918488000054,320.3918488000054,320.3918488000054,320.3918488000054,320.3918488000054,320.3918488000054,320.3918488000054,320.7582543999888,320.7582543999888,320.7582543999888,320.7582543999888,320.7582543999888,320.7582543999888,320.7582543999888,320.7582543999888,320.7582543999888,9,4,"[0.001056100009009242, 0.13376989983953536, 0.1840849998407066, 0.26743380003608763]","[0.11717300000600517, 0.1672344000544399, 0.2505465999711305, 0.28393190004862845]",320.7582543999888,320.9629297000356,1000,320.9629297000356,1000,1000,1000,1000,0,num_3,0.7674715002067387,,32,12,2026-03-12_16h16.19.032,2026A_exp2,2022.2.4,59.95052880984449,
0,0,0.0,0.0,1,0,82,82,2,,,,,321.7591432998888,322.40991239994764,322.40991239994764,322.91093659983017,315,315,322.91093659983017,322.91093659983017,322.91093659983017,322.91093659983017,322.91093659983017,322.91093659983017,322.91093659983017,322.91093659983017,322.91093659983017,323.27740260004066,323.27740260004066,323.27740260004066,323.27740260004066,323.27740260004066,323.27740260004066,323.27740260004066,323.27740260004066,323.27740260004066,23,0,,,323.27740260004066,323.47772379987873,0.0,323.47772379987873,0,0.0,0,1,1000,num_1,0.7404646002687514,,32,12,2026-03-12_16h16.19.032,2026A_exp2,2022.2.4,59.95052880984449,
1,0,0.0,6.1,1,0,83,83,31,,,,,324.2460769000463,324.89573369990103,324.89573369990103,325.39688579994254,315,45,325.39688579994254,325.39688579994254,325.39688579994254,325.39688579994254,325.39688579994254,325.39688579994254,325.39688579994254,325.39688579994254,325.39688579994254,325.7632205998525,325.7632205998525,325.7632205998525,325.7632205998525,325.7632205998525,325.7632205998525,325.7632205998525,325.7632205998525,325.7632205998525,23,0,,,325.7632205998525,325.9635187999811,6.1,325.9635187999811,1,6.1,1,1,1000,num_4,0.5738202000502497,,32,12,2026-03-12_16h16.19.032,2026A_exp2,2022.2.4,59.95052880984449,
1000,1,0.0,0.0,1,0,84,84,9,,,,,326.56401289999485,327.2147184999194,327.2147184999194,327.6990412999876,315,45,327.6990412999876,327.6990412999876,327.6990412999876,327.6990412999876,327.6990412999876,327.6990412999876,327.6990412999876,327.6990412999876,327.6990412999876,328.06552149984054,328.06552149984054,328.06552149984054,328.06552149984054,328.06552149984054,328.06552149984054,328.06552149984054,328.06552149984054,328.06552149984054,23,0,,,328.06552149984054,328.26555579993874,1000,328.26555579993874,1000,1000,1000,1000,0,num_3,0.6156307002529502,,32,12,2026-03-12_16h16.19.032,2026A_exp2,2022.2.4,59.95052880984449,
1000,1,6.1,0.0,1,0,85,85,57,,,,,328.8996751999948,329.5503847999498,329.5503847999498,330.051521099871,45,45,330.051521099871,330.051521099871,330.051521099871,330.051521099871,330.051521099871,330.051521099871,330.051521099871,330.051521099871,330.051521099871,330.41783199994825,330.41783199994825,330.41783199994825,330.41783199994825,330.41783199994825,330.41783199994825,330.41783199994825,330.41783199994825,330.41783199994825,23,0,,,330.41783199994825,330.61984449997544,1000,330.61984449997544,1000,1000,1000,1000,0,num_3,0.37447290029376745,,32,12,2026-03-12_16h16.19.032,2026A_exp2,2022.2.4,59.95052880984449,
1000,1,0.0,0.0,0,0,86,86,17,,,,,331.01861159992404,331.66918049985543,331.66918049985543,332.17021719994955,45,315,332.17021719994955,332.17021719994955,332.17021719994955,332.17021719994955,332.17021719994955,332.17021719994955,332.17021719994955,332.17021719994955,332.17021719994955,332.53663909994066,332.53663909994066,332.53663909994066,332.53663909994066,332.53663909994066,332.53663909994066,332.53663909994066,332.53663909994066,332.53663909994066,23,0,,,332.53663909994066,332.73855430004187,1000,332.73855430004187,1000,1000,1000,1000,0,num_3,0.3989325000438839,,32,12,2026-03-12_16h16.19.032,2026A_exp2,2022.2.4,59.95052880984449,
1,0,6.1,0.0,0,0,87,87,47,,,,,333.15401319996454,333.8046589998994,333.8046589998994,334.30579669983126,45,45,334.30579669983126,334.30579669983126,334.30579669983126,334.30579669983126,334.30579669983126,334.30579669983126,334.30579669983126,334.30579669983126,334.30579669983126,334.67184199998155,334.67184199998155,334.67184199998155,334.67184199998155,334.67184199998155,334.67184199998155,334.67184199998155,334.67184199998155,334.67184199998155,2,1,[0.03367869998328388],[0.3667620001360774],334.67184199998155,334.8858695998788,6.1,334.8858695998788,1,6.1,1,1,1000,num_4,0.6764750999864191,,32,12,2026-03-12_16h16.19.032,2026A_exp2,2022.2.4,59.95052880984449,
1,0,6.1,0.0,0,0,88,88,82,,,,,335.59111939999275,336.2404237999581,336.2404237999581,336.7411090999376,45,45,336.7411090999376,336.7411090999376,336.7411090999376,336.7411090999376,336.7411090999376,336.7411090999376,336.7411090999376,336.7411090999376,336.7411090999376,337.10797659982927,337.10797659982927,337.10797659982927,337.10797659982927,337.10797659982927,337.10797659982927,337.10797659982927,337.10797659982927,337.10797659982927,7,7,"[0.01693680020980537, 0.06687010009773076, 0.1666713000740856, 0.21708150021731853, 0.2669852999970317, 0.3004438001662493, 0.36705380002968013]","[0.04962619999423623, 0.14992410014383495, 0.20043620001524687, 0.2503419001586735, 0.2837875001132488, 0.35047420021146536, 0.3670582000631839]",337.10797659982927,337.3081517999526,6.1,337.3081517999526,1,6.1,1,1,1000,num_4,0.7903151002246886,,32,12,2026-03-12_16h16.19.032,2026A_exp2,2022.2.4,59.95052880984449,
1,0,0.0,3.7,1,0,89,89,35,,,,,338.125643099891,338.7595259998925,338.7595259998925,339.26060839998536,315,45,339.26060839998536,339.26060839998536,339.26060839998536,339.26060839998536,339.26060839998536,339.26060839998536,339.26060839998536,339.26060839998536,339.26060839998536,339.6271385999862,339.6271385999862,339.6271385999862,339.6271385999862,339.6271385999862,339.6271385999862,339.6271385999862,339.6271385999862,339.6271385999862,17,6,"[0.017609699862077832, 0.0668533998541534, 0.10043099988251925, 0.2170557000208646, 0.2671966999769211, 0.3504794000182301]","[0.03338979999534786, 0.08366689993999898, 0.11689319997094572, 0.23378529981710017, 0.28384799999184906, 0.3670447999611497]",339.6271385999862,339.82731970003806,3.7,339.82731970003806,1,3.7,1,1,1000,num_4,1.198847700143233,,32,12,2026-03-12_16h16.19.032,2026A_exp2,2022.2.4,59.95052880984449,
,,,,,,,,,,,,,,,,,,,,,,,,,,,,,,,,,,,,,,,,,,,,,,,,,,,,341.0543345999904,,,,,,,
