validity,detectorcomp,contrastCW,contrastCCW,precueCWorCCW,block_80trials.thisRepN,block_80trials.thisTrialN,block_80trials.thisN,block_80trials.thisIndex,etRecord.started,etRecord.stopped,text.started,text.stopped,text_4.started,text_4.stopped,text_6.started,text_6.stopped,oriCW,oriCCW,roi_2.started,grating_UR.started,grating_UL.started,grating_LR.started,grating_LL.started,noise_UR.started,noise_UL.started,noise_LR.started,noise_LL.started,roi_2.stopped,grating_UR.stopped,grating_UL.stopped,grating_LR.stopped,grating_LL.stopped,noise_UR.stopped,noise_UL.stopped,noise_LR.stopped,noise_LL.stopped,outframe,roi_2.numLooks,roi_2.timesOn,roi_2.timesOff,text_2.started,text_2.stopped,probedcontrast,key_resp.started,respdetect,relevantContrast,correctDetect,TorFdetect,respCWorCCW,key_resp.keys,key_resp.rt,feedback_display_.started,participantNo,blockNo,date,expName,psychopyVersion,frameRate,
1000,1,0.0,0.0,1,0,0,0,42,3.9099977584555745e-05,3.9099977584555745e-05,58.22077759998501,60.22403049998684,60.22403049998684,60.857933099992806,60.857933099992806,61.37943189998623,315,315,61.37943189998623,61.37943189998623,61.37943189998623,61.37943189998623,61.37943189998623,61.37943189998623,61.37943189998623,61.37943189998623,61.37943189998623,61.725831299991114,61.725831299991114,61.725831299991114,61.725831299991114,61.725831299991114,61.725831299991114,61.725831299991114,61.725831299991114,61.725831299991114,0,1,[0.0008598999993409961],[0.3654250999970827],61.725831299991114,61.92664269998204,1000,61.92664269998204,1000,1000,1000,1000,1,num_2,1.133845799980918,,21,8,2026-03-02_17h56.34.891,2026A_exp2,2022.2.4,59.97925917833409,
1000,1,3.7,3.7,0,0,1,1,16,,,,,63.076654299977235,63.727218199986964,63.727218199986964,64.22865679999813,45,315,64.22865679999813,64.22865679999813,64.22865679999813,64.22865679999813,64.22865679999813,64.22865679999813,64.22865679999813,64.22865679999813,64.22865679999813,64.57820180000272,64.57820180000272,64.57820180000272,64.57820180000272,64.57820180000272,64.57820180000272,64.57820180000272,64.57820180000272,64.57820180000272,0,1,[0.0009113999840337783],[0.35107519998564385],64.57820180000272,64.77821039999253,1000,64.79484689998208,1000,1000,1000,1000,0,num_3,1.5213277000293601,,21,8,2026-03-02_17h56.34.891,2026A_exp2,2022.2.4,59.97925917833409,
1000,1,0.0,6.1,0,0,2,2,83,,,,,66.346759499982,66.99717989997589,66.99717989997589,67.48157799997716,45,45,67.48157799997716,67.48157799997716,67.48157799997716,67.48157799997716,67.48157799997716,67.48157799997716,67.48157799997716,67.48157799997716,67.48157799997716,67.84796949999873,67.84796949999873,67.84796949999873,67.84796949999873,67.84796949999873,67.84796949999873,67.84796949999873,67.84796949999873,67.84796949999873,0,1,[0.0007256999961100519],[0.36744329999783076],67.84796949999873,68.04831389998435,1000,68.04831389998435,1000,1000,1000,1000,1,num_2,0.5081550999893807,,21,8,2026-03-02_17h56.34.891,2026A_exp2,2022.2.4,59.97925917833409,
1000,1,3.7,0.0,1,0,3,3,21,,,,,68.5822808999801,69.23271029998432,69.23271029998432,69.71704599997611,315,45,69.71704599997611,69.71704599997611,69.71704599997611,69.71704599997611,69.71704599997611,69.71704599997611,69.71704599997611,69.71704599997611,69.71704599997611,70.08359359999304,70.08359359999304,70.08359359999304,70.08359359999304,70.08359359999304,70.08359359999304,70.08359359999304,70.08359359999304,70.08359359999304,0,1,[0.0007249999907799065],[0.3674694999936037],70.08359359999304,70.28375780000351,1000,70.28375780000351,1000,1000,1000,1000,0,num_3,0.5444028000056278,,21,8,2026-03-02_17h56.34.891,2026A_exp2,2022.2.4,59.97925917833409,
1000,1,4.9,4.9,0,0,4,4,34,,,,,70.85131939998246,71.50178609997965,71.50178609997965,72.00282689998858,315,45,72.00282689998858,72.00282689998858,72.00282689998858,72.00282689998858,72.00282689998858,72.00282689998858,72.00282689998858,72.00282689998858,72.00282689998858,72.36905660000048,72.36905660000048,72.36905660000048,72.36905660000048,72.36905660000048,72.36905660000048,72.36905660000048,72.36905660000048,72.36905660000048,0,1,[0.0007322000165004283],[0.36744160001398996],72.36905660000048,72.56959159998223,1000,72.56959159998223,1000,1000,1000,1000,0,num_3,0.5474250999977812,,21,8,2026-03-02_17h56.34.891,2026A_exp2,2022.2.4,59.97925917833409,
0,0,3.7,3.7,0,0,5,5,63,,,,,73.13654819998192,73.78714030000265,73.78714030000265,74.27160710000317,315,315,74.27160710000317,74.27160710000317,74.27160710000317,74.27160710000317,74.27160710000317,74.27160710000317,74.27160710000317,74.27160710000317,74.27160710000317,74.63831409998238,74.63831409998238,74.63831409998238,74.63831409998238,74.63831409998238,74.63831409998238,74.63831409998238,74.63831409998238,74.63831409998238,0,1,[0.0007903999940026551],[0.3684951000032015],74.63831409998238,74.83817799997632,3.7,74.83817799997632,1,3.7,1,1,1000,num_4,3.8305179000017233,,21,8,2026-03-02_17h56.34.891,2026A_exp2,2022.2.4,59.97925917833409,
1000,1,0.0,0.0,1,0,6,6,70,,,,,78.69243119997554,79.32620709997718,79.32620709997718,79.82774159999099,45,45,79.82774159999099,79.82774159999099,79.82774159999099,79.82774159999099,79.82774159999099,79.82774159999099,79.82774159999099,79.82774159999099,79.82774159999099,80.19383629999356,80.19383629999356,80.19383629999356,80.19383629999356,80.19383629999356,80.19383629999356,80.19383629999356,80.19383629999356,80.19383629999356,0,1,[0.0007956000044941902],[0.3666222000028938],80.19383629999356,80.39409549999982,1000,80.39409549999982,1000,1000,1000,1000,0,num_3,0.9387489999935497,,21,8,2026-03-02_17h56.34.891,2026A_exp2,2022.2.4,59.97925917833409,
1000,1,3.7,0.0,0,0,7,7,37,,,,,81.36168039997574,82.0121321999759,82.0121321999759,82.49675429999479,45,45,82.49675429999479,82.49675429999479,82.49675429999479,82.49675429999479,82.49675429999479,82.49675429999479,82.49675429999479,82.49675429999479,82.49675429999479,82.86315339998691,82.86315339998691,82.86315339998691,82.86315339998691,82.86315339998691,82.86315339998691,82.86315339998691,82.86315339998691,82.86315339998691,0,1,[0.0008083000138867646],[0.3669903000118211],82.86315339998691,83.06348499999149,1000,83.06348499999149,1000,1000,1000,1000,0,num_3,0.6294884999806527,,21,8,2026-03-02_17h56.34.891,2026A_exp2,2022.2.4,59.97925917833409,
1000,1,3.7,0.0,1,0,8,8,33,,,,,83.7142135000031,84.36470169998938,84.36470169998938,84.86575810000068,45,315,84.86575810000068,84.86575810000068,84.86575810000068,84.86575810000068,84.86575810000068,84.86575810000068,84.86575810000068,84.86575810000068,84.86575810000068,85.23200139999972,85.23200139999972,85.23200139999972,85.23200139999972,85.23200139999972,85.23200139999972,85.23200139999972,85.23200139999972,85.23200139999972,0,1,[0.0008886999858077615],[0.3673150000104215],85.23200139999972,85.43234420000226,1000,85.43234420000226,1000,1000,1000,1000,0,num_3,0.5237679000128992,,21,8,2026-03-02_17h56.34.891,2026A_exp2,2022.2.4,59.97925917833409,
1000,1,6.1,0.0,1,0,9,9,79,,,,,85.98294999997597,86.61813149999944,86.61813149999944,87.11911949998466,315,45,87.11911949998466,87.11911949998466,87.11911949998466,87.11911949998466,87.11911949998466,87.11911949998466,87.11911949998466,87.11911949998466,87.11911949998466,87.48437179997563,87.48437179997563,87.48437179997563,87.48437179997563,87.48437179997563,87.48437179997563,87.48437179997563,87.48437179997563,87.48437179997563,0,1,[0.000905099994270131],[0.3673109000083059],87.48437179997563,87.68460999999661,1000,87.68460999999661,1000,1000,1000,1000,0,num_3,0.5282622000086121,,21,8,2026-03-02_17h56.34.891,2026A_exp2,2022.2.4,59.97925917833409,
1,0,6.1,4.9,0,0,10,10,30,,,,,88.23547849999159,88.86909419999574,88.86909419999574,89.37067629999365,315,315,89.37067629999365,89.37067629999365,89.37067629999365,89.37067629999365,89.37067629999365,89.37067629999365,89.37067629999365,89.37067629999365,89.37067629999365,89.73656699998537,89.73656699998537,89.73656699998537,89.73656699998537,89.73656699998537,89.73656699998537,89.73656699998537,89.73656699998537,89.73656699998537,0,1,[0.000741399999242276],[0.36628630000632256],89.73656699998537,89.93680860000313,6.1,89.93680860000313,1,6.1,1,1,1000,num_4,0.8357916999957524,,21,8,2026-03-02_17h56.34.891,2026A_exp2,2022.2.4,59.97925917833409,
1000,1,6.1,6.1,0,0,11,11,56,,,,,90.80465529998764,91.45478599998751,91.45478599998751,91.95664879999822,315,45,91.95664879999822,91.95664879999822,91.95664879999822,91.95664879999822,91.95664879999822,91.95664879999822,91.95664879999822,91.95664879999822,91.95664879999822,92.30579529999522,92.30579529999522,92.30579529999522,92.30579529999522,92.30579529999522,92.30579529999522,92.30579529999522,92.30579529999522,92.30579529999522,22,0,,,92.30579529999522,92.50609509999049,1000,92.50609509999049,1000,1000,1000,1000,0,num_3,0.7861224000225775,,21,8,2026-03-02_17h56.34.891,2026A_exp2,2022.2.4,59.97925917833409,
1000,1,6.1,0.0,0,0,12,12,8,,,,,93.32389790000161,93.97444399999222,93.97444399999222,94.45880259998376,315,315,94.45880259998376,94.45880259998376,94.45880259998376,94.45880259998376,94.45880259998376,94.45880259998376,94.45880259998376,94.45880259998376,94.45880259998376,94.82523769998807,94.82523769998807,94.82523769998807,94.82523769998807,94.82523769998807,94.82523769998807,94.82523769998807,94.82523769998807,94.82523769998807,23,0,,,94.82523769998807,95.02728310000384,1000,95.02728310000384,1000,1000,1000,1000,0,num_3,0.5061191000277176,,21,8,2026-03-02_17h56.34.891,2026A_exp2,2022.2.4,59.97925917833409,
1000,1,0.0,4.9,1,0,13,13,73,,,,,95.55936519999523,96.21010369999567,96.21010369999567,96.71107150000171,315,315,96.71107150000171,96.71107150000171,96.71107150000171,96.71107150000171,96.71107150000171,96.71107150000171,96.71107150000171,96.71107150000171,96.71107150000171,97.06085799998255,97.06085799998255,97.06085799998255,97.06085799998255,97.06085799998255,97.06085799998255,97.06085799998255,97.06085799998255,97.06085799998255,20,2,"[0.06691910000517964, 0.35042560001602396]","[0.08360240000183694, 0.35042990001966245]",97.06085799998255,97.26301169997896,1000,97.26301169997896,1000,1000,1000,1000,1,num_2,0.5743397999904118,,21,8,2026-03-02_17h56.34.891,2026A_exp2,2022.2.4,59.97925917833409,
1000,1,0.0,4.9,0,0,14,14,9,,,,,97.86152399997809,98.51234939999995,98.51234939999995,99.01327639998635,315,315,99.01327639998635,99.01327639998635,99.01327639998635,99.01327639998635,99.01327639998635,99.01327639998635,99.01327639998635,99.01327639998635,99.01327639998635,99.37983049999457,99.37983049999457,99.37983049999457,99.37983049999457,99.37983049999457,99.37983049999457,99.37983049999457,99.37983049999457,99.37983049999457,22,1,[0.1499891999992542],[0.16666149999946356],99.37983049999457,99.58193179999944,1000,99.58193179999944,1000,1000,1000,1000,1,num_2,0.44729260000167415,,21,8,2026-03-02_17h56.34.891,2026A_exp2,2022.2.4,59.97925917833409,
1,0,0.0,0.0,0,0,15,15,19,,,,,100.04711569999927,100.69775490000029,100.69775490000029,101.19896549999248,315,315,101.19896549999248,101.19896549999248,101.19896549999248,101.19896549999248,101.19896549999248,101.19896549999248,101.19896549999248,101.19896549999248,101.19896549999248,101.56526119998307,101.56526119998307,101.56526119998307,101.56526119998307,101.56526119998307,101.56526119998307,101.56526119998307,101.56526119998307,101.56526119998307,15,2,"[0.03374220000114292, 0.15063220000592992]","[0.06723799998871982, 0.25115179998101667]",101.56526119998307,101.76557899999898,0.0,101.76557899999898,0,0.0,0,1,1000,num_1,0.7914644999837037,,21,8,2026-03-02_17h56.34.891,2026A_exp2,2022.2.4,59.97925917833409,
1,0,0.0,6.1,0,0,16,16,57,,,,,102.58298899998772,103.23360700000194,103.23360700000194,103.71819909999613,315,45,103.71819909999613,103.71819909999613,103.71819909999613,103.71819909999613,103.71819909999613,103.71819909999613,103.71819909999613,103.71819909999613,103.71819909999613,104.08451679997961,104.08451679997961,104.08451679997961,104.08451679997961,104.08451679997961,104.08451679997961,104.08451679997961,104.08451679997961,104.08451679997961,10,3,"[0.11680989997694269, 0.16704019997268915, 0.19997549999970943]","[0.15017529999022372, 0.1836139999795705, 0.36719069999526255]",104.08451679997961,104.28478950000135,0.0,104.28478950000135,0,0.0,0,1,1000,num_1,0.6159971999877598,,21,8,2026-03-02_17h56.34.891,2026A_exp2,2022.2.4,59.97925917833409,
1000,1,0.0,6.1,1,0,17,17,3,,,,,104.91851019999012,105.56944409999414,105.56944409999414,106.05383950000396,45,315,106.05383950000396,106.05383950000396,106.05383950000396,106.05383950000396,106.05383950000396,106.05383950000396,106.05383950000396,106.05383950000396,106.05383950000396,106.41989709998597,106.41989709998597,106.41989709998597,106.41989709998597,106.41989709998597,106.41989709998597,106.41989709998597,106.41989709998597,106.41989709998597,23,0,,,106.41989709998597,106.62212980000186,1000,106.62212980000186,1000,1000,1000,1000,1,num_2,0.5180378000077326,,21,8,2026-03-02_17h56.34.891,2026A_exp2,2022.2.4,59.97925917833409,
1,0,0.0,0.0,0,0,18,18,66,,,,,107.17078069999116,107.82140369998524,107.82140369998524,108.30615399999078,315,315,108.30615399999078,108.30615399999078,108.30615399999078,108.30615399999078,108.30615399999078,108.30615399999078,108.30615399999078,108.30615399999078,108.30615399999078,108.6721357999777,108.6721357999777,108.6721357999777,108.6721357999777,108.6721357999777,108.6721357999777,108.6721357999777,108.6721357999777,108.6721357999777,23,0,,,108.6721357999777,108.87231509998674,0.0,108.87231509998674,0,0.0,0,1,1000,num_1,0.8044054000056349,,21,8,2026-03-02_17h56.34.891,2026A_exp2,2022.2.4,59.97925917833409,
1000,1,3.7,3.7,1,0,19,19,88,,,,,109.70648179997806,110.34052849997533,110.34052849997533,110.84162490000017,45,45,110.84162490000017,110.84162490000017,110.84162490000017,110.84162490000017,110.84162490000017,110.84162490000017,110.84162490000017,110.84162490000017,110.84162490000017,111.20793929998763,111.20793929998763,111.20793929998763,111.20793929998763,111.20793929998763,111.20793929998763,111.20793929998763,111.20793929998763,111.20793929998763,23,0,,,111.20793929998763,111.40854709999985,1000,111.40854709999985,1000,1000,1000,1000,0,num_3,0.5802962000016123,,21,8,2026-03-02_17h56.34.891,2026A_exp2,2022.2.4,59.97925917833409,
1000,1,3.7,3.7,1,0,20,20,46,,,,,112.00889609998558,112.65954699998838,112.65954699998838,113.1440270000021,45,315,113.1440270000021,113.1440270000021,113.1440270000021,113.1440270000021,113.1440270000021,113.1440270000021,113.1440270000021,113.1440270000021,113.1440270000021,113.51029320000089,113.51029320000089,113.51029320000089,113.51029320000089,113.51029320000089,113.51029320000089,113.51029320000089,113.51029320000089,113.51029320000089,23,0,,,113.51029320000089,113.71069439998246,1000,113.71069439998246,1000,1000,1000,1000,1,num_2,1.829653299995698,,21,8,2026-03-02_17h56.34.891,2026A_exp2,2022.2.4,59.97925917833409,
1,0,4.9,0.0,1,0,21,21,15,,,,,115.56263539998326,116.19666739998502,116.19666739998502,116.69784829998389,45,45,116.69784829998389,116.69784829998389,116.69784829998389,116.69784829998389,116.69784829998389,116.69784829998389,116.69784829998389,116.69784829998389,116.69784829998389,117.06425299998955,117.06425299998955,117.06425299998955,117.06425299998955,117.06425299998955,117.06425299998955,117.06425299998955,117.06425299998955,117.06425299998955,23,0,,,117.06425299998955,117.26454129998456,0.0,117.26454129998456,0,0.0,0,1,1000,num_1,0.9239953999931458,,21,8,2026-03-02_17h56.34.891,2026A_exp2,2022.2.4,59.97925917833409,
1,0,4.9,0.0,1,0,22,22,48,,,,,118.21536449997802,118.84927169998991,118.84927169998991,119.350504299975,45,45,119.350504299975,119.350504299975,119.350504299975,119.350504299975,119.350504299975,119.350504299975,119.350504299975,119.350504299975,119.350504299975,119.71669689999544,119.71669689999544,119.71669689999544,119.71669689999544,119.71669689999544,119.71669689999544,119.71669689999544,119.71669689999544,119.71669689999544,23,0,,,119.71669689999544,119.91709319999791,0.0,119.91709319999791,0,0.0,0,1,1000,num_1,0.6078998000011779,,21,8,2026-03-02_17h56.34.891,2026A_exp2,2022.2.4,59.97925917833409,
1,0,6.1,0.0,0,0,23,23,24,,,,,120.55092879998847,121.18506960000377,121.18506960000377,121.68620549998013,315,45,121.68620549998013,121.68620549998013,121.68620549998013,121.68620549998013,121.68620549998013,121.68620549998013,121.68620549998013,121.68620549998013,121.68620549998013,122.05241099998238,122.05241099998238,122.05241099998238,122.05241099998238,122.05241099998238,122.05241099998238,122.05241099998238,122.05241099998238,122.05241099998238,5,2,"[0.06716269999742508, 0.35059580000233836]","[0.3340946999960579, 0.3675304999924265]",122.05241099998238,122.25276429997757,6.1,122.25276429997757,1,6.1,1,1,1000,num_4,0.4480638000241015,,21,8,2026-03-02_17h56.34.891,2026A_exp2,2022.2.4,59.97925917833409,
1,0,0.0,3.7,1,0,24,24,12,,,,,122.71990149997873,123.37054740000167,123.37054740000167,123.87186079999083,45,45,123.87186079999083,123.87186079999083,123.87186079999083,123.87186079999083,123.87186079999083,123.87186079999083,123.87186079999083,123.87186079999083,123.87186079999083,124.22127449998516,124.22127449998516,124.22127449998516,124.22127449998516,124.22127449998516,124.22127449998516,124.22127449998516,124.22127449998516,124.22127449998516,22,0,,,124.22127449998516,124.42160079997848,3.7,124.42160079997848,0,3.7,1,0,1000,num_1,0.6952968999976292,,21,8,2026-03-02_17h56.34.891,2026A_exp2,2022.2.4,59.97925917833409,
1,0,4.9,0.0,0,0,25,25,23,,,,,125.13883929999429,125.78962209998281,125.78962209998281,126.2738995999971,45,45,126.2738995999971,126.2738995999971,126.2738995999971,126.2738995999971,126.2738995999971,126.2738995999971,126.2738995999971,126.2738995999971,126.2738995999971,126.6416241999832,126.6416241999832,126.6416241999832,126.6416241999832,126.6416241999832,126.6416241999832,126.6416241999832,126.6416241999832,126.6416241999832,4,3,"[0.01716020001913421, 0.10025580000365153, 0.23322330001974478]","[0.08371460001217201, 0.2168532000214327, 0.36896770002203993]",126.6416241999832,126.85698309997679,4.9,126.85698309997679,1,4.9,1,1,1000,num_4,0.3877991000190377,,21,8,2026-03-02_17h56.34.891,2026A_exp2,2022.2.4,59.97925917833409,
1000,1,3.7,6.1,0,0,26,26,81,,,,,127.27406409999821,127.90792319999309,127.90792319999309,128.40900449999026,45,45,128.40900449999026,128.40900449999026,128.40900449999026,128.40900449999026,128.40900449999026,128.40900449999026,128.40900449999026,128.40900449999026,128.40900449999026,128.77545409998856,128.77545409998856,128.77545409998856,128.77545409998856,128.77545409998856,128.77545409998856,128.77545409998856,128.77545409998856,128.77545409998856,3,1,[0.05029280000599101],[0.3675197999982629],128.77545409998856,128.97603879999951,1000,128.97603879999951,1000,1000,1000,1000,1,num_2,0.6685439999855589,,21,8,2026-03-02_17h56.34.891,2026A_exp2,2022.2.4,59.97925917833409,
1000,1,4.9,0.0,1,0,27,27,28,,,,,129.6764893999789,130.32694939998328,130.32694939998328,130.8118506000028,45,315,130.8118506000028,130.8118506000028,130.8118506000028,130.8118506000028,130.8118506000028,130.8118506000028,130.8118506000028,130.8118506000028,130.8118506000028,131.17795679997653,131.17795679997653,131.17795679997653,131.17795679997653,131.17795679997653,131.17795679997653,131.17795679997653,131.17795679997653,131.17795679997653,23,0,,,131.17795679997653,131.37859659999958,1000,131.37859659999958,1000,1000,1000,1000,0,num_3,0.5542697999917436,,21,8,2026-03-02_17h56.34.891,2026A_exp2,2022.2.4,59.97925917833409,
1000,1,0.0,0.0,1,0,28,28,39,,,,,131.96214489999693,132.59656710000127,132.59656710000127,133.09740549998241,315,45,133.09740549998241,133.09740549998241,133.09740549998241,133.09740549998241,133.09740549998241,133.09740549998241,133.09740549998241,133.09740549998241,133.09740549998241,133.4641805999854,133.4641805999854,133.4641805999854,133.4641805999854,133.4641805999854,133.4641805999854,133.4641805999854,133.4641805999854,133.4641805999854,23,0,,,133.4641805999854,133.66450289997738,1000,133.66450289997738,1000,1000,1000,1000,1,num_2,1.099956000020029,,21,8,2026-03-02_17h56.34.891,2026A_exp2,2022.2.4,59.97925917833409,
1,0,3.7,4.9,0,0,29,29,84,,,,,134.781860099989,135.43272719997913,135.43272719997913,135.91718570000376,315,315,135.91718570000376,135.91718570000376,135.91718570000376,135.91718570000376,135.91718570000376,135.91718570000376,135.91718570000376,135.91718570000376,135.91718570000376,136.2831751999911,136.2831751999911,136.2831751999911,136.2831751999911,136.2831751999911,136.2831751999911,136.2831751999911,136.2831751999911,136.2831751999911,23,0,,,136.2831751999911,136.4836374000006,3.7,136.4836374000006,0,3.7,1,0,1000,num_1,1.2804865000071004,,21,8,2026-03-02_17h56.34.891,2026A_exp2,2022.2.4,59.97925917833409,
1,0,0.0,0.0,1,0,30,30,53,,,,,137.78500839998014,138.41860799997812,138.41860799997812,138.9199694999843,315,45,138.9199694999843,138.9199694999843,138.9199694999843,138.9199694999843,138.9199694999843,138.9199694999843,138.9199694999843,138.9199694999843,138.9199694999843,139.2863556999946,139.2863556999946,139.2863556999946,139.2863556999946,139.2863556999946,139.2863556999946,139.2863556999946,139.2863556999946,139.2863556999946,23,0,,,139.2863556999946,139.48673309999867,0.0,139.48673309999867,0,0.0,0,1,1000,num_1,0.4616563000017777,,21,8,2026-03-02_17h56.34.891,2026A_exp2,2022.2.4,59.97925917833409,
1000,1,3.7,4.9,0,0,31,31,13,,,,,139.97032389999367,140.60431699999026,140.60431699999026,141.10543219998362,315,45,141.10543219998362,141.10543219998362,141.10543219998362,141.10543219998362,141.10543219998362,141.10543219998362,141.10543219998362,141.10543219998362,141.10543219998362,141.4717139999848,141.4717139999848,141.4717139999848,141.4717139999848,141.4717139999848,141.4717139999848,141.4717139999848,141.4717139999848,141.4717139999848,23,0,,,141.4717139999848,141.67214939999394,1000,141.67214939999394,1000,1000,1000,1000,1,num_2,0.9086603999894578,,21,8,2026-03-02_17h56.34.891,2026A_exp2,2022.2.4,59.97925917833409,
1,0,0.0,3.7,0,0,32,32,22,,,,,142.60631750000175,143.24021979997633,143.24021979997633,143.74108829998295,315,45,143.74108829998295,143.74108829998295,143.74108829998295,143.74108829998295,143.74108829998295,143.74108829998295,143.74108829998295,143.74108829998295,143.74108829998295,144.10829009997542,144.10829009997542,144.10829009997542,144.10829009997542,144.10829009997542,144.10829009997542,144.10829009997542,144.10829009997542,144.10829009997542,9,5,"[0.0008088999893516302, 0.08383259997935966, 0.13383509998675436, 0.20056369999656454, 0.3008311000012327]","[0.05029399998602457, 0.1006342000036966, 0.1837766999960877, 0.2839370000001509, 0.33441949999541976]",144.10829009997542,144.30778049997753,0.0,144.30778049997753,0,0.0,0,1,1000,num_1,0.6246541000145953,,21,8,2026-03-02_17h56.34.891,2026A_exp2,2022.2.4,59.97925917833409,
1,0,0.0,0.0,0,0,33,33,49,,,,,144.95855959999608,145.59252849998302,145.59252849998302,146.09374529999332,45,45,146.09374529999332,146.09374529999332,146.09374529999332,146.09374529999332,146.09374529999332,146.09374529999332,146.09374529999332,146.09374529999332,146.09374529999332,146.46002949998365,146.46002949998365,146.46002949998365,146.46002949998365,146.46002949998365,146.46002949998365,146.46002949998365,146.46002949998365,146.46002949998365,23,0,,,146.46002949998365,146.66031369997654,0.0,146.66031369997654,0,0.0,0,1,1000,num_1,0.5047123999975156,,21,8,2026-03-02_17h56.34.891,2026A_exp2,2022.2.4,59.97925917833409,
1,0,3.7,0.0,1,0,34,34,59,,,,,147.19408039998962,147.8281567999802,147.8281567999802,148.32925519999117,315,315,148.32925519999117,148.32925519999117,148.32925519999117,148.32925519999117,148.32925519999117,148.32925519999117,148.32925519999117,148.32925519999117,148.32925519999117,148.69542340000044,148.69542340000044,148.69542340000044,148.69542340000044,148.69542340000044,148.69542340000044,148.69542340000044,148.69542340000044,148.69542340000044,23,0,,,148.69542340000044,148.89594190000207,0.0,148.89594190000207,0,0.0,0,1,1000,num_1,1.2526436999905854,,21,8,2026-03-02_17h56.34.891,2026A_exp2,2022.2.4,59.97925917833409,
1000,1,6.1,4.9,0,0,35,35,77,,,,,150.18055769999046,150.8146102000028,150.8146102000028,151.31568709999556,315,45,151.31568709999556,151.31568709999556,151.31568709999556,151.31568709999556,151.31568709999556,151.31568709999556,151.31568709999556,151.31568709999556,151.31568709999556,151.6819506000029,151.6819506000029,151.6819506000029,151.6819506000029,151.6819506000029,151.6819506000029,151.6819506000029,151.6819506000029,151.6819506000029,23,0,,,151.6819506000029,151.88253599999007,1000,151.88253599999007,1000,1000,1000,1000,0,num_3,0.6737174000008963,,21,8,2026-03-02_17h56.34.891,2026A_exp2,2022.2.4,59.97925917833409,
1,0,0.0,4.9,1,0,36,36,36,,,,,152.5830655999889,153.233625199995,153.233625199995,153.71841819997644,315,45,153.71841819997644,153.71841819997644,153.71841819997644,153.71841819997644,153.71841819997644,153.71841819997644,153.71841819997644,153.71841819997644,153.71841819997644,154.0843289999757,154.0843289999757,154.0843289999757,154.0843289999757,154.0843289999757,154.0843289999757,154.0843289999757,154.0843289999757,154.0843289999757,23,0,,,154.0843289999757,154.2845859999943,4.9,154.2845859999943,1,4.9,1,1,1000,num_4,1.1197520999994595,,21,8,2026-03-02_17h56.34.891,2026A_exp2,2022.2.4,59.97925917833409,
1,0,3.7,6.1,0,0,37,37,55,,,,,155.4356684999948,156.069938599976,156.069938599976,156.57075809998787,315,45,156.57075809998787,156.57075809998787,156.57075809998787,156.57075809998787,156.57075809998787,156.57075809998787,156.57075809998787,156.57075809998787,156.57075809998787,156.93713360000402,156.93713360000402,156.93713360000402,156.93713360000402,156.93713360000402,156.93713360000402,156.93713360000402,156.93713360000402,156.93713360000402,0,1,[0.0007532000017818063],[0.36745600000722334],156.93713360000402,157.13729099999182,3.7,157.13729099999182,1,3.7,1,1,1000,num_4,0.7154797000112012,,21,8,2026-03-02_17h56.34.891,2026A_exp2,2022.2.4,59.97925917833409,
0,0,3.7,6.1,1,0,38,38,17,,,,,157.87156649999088,158.50553059999947,158.50553059999947,159.0064352999907,45,315,159.0064352999907,159.0064352999907,159.0064352999907,159.0064352999907,159.0064352999907,159.0064352999907,159.0064352999907,159.0064352999907,159.0064352999907,159.3729284000001,159.3729284000001,159.3729284000001,159.3729284000001,159.3729284000001,159.3729284000001,159.3729284000001,159.3729284000001,159.3729284000001,6,5,"[0.017370700021274388, 0.06721390000893734, 0.18398110000998713, 0.3006932999996934, 0.3506846000091173]","[0.05078240000875667, 0.1672940000134986, 0.28396020000218414, 0.33412500002305023, 0.3674860000028275]",159.3729284000001,159.57314979998046,3.7,159.57314979998046,0,3.7,1,0,1000,num_1,1.087298099999316,,21,8,2026-03-02_17h56.34.891,2026A_exp2,2022.2.4,59.97925917833409,
1000,1,0.0,0.0,0,0,39,39,41,,,,,160.6910261999874,161.32485639999504,161.32485639999504,161.82595979998587,45,45,161.82595979998587,161.82595979998587,161.82595979998587,161.82595979998587,161.82595979998587,161.82595979998587,161.82595979998587,161.82595979998587,161.82595979998587,162.19248789999983,162.19248789999983,162.19248789999983,162.19248789999983,162.19248789999983,162.19248789999983,162.19248789999983,162.19248789999983,162.19248789999983,9,10,"[0.0007909999985713512, 0.06716090001282282, 0.10084400000050664, 0.13381450000451878, 0.16708149999612942, 0.2003258999902755, 0.23373219999484718, 0.26720150001347065, 0.33423979999497533, 0.3672573000076227]","[0.050159000005805865, 0.08384890001616441, 0.11728490001405589, 0.1503460000094492, 0.18361790000926703, 0.21726720000151545, 0.25039669999387115, 0.300615399988601, 0.35104820001288317, 0.36726009999983944]",162.19248789999983,162.39274979999755,1000,162.39274979999755,1000,1000,1000,1000,0,num_3,0.9794976999983191,,21,8,2026-03-02_17h56.34.891,2026A_exp2,2022.2.4,59.97925917833409,
1000,1,4.9,4.9,1,0,40,40,26,,,,,163.39384740000241,164.04436679999344,164.04436679999344,164.52879640000174,45,45,164.52879640000174,164.52879640000174,164.52879640000174,164.52879640000174,164.52879640000174,164.52879640000174,164.52879640000174,164.52879640000174,164.52879640000174,164.89527809998253,164.89527809998253,164.89527809998253,164.89527809998253,164.89527809998253,164.89527809998253,164.89527809998253,164.89527809998253,164.89527809998253,11,5,"[0.0007783999899402261, 0.05016669997712597, 0.15020559998811223, 0.25057409997680224, 0.2838663999864366]","[0.017424699995899573, 0.1337640999990981, 0.16701720000128262, 0.26712139998562634, 0.33468199998605996]",164.89527809998253,165.09572439998738,1000,165.09572439998738,1000,1000,1000,1000,0,num_3,0.541287400003057,,21,8,2026-03-02_17h56.34.891,2026A_exp2,2022.2.4,59.97925917833409,
0,0,0.0,0.0,0,0,41,41,4,,,,,165.66264579998096,166.31318209998426,166.31318209998426,166.79749430000084,45,315,166.79749430000084,166.79749430000084,166.79749430000084,166.79749430000084,166.79749430000084,166.79749430000084,166.79749430000084,166.79749430000084,166.79749430000084,167.16393139999127,167.16393139999127,167.16393139999127,167.16393139999127,167.16393139999127,167.16393139999127,167.16393139999127,167.16393139999127,167.16393139999127,11,3,"[0.033076100022299215, 0.23336060001747683, 0.3506950000009965]","[0.08386650000466034, 0.3167844999989029, 0.36796180001692846]",167.16393139999127,167.36406599998008,0.0,167.38076239998918,0,0.0,0,1,1000,num_1,0.4877909000206273,,21,8,2026-03-02_17h56.34.891,2026A_exp2,2022.2.4,59.97925917833409,
1,0,6.1,6.1,1,0,42,42,89,,,,,167.89832799998112,168.54903500000364,168.54903500000364,169.0330918999971,315,315,169.0330918999971,169.0330918999971,169.0330918999971,169.0330918999971,169.0330918999971,169.0330918999971,169.0330918999971,169.0330918999971,169.0330918999971,169.39962679997552,169.39962679997552,169.39962679997552,169.39962679997552,169.39962679997552,169.39962679997552,169.39962679997552,169.39962679997552,169.39962679997552,7,5,"[0.0007536000048276037, 0.11728010000661016, 0.21745530000771396, 0.25053119999938644, 0.3176922000129707]","[0.06736440001986921, 0.20080099999904633, 0.23397290002321824, 0.2677685000235215, 0.36854600001242943]",169.39962679997552,169.60001009999542,6.1,169.60001009999542,1,6.1,1,1,1000,num_4,0.4852779999782797,,21,8,2026-03-02_17h56.34.891,2026A_exp2,2022.2.4,59.97925917833409,
1000,1,4.9,0.0,0,0,43,43,20,,,,,170.11704809998628,170.75105439999606,170.75105439999606,171.2528319999983,45,45,171.2528319999983,171.2528319999983,171.2528319999983,171.2528319999983,171.2528319999983,171.2528319999983,171.2528319999983,171.2528319999983,171.2528319999983,171.61862609998207,171.61862609998207,171.61862609998207,171.61862609998207,171.61862609998207,171.61862609998207,171.61862609998207,171.61862609998207,171.61862609998207,18,5,"[0.0661917999968864, 0.13298670001677237, 0.16649500001221895, 0.299745600001188, 0.33363700000336394]","[0.08307320001767948, 0.15206680001574568, 0.18281470000511035, 0.31707300001289696, 0.3499428000068292]",171.61862609998207,171.81896459998097,1000,171.81896459998097,1000,1000,1000,1000,0,num_3,0.6096208999806549,,21,8,2026-03-02_17h56.34.891,2026A_exp2,2022.2.4,59.97925917833409,
1000,1,6.1,0.0,0,0,44,44,68,,,,,172.4530292999989,173.1033497999888,173.1033497999888,173.5876825999876,315,45,173.5876825999876,173.5876825999876,173.5876825999876,173.5876825999876,173.5876825999876,173.5876825999876,173.5876825999876,173.5876825999876,173.5876825999876,173.95396049998817,173.95396049998817,173.95396049998817,173.95396049998817,173.95396049998817,173.95396049998817,173.95396049998817,173.95396049998817,173.95396049998817,21,2,"[0.19967309999628924, 0.26675509999040514]","[0.21635110001079738, 0.28341350000118837]",173.95396049998817,174.15477870000177,1000,174.15477870000177,1000,1000,1000,1000,0,num_3,0.46536629999172874,,21,8,2026-03-02_17h56.34.891,2026A_exp2,2022.2.4,59.97925917833409,
1000,1,4.9,4.9,1,0,45,45,85,,,,,174.63844219999737,175.2888839999796,175.2888839999796,175.7737347999937,315,315,175.7737347999937,175.7737347999937,175.7737347999937,175.7737347999937,175.7737347999937,175.7737347999937,175.7737347999937,175.7737347999937,175.7737347999937,176.13987799998722,176.13987799998722,176.13987799998722,176.13987799998722,176.13987799998722,176.13987799998722,176.13987799998722,176.13987799998722,176.13987799998722,18,4,"[0.01789950000238605, 0.11755630001425743, 0.18381630000658333, 0.31731420001597144]","[0.033824100013589486, 0.13384200001019053, 0.21733720001066104, 0.33406779999495484]",176.13987799998722,176.34001489999355,1000,176.34001489999355,1000,1000,1000,1000,1,num_2,0.7042400000209454,,21,8,2026-03-02_17h56.34.891,2026A_exp2,2022.2.4,59.97925917833409,
1,0,0.0,0.0,0,0,46,46,0,,,,,177.07416599997669,177.72470989997964,177.72470989997964,178.20913059997838,45,315,178.20913059997838,178.20913059997838,178.20913059997838,178.20913059997838,178.20913059997838,178.20913059997838,178.20913059997838,178.20913059997838,178.20913059997838,178.57550869998522,178.57550869998522,178.57550869998522,178.57550869998522,178.57550869998522,178.57550869998522,178.57550869998522,178.57550869998522,178.57550869998522,22,1,[0.0008347999828401953],[0.01767400000244379],178.57550869998522,178.77561489999061,0.0,178.77561489999061,0,0.0,0,1,1000,num_1,0.42137590001220815,,21,8,2026-03-02_17h56.34.891,2026A_exp2,2022.2.4,59.97925917833409,
0,0,0.0,0.0,0,0,47,47,69,,,,,179.22623380000005,179.8603860999865,179.8603860999865,180.36141650000354,45,45,180.36141650000354,180.36141650000354,180.36141650000354,180.36141650000354,180.36141650000354,180.36141650000354,180.36141650000354,180.36141650000354,180.36141650000354,180.7276748000004,180.7276748000004,180.7276748000004,180.7276748000004,180.7276748000004,180.7276748000004,180.7276748000004,180.7276748000004,180.7276748000004,18,5,"[0.0008882000111043453, 0.08325689999037422, 0.11653790000127628, 0.14986400000634603, 0.21735739998985082]","[0.017600399994989857, 0.0999186999979429, 0.13330149999819696, 0.16664619999937713, 0.2336559999966994]",180.7276748000004,180.92771180000273,0.0,180.92771180000273,0,0.0,0,1,1000,num_1,0.38112639999599196,,21,8,2026-03-02_17h56.34.891,2026A_exp2,2022.2.4,59.97925917833409,
1,0,6.1,0.0,1,0,48,48,38,,,,,181.32814909997978,181.96210469998186,181.96210469998186,182.4635715999757,45,45,182.4635715999757,182.4635715999757,182.4635715999757,182.4635715999757,182.4635715999757,182.4635715999757,182.4635715999757,182.4635715999757,182.4635715999757,182.82986999998684,182.82986999998684,182.82986999998684,182.82986999998684,182.82986999998684,182.82986999998684,182.82986999998684,182.82986999998684,182.82986999998684,23,0,,,182.82986999998684,183.03004579999833,0.0,183.03004579999833,0,0.0,0,1,1000,num_1,0.7500693000038154,,21,8,2026-03-02_17h56.34.891,2026A_exp2,2022.2.4,59.97925917833409,
1000,1,6.1,0.0,0,0,49,49,80,,,,,183.79740879999008,184.43132129998412,184.43132129998412,184.93238689997816,45,315,184.93238689997816,184.93238689997816,184.93238689997816,184.93238689997816,184.93238689997816,184.93238689997816,184.93238689997816,184.93238689997816,184.93238689997816,185.29894280000008,185.29894280000008,185.29894280000008,185.29894280000008,185.29894280000008,185.29894280000008,185.29894280000008,185.29894280000008,185.29894280000008,5,5,"[0.0007539000071119517, 0.05097360000945628, 0.15060369999264367, 0.20110490001388825, 0.3341439999931026]","[0.03397280001081526, 0.13391599999158643, 0.16709920001449063, 0.31781730000511743, 0.36764820001553744]",185.29894280000008,185.49922209998476,1000,185.49922209998476,1000,1000,1000,1000,0,num_3,0.6095522999821696,,21,8,2026-03-02_17h56.34.891,2026A_exp2,2022.2.4,59.97925917833409,
1000,1,4.9,0.0,0,0,50,50,78,,,,,186.13314239998,186.7834892999963,186.7834892999963,187.26816009997856,45,315,187.26816009997856,187.26816009997856,187.26816009997856,187.26816009997856,187.26816009997856,187.26816009997856,187.26816009997856,187.26816009997856,187.26816009997856,187.63476049999008,187.63476049999008,187.63476049999008,187.63476049999008,187.63476049999008,187.63476049999008,187.63476049999008,187.63476049999008,187.63476049999008,10,6,"[0.0007605999999213964, 0.1001823999977205, 0.20052009998471476, 0.23414049998973496, 0.2670380999916233, 0.30044719998841174]","[0.08371049998095259, 0.18389569999999367, 0.21752549998927861, 0.2510325999755878, 0.283884999982547, 0.31740539998281747]",187.63476049999008,187.83470149998902,1000,187.83470149998902,1000,1000,1000,1000,0,num_3,0.5136024999956135,,21,8,2026-03-02_17h56.34.891,2026A_exp2,2022.2.4,59.97925917833409,
1,0,0.0,0.0,1,0,51,51,82,,,,,188.36889729998074,189.01909299998078,189.01909299998078,189.52026589997695,315,315,189.52026589997695,189.52026589997695,189.52026589997695,189.52026589997695,189.52026589997695,189.52026589997695,189.52026589997695,189.52026589997695,189.52026589997695,189.87028539998573,189.87028539998573,189.87028539998573,189.87028539998573,189.87028539998573,189.87028539998573,189.87028539998573,189.87028539998573,189.87028539998573,22,0,,,189.87028539998573,190.0703891000012,0.0,190.0703891000012,0,0.0,0,1,1000,num_1,0.4057044000073802,,21,8,2026-03-02_17h56.34.891,2026A_exp2,2022.2.4,59.97925917833409,
1,0,6.1,3.7,0,0,52,52,86,,,,,190.50452749998658,191.1546999999846,191.1546999999846,191.65612149998196,315,315,191.65612149998196,191.65612149998196,191.65612149998196,191.65612149998196,191.65612149998196,191.65612149998196,191.65612149998196,191.65612149998196,191.65612149998196,192.02214590000222,192.02214590000222,192.02214590000222,192.02214590000222,192.02214590000222,192.02214590000222,192.02214590000222,192.02214590000222,192.02214590000222,23,0,,,192.02214590000222,192.2226140999992,6.1,192.2226140999992,1,6.1,1,1,1000,num_4,0.7336990000039805,,21,8,2026-03-02_17h56.34.891,2026A_exp2,2022.2.4,59.97925917833409,
1000,1,0.0,3.7,0,0,53,53,32,,,,,192.9736450999917,193.60780689999228,193.60780689999228,194.10915809997823,45,315,194.10915809997823,194.10915809997823,194.10915809997823,194.10915809997823,194.10915809997823,194.10915809997823,194.10915809997823,194.10915809997823,194.10915809997823,194.47492569999304,194.47492569999304,194.47492569999304,194.47492569999304,194.47492569999304,194.47492569999304,194.47492569999304,194.47492569999304,194.47492569999304,22,1,[0.2509380000119563],[0.26763720001326874],194.47492569999304,194.67510480000055,1000,194.67510480000055,1000,1000,1000,1000,1,num_2,1.1694189999834634,,21,8,2026-03-02_17h56.34.891,2026A_exp2,2022.2.4,59.97925917833409,
1000,1,6.1,3.7,0,0,54,54,61,,,,,195.87641539998003,196.52689499998814,196.52689499998814,197.01115379997646,315,315,197.01115379997646,197.01115379997646,197.01115379997646,197.01115379997646,197.01115379997646,197.01115379997646,197.01115379997646,197.01115379997646,197.01115379997646,197.37830589999794,197.37830589999794,197.37830589999794,197.37830589999794,197.37830589999794,197.37830589999794,197.37830589999794,197.37830589999794,197.37830589999794,23,0,,,197.37830589999794,197.5779153999756,1000,197.5779153999756,1000,1000,1000,1000,0,num_3,0.5465186999936122,,21,8,2026-03-02_17h56.34.891,2026A_exp2,2022.2.4,59.97925917833409,
1000,1,6.1,3.7,1,0,55,55,45,,,,,198.14531409999472,198.79583459999412,198.79583459999412,199.29674160000286,45,45,199.29674160000286,199.29674160000286,199.29674160000286,199.29674160000286,199.29674160000286,199.29674160000286,199.29674160000286,199.29674160000286,199.29674160000286,199.64655439998023,199.64655439998023,199.64655439998023,199.64655439998023,199.64655439998023,199.64655439998023,199.64655439998023,199.64655439998023,199.64655439998023,22,0,,,199.64655439998023,199.84682529998827,1000,199.84682529998827,1000,1000,1000,1000,0,num_3,0.47028020001016557,,21,8,2026-03-02_17h56.34.891,2026A_exp2,2022.2.4,59.97925917833409,
1,0,0.0,6.1,0,0,56,56,72,,,,,200.34709369999473,200.98108420000062,200.98108420000062,201.4822770000028,45,315,201.4822770000028,201.4822770000028,201.4822770000028,201.4822770000028,201.4822770000028,201.4822770000028,201.4822770000028,201.4822770000028,201.4822770000028,201.848565399996,201.848565399996,201.848565399996,201.848565399996,201.848565399996,201.848565399996,201.848565399996,201.848565399996,201.848565399996,23,0,,,201.848565399996,202.04893409999204,0.0,202.04893409999204,0,0.0,0,1,1000,num_1,0.6759646000282373,,21,8,2026-03-02_17h56.34.891,2026A_exp2,2022.2.4,59.97925917833409,
1,0,3.7,6.1,1,0,57,57,6,,,,,202.7497938000015,203.384046399995,203.384046399995,203.88491709998925,315,45,203.88491709998925,203.88491709998925,203.88491709998925,203.88491709998925,203.88491709998925,203.88491709998925,203.88491709998925,203.88491709998925,203.88491709998925,204.25115669998922,204.25115669998922,204.25115669998922,204.25115669998922,204.25115669998922,204.25115669998922,204.25115669998922,204.25115669998922,204.25115669998922,23,0,,,204.25115669998922,204.45152689999668,6.1,204.45152689999668,1,6.1,1,1,1000,num_4,0.9285426000133157,,21,8,2026-03-02_17h56.34.891,2026A_exp2,2022.2.4,59.97925917833409,
1000,1,0.0,0.0,0,0,58,58,5,,,,,205.40259230000083,206.0532057999808,206.0532057999808,206.5539654000022,315,315,206.5539654000022,206.5539654000022,206.5539654000022,206.5539654000022,206.5539654000022,206.5539654000022,206.5539654000022,206.5539654000022,206.5539654000022,206.9036546999996,206.9036546999996,206.9036546999996,206.9036546999996,206.9036546999996,206.9036546999996,206.9036546999996,206.9036546999996,206.9036546999996,22,0,,,206.9036546999996,207.10412730000098,1000,207.1206931999768,1000,1000,1000,1000,1,num_2,0.7644462000171188,,21,8,2026-03-02_17h56.34.891,2026A_exp2,2022.2.4,59.97925917833409,
1000,1,4.9,3.7,1,0,59,59,14,,,,,207.90496019998682,208.55532389998552,208.55532389998552,209.056562999991,45,45,209.056562999991,209.056562999991,209.056562999991,209.056562999991,209.056562999991,209.056562999991,209.056562999991,209.056562999991,209.056562999991,209.40729249999276,209.40729249999276,209.40729249999276,209.40729249999276,209.40729249999276,209.40729249999276,209.40729249999276,209.40729249999276,209.40729249999276,22,0,,,209.40729249999276,209.60660239998833,1000,209.62339439999778,1000,1000,1000,1000,0,num_3,0.6129163000150584,,21,8,2026-03-02_17h56.34.891,2026A_exp2,2022.2.4,59.97925917833409,
1000,1,0.0,3.7,1,0,60,60,43,,,,,210.25752949999878,210.90795069999876,210.90795069999876,211.3923082999827,315,45,211.3923082999827,211.3923082999827,211.3923082999827,211.3923082999827,211.3923082999827,211.3923082999827,211.3923082999827,211.3923082999827,211.3923082999827,211.75848859999678,211.75848859999678,211.75848859999678,211.75848859999678,211.75848859999678,211.75848859999678,211.75848859999678,211.75848859999678,211.75848859999678,6,5,"[0.0007787999929860234, 0.18347609997726977, 0.23390539997490123, 0.300646699994104, 0.3337166999990586]","[0.1670406999764964, 0.20032659999560565, 0.26705279998714104, 0.3171147999819368, 0.36735489999409765]",211.75848859999678,211.95898579998175,1000,211.95898579998175,1000,1000,1000,1000,1,num_2,0.7972832999948878,,21,8,2026-03-02_17h56.34.891,2026A_exp2,2022.2.4,59.97925917833409,
1000,1,4.9,0.0,1,0,61,61,7,,,,,212.77682849997655,213.42734850000124,213.42734850000124,213.91143419998116,45,45,213.91143419998116,213.91143419998116,213.91143419998116,213.91143419998116,213.91143419998116,213.91143419998116,213.91143419998116,213.91143419998116,213.91143419998116,214.27809239999624,214.27809239999624,214.27809239999624,214.27809239999624,214.27809239999624,214.27809239999624,214.27809239999624,214.27809239999624,214.27809239999624,5,3,"[0.03353119999519549, 0.11742980001145042, 0.2504769000224769]","[0.0843897000013385, 0.2338445000059437, 0.36788180001894943]",214.27809239999624,214.47861540000304,1000,214.47861540000304,1000,1000,1000,1000,0,num_3,0.4858617999998387,,21,8,2026-03-02_17h56.34.891,2026A_exp2,2022.2.4,59.97925917833409,
1,0,3.7,4.9,0,0,62,62,31,,,,,214.99557909998111,215.6459909999976,215.6459909999976,216.1306551999878,45,315,216.1306551999878,216.1306551999878,216.1306551999878,216.1306551999878,216.1306551999878,216.1306551999878,216.1306551999878,216.1306551999878,216.1306551999878,216.49679649999598,216.49679649999598,216.49679649999598,216.49679649999598,216.49679649999598,216.49679649999598,216.49679649999598,216.49679649999598,216.49679649999598,0,1,[0.0007474999874830246],[0.36778999998932704],216.49679649999598,216.69703389998176,3.7,216.69703389998176,1,3.7,1,1,1000,num_4,0.8436392000003252,,21,8,2026-03-02_17h56.34.891,2026A_exp2,2022.2.4,59.97925917833409,
1000,1,6.1,0.0,0,0,63,63,58,,,,,217.5647599999793,218.1986681999988,218.1986681999988,218.69972720000078,45,315,218.69972720000078,218.69972720000078,218.69972720000078,218.69972720000078,218.69972720000078,218.69972720000078,218.69972720000078,218.69972720000078,218.69972720000078,219.06607649999205,219.06607649999205,219.06607649999205,219.06607649999205,219.06607649999205,219.06607649999205,219.06607649999205,219.06607649999205,219.06607649999205,0,1,[0.0007582000107504427],[0.36704199999803677],219.06607649999205,219.26653949997853,1000,219.26653949997853,1000,1000,1000,1000,0,num_3,0.5307304000016302,,21,8,2026-03-02_17h56.34.891,2026A_exp2,2022.2.4,59.97925917833409,
1000,1,0.0,0.0,1,0,64,64,62,,,,,219.81680010000127,220.4674757999892,220.4674757999892,220.95190240000375,45,45,220.95190240000375,220.95190240000375,220.95190240000375,220.95190240000375,220.95190240000375,220.95190240000375,220.95190240000375,220.95190240000375,220.95190240000375,221.31843469999149,221.31843469999149,221.31843469999149,221.31843469999149,221.31843469999149,221.31843469999149,221.31843469999149,221.31843469999149,221.31843469999149,0,1,[0.0008809000137262046],[0.36702110001351684],221.31843469999149,221.51865769998403,1000,221.51865769998403,1000,1000,1000,1000,0,num_3,1.2946118999971077,,21,8,2026-03-02_17h56.34.891,2026A_exp2,2022.2.4,59.97925917833409,
1,0,0.0,3.7,0,0,65,65,1,,,,,222.83664389999467,223.47061739998753,223.47061739998753,223.971521200001,315,315,223.971521200001,223.971521200001,223.971521200001,223.971521200001,223.971521200001,223.971521200001,223.971521200001,223.971521200001,223.971521200001,224.3376877999981,224.3376877999981,224.3376877999981,224.3376877999981,224.3376877999981,224.3376877999981,224.3376877999981,224.3376877999981,224.3376877999981,0,1,[0.0008375000033993274],[0.36669720002100803],224.3376877999981,224.5380355999805,0.0,224.5380355999805,0,0.0,0,1,1000,num_1,0.7229724999924656,,21,8,2026-03-02_17h56.34.891,2026A_exp2,2022.2.4,59.97925917833409,
1000,1,4.9,6.1,1,0,66,66,18,,,,,225.289162400004,225.92281920000096,225.92281920000096,226.42402330000186,45,315,226.42402330000186,226.42402330000186,226.42402330000186,226.42402330000186,226.42402330000186,226.42402330000186,226.42402330000186,226.42402330000186,226.42402330000186,226.79050350000034,226.79050350000034,226.79050350000034,226.79050350000034,226.79050350000034,226.79050350000034,226.79050350000034,226.79050350000034,226.79050350000034,0,1,[0.0008683000050950795],[0.36843400000361726],226.79050350000034,226.99063479999313,1000,226.99063479999313,1000,1000,1000,1000,1,num_2,0.5578699000179768,,21,8,2026-03-02_17h56.34.891,2026A_exp2,2022.2.4,59.97925917833409,
1000,1,4.9,4.9,1,0,67,67,60,,,,,227.5745607999852,228.22541069998988,228.22541069998988,228.72637950000353,315,315,228.72637950000353,228.72637950000353,228.72637950000353,228.72637950000353,228.72637950000353,228.72637950000353,228.72637950000353,228.72637950000353,228.72637950000353,229.07587159998366,229.07587159998366,229.07587159998366,229.07587159998366,229.07587159998366,229.07587159998366,229.07587159998366,229.07587159998366,229.07587159998366,4,3,"[0.000748799997381866, 0.08351029999903403, 0.1831071000196971]","[0.03293940000003204, 0.1662920000089798, 0.3501317000191193]",229.07587159998366,229.27658459998202,1000,229.27658459998202,1000,1000,1000,1000,1,num_2,0.6239610000047833,,21,8,2026-03-02_17h56.34.891,2026A_exp2,2022.2.4,59.97925917833409,
1000,1,0.0,4.9,0,0,68,68,27,,,,,229.92681699999957,230.56100809999043,230.56100809999043,231.06219619998592,45,315,231.06219619998592,231.06219619998592,231.06219619998592,231.06219619998592,231.06219619998592,231.06219619998592,231.06219619998592,231.06219619998592,231.06219619998592,231.42829260000144,231.42829260000144,231.42829260000144,231.42829260000144,231.42829260000144,231.42829260000144,231.42829260000144,231.42829260000144,231.42829260000144,0,1,[0.0007967000128701329],[0.3674038000172004],231.42829260000144,231.62879639997846,1000,231.62879639997846,1000,1000,1000,1000,1,num_2,0.5440012000035495,,21,8,2026-03-02_17h56.34.891,2026A_exp2,2022.2.4,59.97925917833409,
1000,1,0.0,0.0,1,0,69,69,71,,,,,232.19567479999387,232.830097500002,232.830097500002,233.33130520000122,315,45,233.33130520000122,233.33130520000122,233.33130520000122,233.33130520000122,233.33130520000122,233.33130520000122,233.33130520000122,233.33130520000122,233.33130520000122,233.69744819999323,233.69744819999323,233.69744819999323,233.69744819999323,233.69744819999323,233.69744819999323,233.69744819999323,233.69744819999323,233.69744819999323,2,2,"[0.0009919999865815043, 0.08342330000596121]","[0.04961560000083409, 0.3667882999870926]",233.69744819999323,233.89759419998154,1000,233.89759419998154,1000,1000,1000,1000,1,num_2,0.8749014000059105,,21,8,2026-03-02_17h56.34.891,2026A_exp2,2022.2.4,59.97925917833409,
1,0,0.0,0.0,0,0,70,70,29,,,,,234.7985090999864,235.44907959998818,235.44907959998818,235.93349899997702,315,315,235.93349899997702,235.93349899997702,235.93349899997702,235.93349899997702,235.93349899997702,235.93349899997702,235.93349899997702,235.93349899997702,235.93349899997702,236.29989989998285,236.29989989998285,236.29989989998285,236.29989989998285,236.29989989998285,236.29989989998285,236.29989989998285,236.29989989998285,236.29989989998285,21,2,"[0.0007391999824903905, 0.15007669999613427]","[0.01737049999064766, 0.16696269999374636]",236.29989989998285,236.50017059998936,0.0,236.50017059998936,0,0.0,0,1,1000,num_1,0.7201219999988098,,21,8,2026-03-02_17h56.34.891,2026A_exp2,2022.2.4,59.97925917833409,
1,0,0.0,4.9,0,0,71,71,35,,,,,237.25134059999255,237.88478520000353,237.88478520000353,238.38632689998485,45,45,238.38632689998485,238.38632689998485,238.38632689998485,238.38632689998485,238.38632689998485,238.38632689998485,238.38632689998485,238.38632689998485,238.38632689998485,238.7522048999963,238.7522048999963,238.7522048999963,238.7522048999963,238.7522048999963,238.7522048999963,238.7522048999963,238.7522048999963,238.7522048999963,23,0,,,238.7522048999963,238.95251639999333,0.0,238.95251639999333,0,0.0,0,1,1000,num_1,0.5485690000059549,,21,8,2026-03-02_17h56.34.891,2026A_exp2,2022.2.4,59.97925917833409,
1000,1,6.1,6.1,0,0,72,72,50,,,,,239.52030289999675,240.1539991000027,240.1539991000027,240.6549322999781,315,45,240.6549322999781,240.6549322999781,240.6549322999781,240.6549322999781,240.6549322999781,240.6549322999781,240.6549322999781,240.6549322999781,240.6549322999781,241.02157149999402,241.02157149999402,241.02157149999402,241.02157149999402,241.02157149999402,241.02157149999402,241.02157149999402,241.02157149999402,241.02157149999402,23,0,,,241.02157149999402,241.22153369997977,1000,241.22153369997977,1000,1000,1000,1000,0,num_3,0.9189547999994829,,21,8,2026-03-02_17h56.34.891,2026A_exp2,2022.2.4,59.97925917833409,
1,0,6.1,0.0,1,0,73,73,54,,,,,242.1726054000028,242.823141699977,242.823141699977,243.3074912999873,45,315,243.3074912999873,243.3074912999873,243.3074912999873,243.3074912999873,243.3074912999873,243.3074912999873,243.3074912999873,243.3074912999873,243.3074912999873,243.6742076999799,243.6742076999799,243.6742076999799,243.6742076999799,243.6742076999799,243.6742076999799,243.6742076999799,243.6742076999799,243.6742076999799,19,4,"[0.25057279999600723, 0.2839082999853417, 0.3185249000089243, 0.351294299995061]","[0.26720609999028966, 0.30107759998645633, 0.33483499998692423, 0.3678854999889154]",243.6742076999799,243.8740804999834,0.0,243.8740804999834,0,0.0,0,1,1000,num_1,0.6259870999783743,,21,8,2026-03-02_17h56.34.891,2026A_exp2,2022.2.4,59.97925917833409,
1,0,4.9,0.0,0,0,74,74,87,,,,,244.52540549999685,245.175502099999,245.175502099999,245.660169699986,315,315,245.660169699986,245.660169699986,245.660169699986,245.660169699986,245.660169699986,245.660169699986,245.660169699986,245.660169699986,245.660169699986,246.02664289998938,246.02664289998938,246.02664289998938,246.02664289998938,246.02664289998938,246.02664289998938,246.02664289998938,246.02664289998938,246.02664289998938,16,5,"[0.0009038000134751201, 0.13372789998538792, 0.23347909998847172, 0.2668011999921873, 0.3671948999981396]","[0.04988460001186468, 0.1504406000021845, 0.25048859999515116, 0.2833471999911126, 0.3671975999895949]",246.02664289998938,246.22676859999774,4.9,246.22676859999774,1,4.9,1,1,1000,num_4,0.43363549999776296,,21,8,2026-03-02_17h56.34.891,2026A_exp2,2022.2.4,59.97925917833409,
1000,1,6.1,6.1,0,0,75,75,74,,,,,246.67752319999272,247.32794019998983,247.32794019998983,247.812274099997,45,45,247.812274099997,247.812274099997,247.812274099997,247.812274099997,247.812274099997,247.812274099997,247.812274099997,247.812274099997,247.812274099997,248.17858419998083,248.17858419998083,248.17858419998083,248.17858419998083,248.17858419998083,248.17858419998083,248.17858419998083,248.17858419998083,248.17858419998083,15,3,"[0.0007337999995797873, 0.20100620001903735, 0.31711010000435635]","[0.033574000000953674, 0.2506811000057496, 0.3671413999982178]",248.17858419998083,248.3789101000002,1000,248.3789101000002,1000,1000,1000,1000,0,num_3,0.7615288000088185,,21,8,2026-03-02_17h56.34.891,2026A_exp2,2022.2.4,59.97925917833409,
0,0,0.0,0.0,0,0,76,76,67,,,,,249.16285249998327,249.81354929998633,249.81354929998633,250.29794669998228,45,315,250.29794669998228,250.29794669998228,250.29794669998228,250.29794669998228,250.29794669998228,250.29794669998228,250.29794669998228,250.29794669998228,250.29794669998228,250.66438259999268,250.66438259999268,250.66438259999268,250.66438259999268,250.66438259999268,250.66438259999268,250.66438259999268,250.66438259999268,250.66438259999268,18,3,"[0.050428399990778416, 0.18348410000908189, 0.21721999999135733]","[0.10045820000232197, 0.20063669999944977, 0.25058749999152496]",250.66438259999268,250.864731699985,0.0,250.864731699985,0,0.0,0,1,1000,num_1,0.3961342000111472,,21,8,2026-03-02_17h56.34.891,2026A_exp2,2022.2.4,59.97925917833409,
1,0,0.0,4.9,1,0,77,77,65,,,,,251.28180939998128,251.91578789998312,251.91578789998312,252.41677399998298,315,315,252.41677399998298,252.41677399998298,252.41677399998298,252.41677399998298,252.41677399998298,252.41677399998298,252.41677399998298,252.41677399998298,252.41677399998298,252.78308839999954,252.78308839999954,252.78308839999954,252.78308839999954,252.78308839999954,252.78308839999954,252.78308839999954,252.78308839999954,252.78308839999954,3,4,"[0.0008970999915618449, 0.04987069999333471, 0.1168859000026714, 0.25029349999385886]","[0.03329769999254495, 0.10013710000202991, 0.23360300000058487, 0.3669082999986131]",252.78308839999954,252.98325659998227,4.9,252.98325659998227,1,4.9,1,1,1000,num_4,0.42918310000095516,,21,8,2026-03-02_17h56.34.891,2026A_exp2,2022.2.4,59.97925917833409,
1000,1,0.0,0.0,1,0,78,78,40,,,,,253.43405029998394,254.0676566999755,254.0676566999755,254.56875700000091,315,45,254.56875700000091,254.56875700000091,254.56875700000091,254.56875700000091,254.56875700000091,254.56875700000091,254.56875700000091,254.56875700000091,254.56875700000091,254.9353341999813,254.9353341999813,254.9353341999813,254.9353341999813,254.9353341999813,254.9353341999813,254.9353341999813,254.9353341999813,254.9353341999813,6,7,"[0.0008039000094868243, 0.08396600000560284, 0.1173214000009466, 0.18381050002062693, 0.21735310001531616, 0.2840241999947466, 0.3172230000200216]","[0.0671116000157781, 0.10055100001045503, 0.1673196000047028, 0.2004956000018865, 0.2672024000203237, 0.3007383000222035, 0.36748050001915544]",254.9353341999813,255.13547059998382,1000,255.13547059998382,1000,1000,1000,1000,0,num_3,0.9567984000022989,,21,8,2026-03-02_17h56.34.891,2026A_exp2,2022.2.4,59.97925917833409,
1,0,6.1,6.1,0,0,79,79,11,,,,,256.1202310999797,256.7706300999853,256.7706300999853,257.27175899999565,315,315,257.27175899999565,257.27175899999565,257.27175899999565,257.27175899999565,257.27175899999565,257.27175899999565,257.27175899999565,257.27175899999565,257.27175899999565,257.62192569999024,257.62192569999024,257.62192569999024,257.62192569999024,257.62192569999024,257.62192569999024,257.62192569999024,257.62192569999024,257.62192569999024,9,7,"[0.0008514999935869128, 0.03343219999806024, 0.06682789998012595, 0.1503140999993775, 0.20041039999341592, 0.25048570000217296, 0.28409639999154024]","[0.018154799996409565, 0.050323500006925315, 0.13412179998704232, 0.18378500000108033, 0.21709699998609722, 0.26724399998784065, 0.33490299998084083]",257.62192569999024,257.8216053999786,6.1,257.8216053999786,1,6.1,1,1,1000,num_4,0.5512331000063568,,21,8,2026-03-02_17h56.34.891,2026A_exp2,2022.2.4,59.97925917833409,
1,0,0.0,3.7,1,0,80,80,25,,,,,258.38930999999866,259.0226568999933,259.0226568999933,259.52368679997744,315,45,259.52368679997744,259.52368679997744,259.52368679997744,259.52368679997744,259.52368679997744,259.52368679997744,259.52368679997744,259.52368679997744,259.52368679997744,259.8905186999764,259.8905186999764,259.8905186999764,259.8905186999764,259.8905186999764,259.8905186999764,259.8905186999764,259.8905186999764,259.8905186999764,13,10,"[0.0010068999836221337, 0.03341020000516437, 0.06656809998094104, 0.10004779999144375, 0.13363229998503812, 0.16675979999126866, 0.20135509999818169, 0.23344660000293516, 0.2667537999805063, 0.3336587999947369]","[0.017017999984091148, 0.05021699998178519, 0.08351919997949153, 0.11670280000544153, 0.1501087000069674, 0.18386279998230748, 0.21784009999828413, 0.2499987999908626, 0.28345899999840185, 0.35004409999237396]",259.8905186999764,260.0905948999862,3.7,260.0905948999862,0,3.7,1,0,1000,num_1,0.46623360001831315,,21,8,2026-03-02_17h56.34.891,2026A_exp2,2022.2.4,59.97925917833409,
1000,1,6.1,0.0,1,0,81,81,52,,,,,260.57419949999894,261.22483150000335,261.22483150000335,261.7091561999987,315,315,261.7091561999987,261.7091561999987,261.7091561999987,261.7091561999987,261.7091561999987,261.7091561999987,261.7091561999987,261.7091561999987,261.7091561999987,262.0767779999878,262.0767779999878,262.0767779999878,262.0767779999878,262.0767779999878,262.0767779999878,262.0767779999878,262.0767779999878,262.0767779999878,23,0,,,262.0767779999878,262.275959599996,1000,262.275959599996,1000,1000,1000,1000,0,num_3,0.6241273000196088,,21,8,2026-03-02_17h56.34.891,2026A_exp2,2022.2.4,59.97925917833409,
1000,1,0.0,3.7,1,0,82,82,75,,,,,262.9266256999981,263.57743279999704,263.57743279999704,264.0619672999892,315,45,264.0619672999892,264.0619672999892,264.0619672999892,264.0619672999892,264.0619672999892,264.0619672999892,264.0619672999892,264.0619672999892,264.0619672999892,264.4281904999807,264.4281904999807,264.4281904999807,264.4281904999807,264.4281904999807,264.4281904999807,264.4281904999807,264.4281904999807,264.4281904999807,22,1,[0.3666830000001937],[0.3666856000199914],264.4281904999807,264.6284236999927,1000,264.6284236999927,1000,1000,1000,1000,0,num_3,0.7608233999926597,,21,8,2026-03-02_17h56.34.891,2026A_exp2,2022.2.4,59.97925917833409,
1000,1,3.7,0.0,1,0,83,83,44,,,,,265.41251880000345,266.0463580999931,266.0463580999931,266.54765979998047,315,45,266.54765979998047,266.54765979998047,266.54765979998047,266.54765979998047,266.54765979998047,266.54765979998047,266.54765979998047,266.54765979998047,266.54765979998047,266.9138719999755,266.9138719999755,266.9138719999755,266.9138719999755,266.9138719999755,266.9138719999755,266.9138719999755,266.9138719999755,266.9138719999755,23,0,,,266.9138719999755,267.11414269998204,1000,267.11414269998204,1000,1000,1000,1000,0,num_3,0.570831500022905,,21,8,2026-03-02_17h56.34.891,2026A_exp2,2022.2.4,59.97925917833409,
1,0,0.0,3.7,1,0,84,84,10,,,,,267.71505939998315,268.36535139998887,268.36535139998887,268.8666363999946,45,315,268.8666363999946,268.8666363999946,268.8666363999946,268.8666363999946,268.8666363999946,268.8666363999946,268.8666363999946,268.8666363999946,268.8666363999946,269.23273769998923,269.23273769998923,269.23273769998923,269.23273769998923,269.23273769998923,269.23273769998923,269.23273769998923,269.23273769998923,269.23273769998923,23,0,,,269.23273769998923,269.4339893999859,3.7,269.4339893999859,1,3.7,1,1,1000,num_4,1.1631965999840759,,21,8,2026-03-02_17h56.34.891,2026A_exp2,2022.2.4,59.97925917833409,
1,0,3.7,3.7,1,0,85,85,64,,,,,270.61758299998473,271.2683677999885,271.2683677999885,271.7527747999993,45,45,271.7527747999993,271.7527747999993,271.7527747999993,271.7527747999993,271.7527747999993,271.7527747999993,271.7527747999993,271.7527747999993,271.7527747999993,272.1192681999819,272.1192681999819,272.1192681999819,272.1192681999819,272.1192681999819,272.1192681999819,272.1192681999819,272.1192681999819,272.1192681999819,16,7,"[0.000917799974558875, 0.09912279999116436, 0.13254309998592362, 0.1997004000004381, 0.29970619999221526, 0.3330028999771457, 0.3661685999832116]","[0.01649469998665154, 0.11616189999040216, 0.1492265999841038, 0.21665139999822713, 0.3164626999932807, 0.35022679998655804, 0.36617159997695126]",272.1192681999819,272.3191706999787,3.7,272.3191706999787,0,3.7,1,0,1000,num_1,1.5734561000135727,,21,8,2026-03-02_17h56.34.891,2026A_exp2,2022.2.4,59.97925917833409,
1000,1,0.0,0.0,0,0,86,86,47,,,,,273.92110149998916,274.5548682999797,274.5548682999797,275.0561097000027,315,45,275.0561097000027,275.0561097000027,275.0561097000027,275.0561097000027,275.0561097000027,275.0561097000027,275.0561097000027,275.0561097000027,275.0561097000027,275.4223287999921,275.4223287999921,275.4223287999921,275.4223287999921,275.4223287999921,275.4223287999921,275.4223287999921,275.4223287999921,275.4223287999921,23,0,,,275.4223287999921,275.6227818999905,1000,275.6227818999905,1000,1000,1000,1000,1,num_2,1.1334145999862812,,21,8,2026-03-02_17h56.34.891,2026A_exp2,2022.2.4,59.97925917833409,
1,0,6.1,6.1,0,0,87,87,51,,,,,276.7740072000015,277.4245286999794,277.4245286999794,277.92547009998816,45,45,277.92547009998816,277.92547009998816,277.92547009998816,277.92547009998816,277.92547009998816,277.92547009998816,277.92547009998816,277.92547009998816,277.92547009998816,278.2751483999891,278.2751483999891,278.2751483999891,278.2751483999891,278.2751483999891,278.2751483999891,278.2751483999891,278.2751483999891,278.2751483999891,8,6,"[0.033553299988852814, 0.06701949998387136, 0.16690720000769943, 0.20056470000417903, 0.23353050000150688, 0.30035720000159927]","[0.050194399984320626, 0.1507692000013776, 0.18373269998119213, 0.21681149999494664, 0.2836392000026535, 0.3518612000043504]",278.2751483999891,278.4755391999788,6.1,278.4755391999788,1,6.1,1,1,1000,num_4,0.7849548000085633,,21,8,2026-03-02_17h56.34.891,2026A_exp2,2022.2.4,59.97925917833409,
1,0,0.0,3.7,0,0,88,88,2,,,,,279.2760016999964,279.9269716999843,279.9269716999843,280.41143659999943,315,315,280.41143659999943,280.41143659999943,280.41143659999943,280.41143659999943,280.41143659999943,280.41143659999943,280.41143659999943,280.41143659999943,280.41143659999943,280.77780339997844,280.77780339997844,280.77780339997844,280.77780339997844,280.77780339997844,280.77780339997844,280.77780339997844,280.77780339997844,280.77780339997844,23,0,,,280.77780339997844,280.9781487,0.0,280.9781487,0,0.0,0,1,1000,num_1,0.6425156999903265,,21,8,2026-03-02_17h56.34.891,2026A_exp2,2022.2.4,59.97925917833409,
1000,1,6.1,4.9,1,0,89,89,76,,,,,281.64551169998595,282.27974689999246,282.27974689999246,282.7802223000035,45,45,282.7802223000035,282.7802223000035,282.7802223000035,282.7802223000035,282.7802223000035,282.7802223000035,282.7802223000035,282.7802223000035,282.7802223000035,283.1466154999798,283.1466154999798,283.1466154999798,283.1466154999798,283.1466154999798,283.1466154999798,283.1466154999798,283.1466154999798,283.1466154999798,15,3,"[0.05034060002071783, 0.134133000014117, 0.30089130002306774]","[0.08390730002429336, 0.1838698000065051, 0.33395490000839345]",283.1466154999798,283.3473762999929,1000,283.3473762999929,1000,1000,1000,1000,0,num_3,1.0657327999942936,,21,8,2026-03-02_17h56.34.891,2026A_exp2,2022.2.4,59.97925917833409,
,,,,,,,,,,,,,,,,,,,,,,,,,,,,,,,,,,,,,,,,,,,,,,,,,,,,284.4375871999946,,,,,,,
