validity,detectorcomp,contrastCW,contrastCCW,precueCWorCCW,block_80trials.thisRepN,block_80trials.thisTrialN,block_80trials.thisN,block_80trials.thisIndex,etRecord.started,etRecord.stopped,text.started,text.stopped,text_4.started,text_4.stopped,text_6.started,text_6.stopped,oriCW,oriCCW,roi_2.started,grating_UR.started,grating_UL.started,grating_LR.started,grating_LL.started,noise_UR.started,noise_UL.started,noise_LR.started,noise_LL.started,roi_2.stopped,grating_UR.stopped,grating_UL.stopped,grating_LR.stopped,grating_LL.stopped,noise_UR.stopped,noise_UL.stopped,noise_LR.stopped,noise_LL.stopped,outframe,roi_2.numLooks,roi_2.timesOn,roi_2.timesOff,text_2.started,text_2.stopped,probedcontrast,key_resp.started,respdetect,relevantContrast,correctDetect,TorFdetect,respCWorCCW,key_resp.keys,key_resp.rt,feedback_display_.started,participantNo,blockNo,date,expName,psychopyVersion,frameRate,
1000,1,0.0,4.9,1,0,0,0,27,3.679998917505145e-05,3.679998917505145e-05,47.64716940000653,49.65023210004438,49.65023210004438,50.283514000009745,50.283514000009745,50.80400649999501,45,45,50.80400649999501,50.80400649999501,50.80400649999501,50.80400649999501,50.80400649999501,50.80400649999501,50.80400649999501,50.80400649999501,50.80400649999501,51.151302799989935,51.151302799989935,51.151302799989935,51.151302799989935,51.151302799989935,51.151302799989935,51.151302799989935,51.151302799989935,51.151302799989935,5,1,[0.0010082999942824244],[0.29961440002080053],51.151302799989935,51.358593600045424,1000,51.358593600045424,1000,1000,1000,1000,0,num_3,0.5303618999896571,,28,11,2026-03-05_16h26.57.956,2026A_exp2,2022.2.4,59.86013082644798,
0,0,0.0,0.0,1,0,1,1,62,,,,,51.91895050002495,52.56936650001444,52.56936650001444,53.05376780004008,315,315,53.05376780004008,53.05376780004008,53.05376780004008,53.05376780004008,53.05376780004008,53.05376780004008,53.05376780004008,53.05376780004008,53.05376780004008,53.42027140001301,53.42027140001301,53.42027140001301,53.42027140001301,53.42027140001301,53.42027140001301,53.42027140001301,53.42027140001301,53.42027140001301,0,1,[0.0012462000013329089],[0.3673350000171922],53.42027140001301,53.62046290002763,0.0,53.62046290002763,0,0.0,0,1,1000,num_1,0.7313029999495484,,28,11,2026-03-05_16h26.57.956,2026A_exp2,2022.2.4,59.86013082644798,
1,0,4.9,0.0,1,0,2,2,6,,,,,54.37121400004253,55.021835900028236,55.021835900028236,55.50628319999669,45,315,55.50628319999669,55.50628319999669,55.50628319999669,55.50628319999669,55.50628319999669,55.50628319999669,55.50628319999669,55.50628319999669,55.50628319999669,55.87265070003923,55.87265070003923,55.87265070003923,55.87265070003923,55.87265070003923,55.87265070003923,55.87265070003923,55.87265070003923,55.87265070003923,0,1,[0.0014519999967887998],[0.3671027999953367],55.87265070003923,56.07283790002111,0.0,56.07283790002111,0,0.0,0,1,1000,num_1,0.39096640003845096,,28,11,2026-03-05_16h26.57.956,2026A_exp2,2022.2.4,59.86013082644798,
1000,1,6.1,4.9,1,0,3,3,53,,,,,56.49008830002276,57.140684799989685,57.140684799989685,57.625222600006964,45,45,57.625222600006964,57.625222600006964,57.625222600006964,57.625222600006964,57.625222600006964,57.625222600006964,57.625222600006964,57.625222600006964,57.625222600006964,57.991673100041226,57.991673100041226,57.991673100041226,57.991673100041226,57.991673100041226,57.991673100041226,57.991673100041226,57.991673100041226,57.991673100041226,0,1,[0.0014454000047408044],[0.36696280003525317],57.991673100041226,58.193782999995165,1000,58.193782999995165,1000,1000,1000,1000,0,num_3,0.6073512000148185,,28,11,2026-03-05_16h26.57.956,2026A_exp2,2022.2.4,59.86013082644798,
1,0,3.7,0.0,1,0,4,4,74,,,,,58.825785299995914,59.47621480002999,59.47621480002999,59.97731370001566,45,45,59.97731370001566,59.97731370001566,59.97731370001566,59.97731370001566,59.97731370001566,59.97731370001566,59.97731370001566,59.97731370001566,59.97731370001566,60.34366610000143,60.34366610000143,60.34366610000143,60.34366610000143,60.34366610000143,60.34366610000143,60.34366610000143,60.34366610000143,60.34366610000143,0,1,[0.001228499982971698],[0.3669553999789059],60.34366610000143,60.54403380001895,0.0,60.54403380001895,0,0.0,0,1,1000,num_1,0.3048541000462137,,28,11,2026-03-05_16h26.57.956,2026A_exp2,2022.2.4,59.86013082644798,
1000,1,4.9,0.0,1,0,5,5,72,,,,,60.877626300032716,61.52830820000963,61.52830820000963,62.01272639998933,45,315,62.01272639998933,62.01272639998933,62.01272639998933,62.01272639998933,62.01272639998933,62.01272639998933,62.01272639998933,62.01272639998933,62.01272639998933,62.37911300000269,62.37911300000269,62.37911300000269,62.37911300000269,62.37911300000269,62.37911300000269,62.37911300000269,62.37911300000269,62.37911300000269,0,1,[0.0012185000232420862],[0.3671242999844253],62.37911300000269,62.58151990000624,1000,62.58151990000624,1000,1000,1000,1000,0,num_3,0.4828453999944031,,28,11,2026-03-05_16h26.57.956,2026A_exp2,2022.2.4,59.86013082644798,
1000,1,0.0,3.7,0,0,6,6,52,,,,,63.08021149999695,63.73055989999557,63.73055989999557,64.23156670003664,315,45,64.23156670003664,64.23156670003664,64.23156670003664,64.23156670003664,64.23156670003664,64.23156670003664,64.23156670003664,64.23156670003664,64.23156670003664,64.59805999998935,64.59805999998935,64.59805999998935,64.59805999998935,64.59805999998935,64.59805999998935,64.59805999998935,64.59805999998935,64.59805999998935,0,1,[0.0012120999745093286],[0.3671097999904305],64.59805999998935,64.800711399992,1000,64.800711399992,1000,1000,1000,1000,1,num_2,0.7202153000398539,,28,11,2026-03-05_16h26.57.956,2026A_exp2,2022.2.4,59.86013082644798,
1000,1,4.9,0.0,0,0,7,7,58,,,,,65.54906230000779,66.1996458999929,66.1996458999929,66.70061300002271,315,45,66.70061300002271,66.70061300002271,66.70061300002271,66.70061300002271,66.70061300002271,66.70061300002271,66.70061300002271,66.70061300002271,66.70061300002271,67.06720970000606,67.06720970000606,67.06720970000606,67.06720970000606,67.06720970000606,67.06720970000606,67.06720970000606,67.06720970000606,67.06720970000606,1,2,"[0.001242400030605495, 0.36726730002555996]","[0.35051660001045093, 0.36727190000237897]",67.06720970000606,67.26974350004457,1000,67.26974350004457,1000,1000,1000,1000,0,num_3,0.47406070004217327,,28,11,2026-03-05_16h26.57.956,2026A_exp2,2022.2.4,59.86013082644798,
1,0,6.1,4.9,1,0,8,8,35,,,,,67.76792320003733,68.41844939999282,68.41844939999282,68.91970359999686,315,45,68.91970359999686,68.91970359999686,68.91970359999686,68.91970359999686,68.91970359999686,68.91970359999686,68.91970359999686,68.91970359999686,68.91970359999686,69.28611520002596,69.28611520002596,69.28611520002596,69.28611520002596,69.28611520002596,69.28611520002596,69.28611520002596,69.28611520002596,69.28611520002596,8,4,"[0.08363320003263652, 0.23370730003807694, 0.26710340002318844, 0.3673103000037372]","[0.21710470004472882, 0.25044750003144145, 0.35060520004481077, 0.3673160000471398]",69.28611520002596,69.48626490001334,4.9,69.48626490001334,1,4.9,1,1,1000,num_4,1.0342946999589913,,28,11,2026-03-05_16h26.57.956,2026A_exp2,2022.2.4,59.86013082644798,
1,0,4.9,6.1,0,0,9,9,15,,,,,70.53727680002339,71.1880330000422,71.1880330000422,71.68914540001424,315,315,71.68914540001424,71.68914540001424,71.68914540001424,71.68914540001424,71.68914540001424,71.68914540001424,71.68914540001424,71.68914540001424,71.68914540001424,72.03879540000344,72.03879540000344,72.03879540000344,72.03879540000344,72.03879540000344,72.03879540000344,72.03879540000344,72.03879540000344,72.03879540000344,22,0,,,72.03879540000344,72.23902239999734,4.9,72.23902239999734,1,4.9,1,1,1000,num_4,0.5851678000180982,,28,11,2026-03-05_16h26.57.956,2026A_exp2,2022.2.4,59.86013082644798,
1,0,0.0,6.1,0,0,10,10,5,,,,,72.85639730002731,73.50684960000217,73.50684960000217,73.99136960000033,315,315,73.99136960000033,73.99136960000033,73.99136960000033,73.99136960000033,73.99136960000033,73.99136960000033,73.99136960000033,73.99136960000033,73.99136960000033,74.35766590002459,74.35766590002459,74.35766590002459,74.35766590002459,74.35766590002459,74.35766590002459,74.35766590002459,74.35766590002459,74.35766590002459,0,1,[0.001411000033840537],[0.367254699987825],74.35766590002459,74.55800090002595,0.0,74.55800090002595,0,0.0,0,1,1000,num_1,0.45077820000005886,,28,11,2026-03-05_16h26.57.956,2026A_exp2,2022.2.4,59.86013082644798,
1,0,0.0,4.9,0,0,11,11,71,,,,,75.02514570002677,75.67583950003609,75.67583950003609,76.17704470001627,315,45,76.17704470001627,76.17704470001627,76.17704470001627,76.17704470001627,76.17704470001627,76.17704470001627,76.17704470001627,76.17704470001627,76.17704470001627,76.52680789999431,76.52680789999431,76.52680789999431,76.52680789999431,76.52680789999431,76.52680789999431,76.52680789999431,76.52680789999431,76.52680789999431,0,1,[0.0012404999579302967],[0.3505724999704398],76.52680789999431,76.72724700003164,0.0,76.72724700003164,0,0.0,0,1,1000,num_1,0.4164932999992743,,28,11,2026-03-05_16h26.57.956,2026A_exp2,2022.2.4,59.86013082644798,
1000,1,6.1,3.7,0,0,12,12,87,,,,,77.16059230000246,77.81125410000095,77.81125410000095,78.31218730000546,315,45,78.31218730000546,78.31218730000546,78.31218730000546,78.31218730000546,78.31218730000546,78.31218730000546,78.31218730000546,78.31218730000546,78.31218730000546,78.6789221999934,78.6789221999934,78.6789221999934,78.6789221999934,78.6789221999934,78.6789221999934,78.6789221999934,78.6789221999934,78.6789221999934,0,1,[0.0012403999571688473],[0.3666483999695629],78.6789221999934,78.88091380003607,1000,78.88091380003607,1000,1000,1000,1000,1,num_2,0.519489899976179,,28,11,2026-03-05_16h26.57.956,2026A_exp2,2022.2.4,59.86013082644798,
1000,1,0.0,0.0,1,0,13,13,7,,,,,79.42938889999641,80.08014780003577,80.08014780003577,80.58125879999716,45,315,80.58125879999716,80.58125879999716,80.58125879999716,80.58125879999716,80.58125879999716,80.58125879999716,80.58125879999716,80.58125879999716,80.58125879999716,80.94778970000334,80.94778970000334,80.94778970000334,80.94778970000334,80.94778970000334,80.94778970000334,80.94778970000334,80.94778970000334,80.94778970000334,23,0,,,80.94778970000334,81.1503001000383,1000,81.1503001000383,1000,1000,1000,1000,0,num_3,0.7061725000385195,,28,11,2026-03-05_16h26.57.956,2026A_exp2,2022.2.4,59.86013082644798,
1,0,4.9,6.1,1,0,14,14,86,,,,,81.8820291000302,82.53261729999213,82.53261729999213,83.03376150003169,45,45,83.03376150003169,83.03376150003169,83.03376150003169,83.03376150003169,83.03376150003169,83.03376150003169,83.03376150003169,83.03376150003169,83.03376150003169,83.40019190002931,83.40019190002931,83.40019190002931,83.40019190002931,83.40019190002931,83.40019190002931,83.40019190002931,83.40019190002931,83.40019190002931,19,3,"[0.0012682999949902296, 0.06700209999689832, 0.18368789996020496]","[0.03365719999419525, 0.08372479997342452, 0.20044109999435022]",83.40019190002931,83.60039560002042,6.1,83.60039560002042,0,6.1,1,0,1000,num_1,1.2162498999969102,,28,11,2026-03-05_16h26.57.956,2026A_exp2,2022.2.4,59.86013082644798,
0,0,0.0,3.7,1,0,15,15,21,,,,,84.83489520003786,85.48553120001452,85.48553120001452,85.9701034000027,45,315,85.9701034000027,85.9701034000027,85.9701034000027,85.9701034000027,85.9701034000027,85.9701034000027,85.9701034000027,85.9701034000027,85.9701034000027,86.33666740002809,86.33666740002809,86.33666740002809,86.33666740002809,86.33666740002809,86.33666740002809,86.33666740002809,86.33666740002809,86.33666740002809,23,0,,,86.33666740002809,86.53651960002026,0.0,86.53651960002026,1,0.0,0,0,1000,num_4,0.7679884000099264,,28,11,2026-03-05_16h26.57.956,2026A_exp2,2022.2.4,59.86013082644798,
1,0,0.0,3.7,1,0,16,16,57,,,,,87.32063190004556,87.97137050004676,87.97137050004676,88.47259200003464,45,315,88.47259200003464,88.47259200003464,88.47259200003464,88.47259200003464,88.47259200003464,88.47259200003464,88.47259200003464,88.47259200003464,88.47259200003464,88.83897859998979,88.83897859998979,88.83897859998979,88.83897859998979,88.83897859998979,88.83897859998979,88.83897859998979,88.83897859998979,88.83897859998979,23,0,,,88.83897859998979,89.03920860000653,3.7,89.03920860000653,1,3.7,1,1,1000,num_4,0.7129206999670714,,28,11,2026-03-05_16h26.57.956,2026A_exp2,2022.2.4,59.86013082644798,
1000,1,0.0,0.0,1,0,17,17,23,,,,,89.77314579999074,90.42376080004033,90.42376080004033,90.90838440001244,315,45,90.90838440001244,90.90838440001244,90.90838440001244,90.90838440001244,90.90838440001244,90.90838440001244,90.90838440001244,90.90838440001244,90.90838440001244,91.2747609000071,91.2747609000071,91.2747609000071,91.2747609000071,91.2747609000071,91.2747609000071,91.2747609000071,91.2747609000071,91.2747609000071,21,2,"[0.21703700005309656, 0.3339505000039935]","[0.23369670001557097, 0.3506807000376284]",91.2747609000071,91.4771454000147,1000,91.4771454000147,1000,1000,1000,1000,1,num_2,0.6194074000231922,,28,11,2026-03-05_16h26.57.956,2026A_exp2,2022.2.4,59.86013082644798,
1,0,0.0,0.0,1,0,18,18,66,,,,,92.12563860003138,92.77624740003375,92.77624740003375,93.27718570001889,45,315,93.27718570001889,93.27718570001889,93.27718570001889,93.27718570001889,93.27718570001889,93.27718570001889,93.27718570001889,93.27718570001889,93.27718570001889,93.6437913000118,93.6437913000118,93.6437913000118,93.6437913000118,93.6437913000118,93.6437913000118,93.6437913000118,93.6437913000118,93.6437913000118,13,5,"[0.0012508999789133668, 0.05000089999521151, 0.08325000002514571, 0.11668269999790937, 0.2669280000263825]","[0.033453100011684, 0.0668559999903664, 0.10012419999111444, 0.18320859997766092, 0.3001542999991216]",93.6437913000118,93.84386270004325,0.0,93.84386270004325,0,0.0,0,1,1000,num_1,0.5566999000147916,,28,11,2026-03-05_16h26.57.956,2026A_exp2,2022.2.4,59.86013082644798,
0,0,0.0,0.0,1,0,19,19,8,,,,,94.42776430002414,95.0786629000213,95.0786629000213,95.56300610001199,45,315,95.56300610001199,95.56300610001199,95.56300610001199,95.56300610001199,95.56300610001199,95.56300610001199,95.56300610001199,95.56300610001199,95.56300610001199,95.92943930003094,95.92943930003094,95.92943930003094,95.92943930003094,95.92943930003094,95.92943930003094,95.92943930003094,95.92943930003094,95.92943930003094,7,1,[0.0012020999565720558],[0.2669916999875568],95.92943930003094,96.12955080001848,0.0,96.12955080001848,1,0.0,0,0,1000,num_4,0.7755663999705575,,28,11,2026-03-05_16h26.57.956,2026A_exp2,2022.2.4,59.86013082644798,
0,0,0.0,6.1,1,0,20,20,76,,,,,96.93038590002107,97.58096280001337,97.58096280001337,98.08225199999288,45,45,98.08225199999288,98.08225199999288,98.08225199999288,98.08225199999288,98.08225199999288,98.08225199999288,98.08225199999288,98.08225199999288,98.08225199999288,98.43191210000077,98.43191210000077,98.43191210000077,98.43191210000077,98.43191210000077,98.43191210000077,98.43191210000077,98.43191210000077,98.43191210000077,22,0,,,98.43191210000077,98.63177490001544,0.0,98.63177490001544,1,0.0,0,0,1000,num_4,0.6319600999704562,,28,11,2026-03-05_16h26.57.956,2026A_exp2,2022.2.4,59.86013082644798,
1000,1,4.9,3.7,1,0,21,21,32,,,,,99.28277410002192,99.93376410001656,99.93376410001656,100.43130870000459,315,45,100.43130870000459,100.43130870000459,100.43130870000459,100.43130870000459,100.43130870000459,100.43130870000459,100.43130870000459,100.43130870000459,100.43130870000459,100.7842520000413,100.7842520000413,100.7842520000413,100.7842520000413,100.7842520000413,100.7842520000413,100.7842520000413,100.7842520000413,100.7842520000413,14,5,"[0.030615199997555465, 0.13110120000783354, 0.23094889998901635, 0.29769979999400675, 0.33107050001854077]","[0.04931209998903796, 0.1811831999802962, 0.24769829999422655, 0.3145284000202082, 0.3643790999776684]",100.7842520000413,100.98622920003254,1000,100.98622920003254,1000,1000,1000,1000,0,num_3,0.5101903000031598,,28,11,2026-03-05_16h26.57.956,2026A_exp2,2022.2.4,59.86013082644798,
1000,1,0.0,0.0,0,0,22,22,69,,,,,101.51844160002656,102.16895770002156,102.16895770002156,102.67007190000731,45,45,102.67007190000731,102.67007190000731,102.67007190000731,102.67007190000731,102.67007190000731,102.67007190000731,102.67007190000731,102.67007190000731,102.67007190000731,103.03645800001686,103.03645800001686,103.03645800001686,103.03645800001686,103.03645800001686,103.03645800001686,103.03645800001686,103.03645800001686,103.03645800001686,17,5,"[0.0012443999876268208, 0.06621089996770024, 0.16643589996965602, 0.216801599948667, 0.2666522999643348]","[0.01739969995105639, 0.08321579999756068, 0.1832624999806285, 0.2502375999465585, 0.2834776999661699]",103.03645800001686,103.23668410000391,1000,103.23668410000391,1000,1000,1000,1000,1,num_2,0.2995511000044644,,28,11,2026-03-05_16h26.57.956,2026A_exp2,2022.2.4,59.86013082644798,
1000,1,0.0,4.9,0,0,23,23,11,,,,,103.5536953000119,104.20434070000192,104.20434070000192,104.70541160000721,45,315,104.70541160000721,104.70541160000721,104.70541160000721,104.70541160000721,104.70541160000721,104.70541160000721,104.70541160000721,104.70541160000721,104.70541160000721,105.07159500004491,105.07159500004491,105.07159500004491,105.07159500004491,105.07159500004491,105.07159500004491,105.07159500004491,105.07159500004491,105.07159500004491,23,0,,,105.07159500004491,105.27383449999616,1000,105.27383449999616,1000,1000,1000,1000,0,num_3,0.2298814000096172,,28,11,2026-03-05_16h26.57.956,2026A_exp2,2022.2.4,59.86013082644798,
1,0,0.0,0.0,1,0,24,24,73,,,,,105.52241390000563,106.17295350000495,106.17295350000495,106.67397390003316,315,45,106.67397390003316,106.67397390003316,106.67397390003316,106.67397390003316,106.67397390003316,106.67397390003316,106.67397390003316,106.67397390003316,106.67397390003316,107.04035890003433,107.04035890003433,107.04035890003433,107.04035890003433,107.04035890003433,107.04035890003433,107.04035890003433,107.04035890003433,107.04035890003433,23,0,,,107.04035890003433,107.24063880002359,0.0,107.24063880002359,0,0.0,0,1,1000,num_1,0.4551905000116676,,28,11,2026-03-05_16h26.57.956,2026A_exp2,2022.2.4,59.86013082644798,
1,0,0.0,0.0,1,0,25,25,70,,,,,107.72453500004485,108.3750233000028,108.3750233000028,108.87632040004246,315,315,108.87632040004246,108.87632040004246,108.87632040004246,108.87632040004246,108.87632040004246,108.87632040004246,108.87632040004246,108.87632040004246,108.87632040004246,109.22600770002464,109.22600770002464,109.22600770002464,109.22600770002464,109.22600770002464,109.22600770002464,109.22600770002464,109.22600770002464,109.22600770002464,22,0,,,109.22600770002464,109.42624709999654,0.0,109.42624709999654,1,0.0,0,0,1000,num_4,0.5737694000126794,,28,11,2026-03-05_16h26.57.956,2026A_exp2,2022.2.4,59.86013082644798,
1,0,3.7,4.9,1,0,26,26,39,,,,,110.02686730003916,110.68515800003661,110.68515800003661,111.17522999999346,315,315,111.17522999999346,111.17522999999346,111.17522999999346,111.17522999999346,111.17522999999346,111.17522999999346,111.17522999999346,111.17522999999346,111.17522999999346,111.52838170004543,111.52838170004543,111.52838170004543,111.52838170004543,111.52838170004543,111.52838170004543,111.52838170004543,111.52838170004543,111.52838170004543,23,0,,,111.52838170004543,111.72845470003085,4.9,111.72845470003085,0,4.9,1,0,1000,num_1,0.2965376000502147,,28,11,2026-03-05_16h26.57.956,2026A_exp2,2022.2.4,59.86013082644798,
1000,1,3.7,3.7,1,0,27,27,40,,,,,112.0453943000175,112.69613160000881,112.69613160000881,113.18065049999859,315,315,113.18065049999859,113.18065049999859,113.18065049999859,113.18065049999859,113.18065049999859,113.18065049999859,113.18065049999859,113.18065049999859,113.18065049999859,113.54700080002658,113.54700080002658,113.54700080002658,113.54700080002658,113.54700080002658,113.54700080002658,113.54700080002658,113.54700080002658,113.54700080002658,23,0,,,113.54700080002658,113.74942870001541,1000,113.74942870001541,1000,1000,1000,1000,0,num_3,0.5310344999888912,,28,11,2026-03-05_16h26.57.956,2026A_exp2,2022.2.4,59.86013082644798,
1,0,4.9,0.0,1,0,28,28,84,,,,,114.29779070004588,114.94836710003437,114.94836710003437,115.44936500000767,315,315,115.44936500000767,115.44936500000767,115.44936500000767,115.44936500000767,115.44936500000767,115.44936500000767,115.44936500000767,115.44936500000767,115.44936500000767,115.81597739999415,115.81597739999415,115.81597739999415,115.81597739999415,115.81597739999415,115.81597739999415,115.81597739999415,115.81597739999415,115.81597739999415,23,0,,,115.81597739999415,116.01592999999411,0.0,116.01592999999411,0,0.0,0,1,1000,num_1,0.7528712000348605,,28,11,2026-03-05_16h26.57.956,2026A_exp2,2022.2.4,59.86013082644798,
1000,1,6.1,3.7,1,0,29,29,10,,,,,116.80019919999177,117.4506992000388,117.4506992000388,117.93525310000405,45,45,117.93525310000405,117.93525310000405,117.93525310000405,117.93525310000405,117.93525310000405,117.93525310000405,117.93525310000405,117.93525310000405,117.93525310000405,118.3018102000351,118.3018102000351,118.3018102000351,118.3018102000351,118.3018102000351,118.3018102000351,118.3018102000351,118.3018102000351,118.3018102000351,18,1,[0.001261600002180785],[0.08348949998617172],118.3018102000351,118.50382720003836,1000,118.50382720003836,1000,1000,1000,1000,1,num_2,0.6408898999798112,,28,11,2026-03-05_16h26.57.956,2026A_exp2,2022.2.4,59.86013082644798,
1000,1,0.0,0.0,1,0,30,30,47,,,,,119.1693205999909,119.81988860003185,119.81988860003185,120.3209782000049,315,45,120.3209782000049,120.3209782000049,120.3209782000049,120.3209782000049,120.3209782000049,120.3209782000049,120.3209782000049,120.3209782000049,120.3209782000049,120.68758319999324,120.68758319999324,120.68758319999324,120.68758319999324,120.68758319999324,120.68758319999324,120.68758319999324,120.68758319999324,120.68758319999324,9,1,[0.0012827999889850616],[0.23376259999349713],120.68758319999324,120.89002370001981,1000,120.89002370001981,1000,1000,1000,1000,1,num_2,0.5497022999916226,,28,11,2026-03-05_16h26.57.956,2026A_exp2,2022.2.4,59.86013082644798,
0,0,4.9,0.0,0,0,31,31,30,,,,,121.47176680003759,122.12230340001406,122.12230340001406,122.60664280003402,315,45,122.60664280003402,122.60664280003402,122.60664280003402,122.60664280003402,122.60664280003402,122.60664280003402,122.60664280003402,122.60664280003402,122.60664280003402,122.9731486000237,122.9731486000237,122.9731486000237,122.9731486000237,122.9731486000237,122.9731486000237,122.9731486000237,122.9731486000237,122.9731486000237,23,0,,,122.9731486000237,123.17324319999898,0.0,123.17324319999898,0,0.0,0,1,1000,num_1,0.5396202999982052,,28,11,2026-03-05_16h26.57.956,2026A_exp2,2022.2.4,59.86013082644798,
1,0,0.0,0.0,0,0,32,32,49,,,,,123.74053589999676,124.39112400001613,124.39112400001613,124.875664399995,45,45,124.875664399995,124.875664399995,124.875664399995,124.875664399995,124.875664399995,124.875664399995,124.875664399995,124.875664399995,124.875664399995,125.24204560002545,125.24204560002545,125.24204560002545,125.24204560002545,125.24204560002545,125.24204560002545,125.24204560002545,125.24204560002545,125.24204560002545,23,0,,,125.24204560002545,125.44224020000547,0.0,125.44224020000547,1,0.0,0,0,1000,num_4,1.3417239999980666,,28,11,2026-03-05_16h26.57.956,2026A_exp2,2022.2.4,59.86013082644798,
1,0,0.0,3.7,0,0,33,33,12,,,,,126.81019009999,127.4609476000187,127.4609476000187,127.94534390000626,315,315,127.94534390000626,127.94534390000626,127.94534390000626,127.94534390000626,127.94534390000626,127.94534390000626,127.94534390000626,127.94534390000626,127.94534390000626,128.31170530000236,128.31170530000236,128.31170530000236,128.31170530000236,128.31170530000236,128.31170530000236,128.31170530000236,128.31170530000236,128.31170530000236,23,0,,,128.31170530000236,128.51198690000456,0.0,128.51198690000456,0,0.0,0,1,1000,num_1,0.6883316999883391,,28,11,2026-03-05_16h26.57.956,2026A_exp2,2022.2.4,59.86013082644798,
1,0,4.9,0.0,1,0,34,34,4,,,,,129.22939930000575,129.88005820004037,129.88005820004037,130.364423800027,315,315,130.364423800027,130.364423800027,130.364423800027,130.364423800027,130.364423800027,130.364423800027,130.364423800027,130.364423800027,130.364423800027,130.73075380001683,130.73075380001683,130.73075380001683,130.73075380001683,130.73075380001683,130.73075380001683,130.73075380001683,130.73075380001683,130.73075380001683,23,0,,,130.73075380001683,130.93110000004526,0.0,130.93110000004526,1,0.0,0,0,1000,num_4,0.5333336000330746,,28,11,2026-03-05_16h26.57.956,2026A_exp2,2022.2.4,59.86013082644798,
1000,1,3.7,0.0,1,0,35,35,55,,,,,131.4815774000017,132.13217669998994,132.13217669998994,132.6165836,45,45,132.6165836,132.6165836,132.6165836,132.6165836,132.6165836,132.6165836,132.6165836,132.6165836,132.6165836,132.9829228000017,132.9829228000017,132.9829228000017,132.9829228000017,132.9829228000017,132.9829228000017,132.9829228000017,132.9829228000017,132.9829228000017,21,1,[0.017128500039689243],[0.05004659999394789],132.9829228000017,133.18545670004096,1000,133.18545670004096,1000,1000,1000,1000,0,num_3,0.4868646999821067,,28,11,2026-03-05_16h26.57.956,2026A_exp2,2022.2.4,59.86013082644798,
0,0,3.7,0.0,1,0,36,36,83,,,,,133.70051880000392,134.35105659998953,134.35105659998953,134.8522721999907,315,45,134.8522721999907,134.8522721999907,134.8522721999907,134.8522721999907,134.8522721999907,134.8522721999907,134.8522721999907,134.8522721999907,134.8522721999907,135.2184438999975,135.2184438999975,135.2184438999975,135.2184438999975,135.2184438999975,135.2184438999975,135.2184438999975,135.2184438999975,135.2184438999975,9,3,"[0.001204199972562492, 0.26729300001170486, 0.33383219997631386]","[0.15044409997062758, 0.30051549995550886, 0.3672293999698013]",135.2184438999975,135.41887400002452,3.7,135.41887400002452,0,3.7,1,0,1000,num_1,1.2303939999546856,,28,11,2026-03-05_16h26.57.956,2026A_exp2,2022.2.4,59.86013082644798,
1000,1,4.9,4.9,0,0,37,37,31,,,,,136.67068909999216,137.32075150002493,137.32075150002493,137.82195080001839,45,45,137.82195080001839,137.82195080001839,137.82195080001839,137.82195080001839,137.82195080001839,137.82195080001839,137.82195080001839,137.82195080001839,137.82195080001839,138.18815390003147,138.18815390003147,138.18815390003147,138.18815390003147,138.18815390003147,138.18815390003147,138.18815390003147,138.18815390003147,138.18815390003147,23,0,,,138.18815390003147,138.39307039999403,1000,138.39307039999403,1000,1000,1000,1000,0,num_3,0.583119600021746,,28,11,2026-03-05_16h26.57.956,2026A_exp2,2022.2.4,59.86013082644798,
1000,1,0.0,0.0,0,0,38,38,20,,,,,139.00587580003776,139.65651719999732,139.65651719999732,140.15754300000845,315,45,140.15754300000845,140.15754300000845,140.15754300000845,140.15754300000845,140.15754300000845,140.15754300000845,140.15754300000845,140.15754300000845,140.15754300000845,140.52386419998948,140.52386419998948,140.52386419998948,140.52386419998948,140.52386419998948,140.52386419998948,140.52386419998948,140.52386419998948,140.52386419998948,23,0,,,140.52386419998948,140.72598560003098,1000,140.72598560003098,1000,1000,1000,1000,1,num_2,0.42715229996247217,,28,11,2026-03-05_16h26.57.956,2026A_exp2,2022.2.4,59.86013082644798,
1000,1,3.7,0.0,1,0,39,39,79,,,,,141.17462030000752,141.82533200003672,141.82533200003672,142.32600570004433,45,315,142.32600570004433,142.32600570004433,142.32600570004433,142.32600570004433,142.32600570004433,142.32600570004433,142.32600570004433,142.32600570004433,142.32600570004433,142.6928080000216,142.6928080000216,142.6928080000216,142.6928080000216,142.6928080000216,142.6928080000216,142.6928080000216,142.6928080000216,142.6928080000216,23,0,,,142.6928080000216,142.89477380004246,1000,142.89477380004246,1000,1000,1000,1000,1,num_2,1.0011094000074081,,28,11,2026-03-05_16h26.57.956,2026A_exp2,2022.2.4,59.86013082644798,
1,0,4.9,4.9,0,0,40,40,63,,,,,143.92732810002053,144.57804880000185,144.57804880000185,145.06237110000802,45,45,145.06237110000802,145.06237110000802,145.06237110000802,145.06237110000802,145.06237110000802,145.06237110000802,145.06237110000802,145.06237110000802,145.06237110000802,145.428833700018,145.428833700018,145.428833700018,145.428833700018,145.428833700018,145.428833700018,145.428833700018,145.428833700018,145.428833700018,5,1,[0.0012422000290825963],[0.3003650000318885],145.428833700018,145.62903250003,4.9,145.62903250003,0,4.9,1,0,1000,num_1,0.6507910000509582,,28,11,2026-03-05_16h26.57.956,2026A_exp2,2022.2.4,59.86013082644798,
1000,1,4.9,6.1,1,0,41,41,1,,,,,146.2966393000097,146.9471024000086,146.9471024000086,147.43149889999768,45,45,147.43149889999768,147.43149889999768,147.43149889999768,147.43149889999768,147.43149889999768,147.43149889999768,147.43149889999768,147.43149889999768,147.43149889999768,147.79801770002814,147.79801770002814,147.79801770002814,147.79801770002814,147.79801770002814,147.79801770002814,147.79801770002814,147.79801770002814,147.79801770002814,23,0,,,147.79801770002814,148.0001842000056,1000,148.0001842000056,1000,1000,1000,1000,1,num_2,1.04093279998051,,28,11,2026-03-05_16h26.57.956,2026A_exp2,2022.2.4,59.86013082644798,
1000,1,0.0,3.7,0,0,42,42,44,,,,,149.06586229999084,149.71643269999186,149.71643269999186,150.21754919999512,315,45,150.21754919999512,150.21754919999512,150.21754919999512,150.21754919999512,150.21754919999512,150.21754919999512,150.21754919999512,150.21754919999512,150.21754919999512,150.5839888000046,150.5839888000046,150.5839888000046,150.5839888000046,150.5839888000046,150.5839888000046,150.5839888000046,150.5839888000046,150.5839888000046,23,0,,,150.5839888000046,150.78604640002595,1000,150.78604640002595,1000,1000,1000,1000,0,num_3,1.191111300024204,,28,11,2026-03-05_16h26.57.956,2026A_exp2,2022.2.4,59.86013082644798,
1,0,0.0,0.0,0,0,43,43,38,,,,,152.00214930000948,152.65278070000932,152.65278070000932,153.1540699999896,45,315,153.1540699999896,153.1540699999896,153.1540699999896,153.1540699999896,153.1540699999896,153.1540699999896,153.1540699999896,153.1540699999896,153.1540699999896,153.5203152000322,153.5203152000322,153.5203152000322,153.5203152000322,153.5203152000322,153.5203152000322,153.5203152000322,153.5203152000322,153.5203152000322,23,0,,,153.5203152000322,153.72046929999487,0.0,153.72046929999487,1,0.0,0,0,1000,num_4,0.7361164999892935,,28,11,2026-03-05_16h26.57.956,2026A_exp2,2022.2.4,59.86013082644798,
1000,1,6.1,3.7,1,0,44,44,0,,,,,154.48794459999772,155.138600700011,155.138600700011,155.62309410003945,45,45,155.62309410003945,155.62309410003945,155.62309410003945,155.62309410003945,155.62309410003945,155.62309410003945,155.62309410003945,155.62309410003945,155.62309410003945,155.9893604000099,155.9893604000099,155.9893604000099,155.9893604000099,155.9893604000099,155.9893604000099,155.9893604000099,155.9893604000099,155.9893604000099,23,0,,,155.9893604000099,156.19141440000385,1000,156.19141440000385,1000,1000,1000,1000,1,num_2,0.664357999979984,,28,11,2026-03-05_16h26.57.956,2026A_exp2,2022.2.4,59.86013082644798,
1,0,4.9,6.1,1,0,45,45,46,,,,,156.87376760004554,157.52429850003682,157.52429850003682,158.00860040000407,315,315,158.00860040000407,158.00860040000407,158.00860040000407,158.00860040000407,158.00860040000407,158.00860040000407,158.00860040000407,158.00860040000407,158.00860040000407,158.37509570003022,158.37509570003022,158.37509570003022,158.37509570003022,158.37509570003022,158.37509570003022,158.37509570003022,158.37509570003022,158.37509570003022,23,0,,,158.37509570003022,158.575409400044,6.1,158.575409400044,0,6.1,1,0,1000,num_1,0.5935225000139326,,28,11,2026-03-05_16h26.57.956,2026A_exp2,2022.2.4,59.86013082644798,
1000,1,6.1,0.0,0,0,46,46,19,,,,,159.19267290004063,159.84328450000612,159.84328450000612,160.34421140002087,315,45,160.34421140002087,160.34421140002087,160.34421140002087,160.34421140002087,160.34421140002087,160.34421140002087,160.34421140002087,160.34421140002087,160.34421140002087,160.6942432000069,160.6942432000069,160.6942432000069,160.6942432000069,160.6942432000069,160.6942432000069,160.6942432000069,160.6942432000069,160.6942432000069,22,0,,,160.6942432000069,160.89650360000087,1000,160.89650360000087,1000,1000,1000,1000,0,num_3,0.9604020999977365,,28,11,2026-03-05_16h26.57.956,2026A_exp2,2022.2.4,59.86013082644798,
1000,1,0.0,0.0,1,0,47,47,29,,,,,161.87855110003147,162.53572510002414,162.53572510002414,163.03023510001367,45,45,163.03023510001367,163.03023510001367,163.03023510001367,163.03023510001367,163.03023510001367,163.03023510001367,163.03023510001367,163.03023510001367,163.03023510001367,163.39675650000572,163.39675650000572,163.39675650000572,163.39675650000572,163.39675650000572,163.39675650000572,163.39675650000572,163.39675650000572,163.39675650000572,23,0,,,163.39675650000572,163.59883740002988,1000,163.59883740002988,1000,1000,1000,1000,1,num_2,0.6968407000531442,,28,11,2026-03-05_16h26.57.956,2026A_exp2,2022.2.4,59.86013082644798,
1000,1,4.9,4.9,0,0,48,48,42,,,,,164.31434099999024,164.96500500000548,164.96500500000548,165.46612440003082,315,45,165.46612440003082,165.46612440003082,165.46612440003082,165.46612440003082,165.46612440003082,165.46612440003082,165.46612440003082,165.46612440003082,165.46612440003082,165.83256509999046,165.83256509999046,165.83256509999046,165.83256509999046,165.83256509999046,165.83256509999046,165.83256509999046,165.83256509999046,165.83256509999046,23,0,,,165.83256509999046,166.0345886000432,1000,166.0345886000432,1000,1000,1000,1000,0,num_3,1.1172729000099935,,28,11,2026-03-05_16h26.57.956,2026A_exp2,2022.2.4,59.86013082644798,
1000,1,0.0,0.0,1,0,49,49,14,,,,,167.1671773000271,167.817973600002,167.817973600002,168.3191050000023,45,315,168.3191050000023,168.3191050000023,168.3191050000023,168.3191050000023,168.3191050000023,168.3191050000023,168.3191050000023,168.3191050000023,168.3191050000023,168.68546040001092,168.68546040001092,168.68546040001092,168.68546040001092,168.68546040001092,168.68546040001092,168.68546040001092,168.68546040001092,168.68546040001092,23,0,,,168.68546040001092,168.88754240004346,1000,168.88754240004346,1000,1000,1000,1000,1,num_2,0.4807217000052333,,28,11,2026-03-05_16h26.57.956,2026A_exp2,2022.2.4,59.86013082644798,
1,0,0.0,4.9,1,0,50,50,45,,,,,169.3861915000016,170.03682390000904,170.03682390000904,170.53799250000156,315,315,170.53799250000156,170.53799250000156,170.53799250000156,170.53799250000156,170.53799250000156,170.53799250000156,170.53799250000156,170.53799250000156,170.53799250000156,170.9044953000266,170.9044953000266,170.9044953000266,170.9044953000266,170.9044953000266,170.9044953000266,170.9044953000266,170.9044953000266,170.9044953000266,23,0,,,170.9044953000266,171.11436140001751,4.9,171.11436140001751,0,4.9,1,0,1000,num_1,0.5346378000103869,,28,11,2026-03-05_16h26.57.956,2026A_exp2,2022.2.4,59.86013082644798,
0,0,0.0,4.9,1,0,51,51,56,,,,,171.6717622000142,172.32248989999061,172.32248989999061,172.80691530002514,315,315,172.80691530002514,172.80691530002514,172.80691530002514,172.80691530002514,172.80691530002514,172.80691530002514,172.80691530002514,172.80691530002514,172.80691530002514,173.1732275999966,173.1732275999966,173.1732275999966,173.1732275999966,173.1732275999966,173.1732275999966,173.1732275999966,173.1732275999966,173.1732275999966,23,0,,,173.1732275999966,173.37336319999304,0.0,173.38992220000364,1,0.0,0,0,1000,num_4,1.411206700024195,,28,11,2026-03-05_16h26.57.956,2026A_exp2,2022.2.4,59.86013082644798,
1000,1,4.9,3.7,1,0,52,52,67,,,,,174.82502250000834,175.47535880003124,175.47535880003124,175.97675070003606,45,315,175.97675070003606,175.97675070003606,175.97675070003606,175.97675070003606,175.97675070003606,175.97675070003606,175.97675070003606,175.97675070003606,175.97675070003606,176.32642580004176,176.32642580004176,176.32642580004176,176.32642580004176,176.32642580004176,176.32642580004176,176.32642580004176,176.32642580004176,176.32642580004176,22,0,,,176.32642580004176,176.5284793000319,1000,176.5284793000319,1000,1000,1000,1000,1,num_2,0.6566441000322811,,28,11,2026-03-05_16h26.57.956,2026A_exp2,2022.2.4,59.86013082644798,
1000,1,6.1,4.9,1,0,53,53,16,,,,,177.21065439999802,177.86131559999194,177.86131559999194,178.3623998000403,45,315,178.3623998000403,178.3623998000403,178.3623998000403,178.3623998000403,178.3623998000403,178.3623998000403,178.3623998000403,178.3623998000403,178.3623998000403,178.72884900000645,178.72884900000645,178.72884900000645,178.72884900000645,178.72884900000645,178.72884900000645,178.72884900000645,178.72884900000645,178.72884900000645,11,2,"[0.03342320001684129, 0.1336198999779299]","[0.06644399999640882, 0.3005021999706514]",178.72884900000645,178.93094910000218,1000,178.93094910000218,1000,1000,1000,1000,0,num_3,0.5971119999885559,,28,11,2026-03-05_16h26.57.956,2026A_exp2,2022.2.4,59.86013082644798,
1000,1,6.1,3.7,1,0,54,54,24,,,,,179.5462858999963,180.1970020000008,180.1970020000008,180.6981725000078,45,315,180.6981725000078,180.6981725000078,180.6981725000078,180.6981725000078,180.6981725000078,180.6981725000078,180.6981725000078,180.6981725000078,180.6981725000078,181.06449100002646,181.06449100002646,181.06449100002646,181.06449100002646,181.06449100002646,181.06449100002646,181.06449100002646,181.06449100002646,181.06449100002646,23,0,,,181.06449100002646,181.2666498000035,1000,181.2666498000035,1000,1000,1000,1000,1,num_2,0.47763670003041625,,28,11,2026-03-05_16h26.57.956,2026A_exp2,2022.2.4,59.86013082644798,
1,0,0.0,4.9,0,0,55,55,85,,,,,181.76515270001255,182.41581870004302,182.41581870004302,182.90026700001908,315,45,182.90026700001908,182.90026700001908,182.90026700001908,182.90026700001908,182.90026700001908,182.90026700001908,182.90026700001908,182.90026700001908,182.90026700001908,183.2667590000201,183.2667590000201,183.2667590000201,183.2667590000201,183.2667590000201,183.2667590000201,183.2667590000201,183.2667590000201,183.2667590000201,23,0,,,183.2667590000201,183.4668590000365,0.0,183.4668590000365,1,0.0,0,0,1000,num_4,0.4617837999830954,,28,11,2026-03-05_16h26.57.956,2026A_exp2,2022.2.4,59.86013082644798,
1,0,4.9,0.0,1,0,56,56,82,,,,,183.9507597000338,184.60133080004016,184.60133080004016,185.08579979999922,45,315,185.08579979999922,185.08579979999922,185.08579979999922,185.08579979999922,185.08579979999922,185.08579979999922,185.08579979999922,185.08579979999922,185.08579979999922,185.45220570004312,185.45220570004312,185.45220570004312,185.45220570004312,185.45220570004312,185.45220570004312,185.45220570004312,185.45220570004312,185.45220570004312,23,0,,,185.45220570004312,185.6523321000277,0.0,185.6523321000277,1,0.0,0,0,1000,num_4,0.5159831999917515,,28,11,2026-03-05_16h26.57.956,2026A_exp2,2022.2.4,59.86013082644798,
1000,1,0.0,4.9,0,0,57,57,77,,,,,186.18625130003784,186.83696600003168,186.83696600003168,187.32145019999007,315,315,187.32145019999007,187.32145019999007,187.32145019999007,187.32145019999007,187.32145019999007,187.32145019999007,187.32145019999007,187.32145019999007,187.32145019999007,187.68782660004217,187.68782660004217,187.68782660004217,187.68782660004217,187.68782660004217,187.68782660004217,187.68782660004217,187.68782660004217,187.68782660004217,23,0,,,187.68782660004217,187.88946520001628,1000,187.88946520001628,1000,1000,1000,1000,0,num_3,0.6229469000245444,,28,11,2026-03-05_16h26.57.956,2026A_exp2,2022.2.4,59.86013082644798,
0,0,0.0,4.9,0,0,58,58,54,,,,,188.53879080002662,189.18924159999005,189.18924159999005,189.69039649999468,315,315,189.69039649999468,189.69039649999468,189.69039649999468,189.69039649999468,189.69039649999468,189.69039649999468,189.69039649999468,189.69039649999468,189.69039649999468,190.05675230000634,190.05675230000634,190.05675230000634,190.05675230000634,190.05675230000634,190.05675230000634,190.05675230000634,190.05675230000634,190.05675230000634,23,0,,,190.05675230000634,190.2570534000406,4.9,190.2570534000406,1,4.9,1,1,1000,num_4,0.5993018000153825,,28,11,2026-03-05_16h26.57.956,2026A_exp2,2022.2.4,59.86013082644798,
1,0,4.9,4.9,1,0,59,59,89,,,,,190.87427700002445,191.5250711000408,191.5250711000408,192.02599210001063,315,45,192.02599210001063,192.02599210001063,192.02599210001063,192.02599210001063,192.02599210001063,192.02599210001063,192.02599210001063,192.02599210001063,192.02599210001063,192.3758395999903,192.3758395999903,192.3758395999903,192.3758395999903,192.3758395999903,192.3758395999903,192.3758395999903,192.3758395999903,192.3758395999903,22,0,,,192.3758395999903,192.57608140003867,4.9,192.57608140003867,0,4.9,1,0,1000,num_1,0.37583690002793446,,28,11,2026-03-05_16h26.57.956,2026A_exp2,2022.2.4,59.86013082644798,
1,0,0.0,0.0,0,0,60,60,64,,,,,192.97656570002437,193.62712459999602,193.62712459999602,194.1113544999971,315,315,194.1113544999971,194.1113544999971,194.1113544999971,194.1113544999971,194.1113544999971,194.1113544999971,194.1113544999971,194.1113544999971,194.1113544999971,194.47795690002386,194.47795690002386,194.47795690002386,194.47795690002386,194.47795690002386,194.47795690002386,194.47795690002386,194.47795690002386,194.47795690002386,23,0,,,194.47795690002386,194.67798530001892,0.0,194.67798530001892,0,0.0,0,1,1000,num_1,0.6578179000061937,,28,11,2026-03-05_16h26.57.956,2026A_exp2,2022.2.4,59.86013082644798,
1000,1,0.0,6.1,1,0,61,61,88,,,,,195.36217820004094,196.01278789999196,196.01278789999196,196.49710159999086,45,315,196.49710159999086,196.49710159999086,196.49710159999086,196.49710159999086,196.49710159999086,196.49710159999086,196.49710159999086,196.49710159999086,196.49710159999086,196.86364070000127,196.86364070000127,196.86364070000127,196.86364070000127,196.86364070000127,196.86364070000127,196.86364070000127,196.86364070000127,196.86364070000127,23,0,,,196.86364070000127,197.06603640003596,1000,197.06603640003596,1000,1000,1000,1000,0,num_3,0.7108762999996543,,28,11,2026-03-05_16h26.57.956,2026A_exp2,2022.2.4,59.86013082644798,
1,0,0.0,0.0,1,0,62,62,37,,,,,197.7980438999948,198.44862949999515,198.44862949999515,198.9329309000168,315,315,198.9329309000168,198.9329309000168,198.9329309000168,198.9329309000168,198.9329309000168,198.9329309000168,198.9329309000168,198.9329309000168,198.9329309000168,199.29943030001596,199.29943030001596,199.29943030001596,199.29943030001596,199.29943030001596,199.29943030001596,199.29943030001596,199.29943030001596,199.29943030001596,23,0,,,199.29943030001596,199.4996906000306,0.0,199.4996906000306,0,0.0,0,1,1000,num_1,0.7965388000011444,,28,11,2026-03-05_16h26.57.956,2026A_exp2,2022.2.4,59.86013082644798,
1000,1,0.0,0.0,0,0,63,63,65,,,,,200.31704930000706,200.96778930001892,200.96778930001892,201.46891779999714,45,45,201.46891779999714,201.46891779999714,201.46891779999714,201.46891779999714,201.46891779999714,201.46891779999714,201.46891779999714,201.46891779999714,201.46891779999714,201.81850370002212,201.81850370002212,201.81850370002212,201.81850370002212,201.81850370002212,201.81850370002212,201.81850370002212,201.81850370002212,201.81850370002212,22,0,,,201.81850370002212,202.02061830001185,1000,202.02061830001185,1000,1000,1000,1000,0,num_3,1.7564629999687895,,28,11,2026-03-05_16h26.57.956,2026A_exp2,2022.2.4,59.86013082644798,
1,0,0.0,3.7,0,0,64,64,78,,,,,203.80386610003188,204.45443380001234,204.45443380001234,204.9557286000345,315,315,204.9557286000345,204.9557286000345,204.9557286000345,204.9557286000345,204.9557286000345,204.9557286000345,204.9557286000345,204.9557286000345,204.9557286000345,205.3221109000151,205.3221109000151,205.3221109000151,205.3221109000151,205.3221109000151,205.3221109000151,205.3221109000151,205.3221109000151,205.3221109000151,23,0,,,205.3221109000151,205.5222761000041,0.0,205.5222761000041,0,0.0,0,1,1000,num_1,0.5180592999677174,,28,11,2026-03-05_16h26.57.956,2026A_exp2,2022.2.4,59.86013082644798,
1000,1,0.0,6.1,0,0,65,65,34,,,,,206.05615120002767,206.70677829999477,206.70677829999477,207.1911540000001,45,45,207.1911540000001,207.1911540000001,207.1911540000001,207.1911540000001,207.1911540000001,207.1911540000001,207.1911540000001,207.1911540000001,207.1911540000001,207.55771429999731,207.55771429999731,207.55771429999731,207.55771429999731,207.55771429999731,207.55771429999731,207.55771429999731,207.55771429999731,207.55771429999731,23,0,,,207.55771429999731,207.75960809999378,1000,207.75960809999378,1000,1000,1000,1000,0,num_3,0.6082278999965638,,28,11,2026-03-05_16h26.57.956,2026A_exp2,2022.2.4,59.86013082644798,
1,0,0.0,6.1,0,0,66,66,68,,,,,208.39186460000928,209.04251790000126,209.04251790000126,209.5436944999965,315,315,209.5436944999965,209.5436944999965,209.5436944999965,209.5436944999965,209.5436944999965,209.5436944999965,209.5436944999965,209.5436944999965,209.5436944999965,209.90995900001144,209.90995900001144,209.90995900001144,209.90995900001144,209.90995900001144,209.90995900001144,209.90995900001144,209.90995900001144,209.90995900001144,23,0,,,209.90995900001144,210.110462200013,0.0,210.110462200013,1,0.0,0,0,1000,num_4,0.36992570001166314,,28,11,2026-03-05_16h26.57.956,2026A_exp2,2022.2.4,59.86013082644798,
1000,1,0.0,0.0,0,0,67,67,61,,,,,210.51062240003375,211.16175110003678,211.16175110003678,211.6623301000218,315,315,211.6623301000218,211.6623301000218,211.6623301000218,211.6623301000218,211.6623301000218,211.6623301000218,211.6623301000218,211.6623301000218,211.6623301000218,212.01214320003055,212.01214320003055,212.01214320003055,212.01214320003055,212.01214320003055,212.01214320003055,212.01214320003055,212.01214320003055,212.01214320003055,22,0,,,212.01214320003055,212.2144647000241,1000,212.2144647000241,1000,1000,1000,1000,1,num_2,0.4978926999610849,,28,11,2026-03-05_16h26.57.956,2026A_exp2,2022.2.4,59.86013082644798,
1,0,0.0,0.0,0,0,68,68,9,,,,,212.72970299998997,213.3800868000253,213.3800868000253,213.8811797000235,315,315,213.8811797000235,213.8811797000235,213.8811797000235,213.8811797000235,213.8811797000235,213.8811797000235,213.8811797000235,213.8811797000235,213.8811797000235,214.24765209999168,214.24765209999168,214.24765209999168,214.24765209999168,214.24765209999168,214.24765209999168,214.24765209999168,214.24765209999168,214.24765209999168,13,2,"[0.0012138999882154167, 0.18367090000538155]","[0.1335963000310585, 0.21709190000547096]",214.24765209999168,214.44777100003557,0.0,214.44777100003557,0,0.0,0,1,1000,num_1,0.9839139999821782,,28,11,2026-03-05_16h26.57.956,2026A_exp2,2022.2.4,59.86013082644798,
1,0,0.0,0.0,1,0,69,69,41,,,,,215.44894850003766,216.09960270003648,216.09960270003648,216.58399650000501,315,315,216.58399650000501,216.58399650000501,216.58399650000501,216.58399650000501,216.58399650000501,216.58399650000501,216.58399650000501,216.58399650000501,216.58399650000501,216.9503000000259,216.9503000000259,216.9503000000259,216.9503000000259,216.9503000000259,216.9503000000259,216.9503000000259,216.9503000000259,216.9503000000259,6,1,[0.0012905000476166606],[0.28352610004367307],216.9503000000259,217.1505238999962,0.0,217.1505238999962,0,0.0,0,1,1000,num_1,0.6020122999907471,,28,11,2026-03-05_16h26.57.956,2026A_exp2,2022.2.4,59.86013082644798,
1,0,6.1,0.0,1,0,70,70,13,,,,,217.78461400000378,218.4351844000048,218.4351844000048,218.9360721000121,45,315,218.9360721000121,218.9360721000121,218.9360721000121,218.9360721000121,218.9360721000121,218.9360721000121,218.9360721000121,218.9360721000121,218.9360721000121,219.2861089000362,219.2861089000362,219.2861089000362,219.2861089000362,219.2861089000362,219.2861089000362,219.2861089000362,219.2861089000362,219.2861089000362,22,0,,,219.2861089000362,219.48618880001595,0.0,219.48618880001595,1,0.0,0,0,1000,num_4,0.482062799972482,,28,11,2026-03-05_16h26.57.956,2026A_exp2,2022.2.4,59.86013082644798,
1000,1,0.0,0.0,0,0,71,71,75,,,,,219.98679430002812,220.63751730002696,220.63751730002696,221.12180379999336,45,45,221.12180379999336,221.12180379999336,221.12180379999336,221.12180379999336,221.12180379999336,221.12180379999336,221.12180379999336,221.12180379999336,221.12180379999336,221.4882510000025,221.4882510000025,221.4882510000025,221.4882510000025,221.4882510000025,221.4882510000025,221.4882510000025,221.4882510000025,221.4882510000025,23,0,,,221.4882510000025,221.69061440002406,1000,221.69061440002406,1000,1000,1000,1000,1,num_2,0.5102501999936067,,28,11,2026-03-05_16h26.57.956,2026A_exp2,2022.2.4,59.86013082644798,
1000,1,6.1,0.0,1,0,72,72,60,,,,,222.22241610003402,222.87293489999138,222.87293489999138,223.37406850000843,315,45,223.37406850000843,223.37406850000843,223.37406850000843,223.37406850000843,223.37406850000843,223.37406850000843,223.37406850000843,223.37406850000843,223.37406850000843,223.74058450001758,223.74058450001758,223.74058450001758,223.74058450001758,223.74058450001758,223.74058450001758,223.74058450001758,223.74058450001758,223.74058450001758,23,0,,,223.74058450001758,223.94240360002732,1000,223.94240360002732,1000,1000,1000,1000,0,num_3,1.0337413999950513,,28,11,2026-03-05_16h26.57.956,2026A_exp2,2022.2.4,59.86013082644798,
1,0,0.0,0.0,1,0,73,73,18,,,,,224.99182900000596,225.64260190003552,225.64260190003552,226.1435432000435,315,45,226.1435432000435,226.1435432000435,226.1435432000435,226.1435432000435,226.1435432000435,226.1435432000435,226.1435432000435,226.1435432000435,226.1435432000435,226.51006699999562,226.51006699999562,226.51006699999562,226.51006699999562,226.51006699999562,226.51006699999562,226.51006699999562,226.51006699999562,226.51006699999562,15,3,"[0.0012034000246785581, 0.13370830001076683, 0.20037900004535913]","[0.0835293999989517, 0.16702819999773055, 0.21683640003902838]",226.51006699999562,226.710106500017,0.0,226.710106500017,1,0.0,0,0,1000,num_4,0.48220609995769337,,28,11,2026-03-05_16h26.57.956,2026A_exp2,2022.2.4,59.86013082644798,
1000,1,4.9,0.0,0,0,74,74,36,,,,,227.21070729999337,227.8613325000042,227.8613325000042,228.3456788000185,45,315,228.3456788000185,228.3456788000185,228.3456788000185,228.3456788000185,228.3456788000185,228.3456788000185,228.3456788000185,228.3456788000185,228.3456788000185,228.71216380002443,228.71216380002443,228.71216380002443,228.71216380002443,228.71216380002443,228.71216380002443,228.71216380002443,228.71216380002443,228.71216380002443,23,0,,,228.71216380002443,228.91402720002225,1000,228.91402720002225,1000,1000,1000,1000,0,num_3,0.7345825000084005,,28,11,2026-03-05_16h26.57.956,2026A_exp2,2022.2.4,59.86013082644798,
0,0,3.7,4.9,1,0,75,75,3,,,,,229.67990000004647,230.33039100002497,230.33039100002497,230.83163200004492,315,315,230.83163200004492,230.83163200004492,230.83163200004492,230.83163200004492,230.83163200004492,230.83163200004492,230.83163200004492,230.83163200004492,230.83163200004492,231.19789290003246,231.19789290003246,231.19789290003246,231.19789290003246,231.19789290003246,231.19789290003246,231.19789290003246,231.19789290003246,231.19789290003246,23,0,,,231.19789290003246,231.39802439999767,3.7,231.39802439999767,1,3.7,1,1,1000,num_4,0.40176909998990595,,28,11,2026-03-05_16h26.57.956,2026A_exp2,2022.2.4,59.86013082644798,
1,0,0.0,0.0,0,0,76,76,81,,,,,231.8319557000068,232.48259460000554,232.48259460000554,232.9669833999942,315,45,232.9669833999942,232.9669833999942,232.9669833999942,232.9669833999942,232.9669833999942,232.9669833999942,232.9669833999942,232.9669833999942,232.9669833999942,233.33341850002762,233.33341850002762,233.33341850002762,233.33341850002762,233.33341850002762,233.33341850002762,233.33341850002762,233.33341850002762,233.33341850002762,23,0,,,233.33341850002762,233.53382499999134,0.0,233.53382499999134,1,0.0,0,0,1000,num_4,0.5625059999874793,,28,11,2026-03-05_16h26.57.956,2026A_exp2,2022.2.4,59.86013082644798,
1,0,6.1,0.0,0,0,77,77,50,,,,,234.11754450004082,234.76811770000495,234.76811770000495,235.25268340000184,315,45,235.25268340000184,235.25268340000184,235.25268340000184,235.25268340000184,235.25268340000184,235.25268340000184,235.25268340000184,235.25268340000184,235.25268340000184,235.61912370001664,235.61912370001664,235.61912370001664,235.61912370001664,235.61912370001664,235.61912370001664,235.61912370001664,235.61912370001664,235.61912370001664,23,0,,,235.61912370001664,235.81914969999343,6.1,235.81914969999343,0,6.1,1,0,1000,num_1,0.6861692999955267,,28,11,2026-03-05_16h26.57.956,2026A_exp2,2022.2.4,59.86013082644798,
1,0,4.9,0.0,0,0,78,78,48,,,,,236.5365684000426,237.18726830004016,237.18726830004016,237.67180910002207,45,315,237.67180910002207,237.67180910002207,237.67180910002207,237.67180910002207,237.67180910002207,237.67180910002207,237.67180910002207,237.67180910002207,237.67180910002207,238.0381875000312,238.0381875000312,238.0381875000312,238.0381875000312,238.0381875000312,238.0381875000312,238.0381875000312,238.0381875000312,238.0381875000312,23,0,,,238.0381875000312,238.2384419000009,4.9,238.2384419000009,1,4.9,1,1,1000,num_4,0.5215830000233836,,28,11,2026-03-05_16h26.57.956,2026A_exp2,2022.2.4,59.86013082644798,
1000,1,0.0,3.7,1,0,79,79,80,,,,,238.78891540004406,239.43958619999466,239.43958619999466,239.9240376999951,315,315,239.9240376999951,239.9240376999951,239.9240376999951,239.9240376999951,239.9240376999951,239.9240376999951,239.9240376999951,239.9240376999951,239.9240376999951,240.29040719999466,240.29040719999466,240.29040719999466,240.29040719999466,240.29040719999466,240.29040719999466,240.29040719999466,240.29040719999466,240.29040719999466,23,0,,,240.29040719999466,240.49275580001995,1000,240.49275580001995,1000,1000,1000,1000,0,num_3,0.49129539995919913,,28,11,2026-03-05_16h26.57.956,2026A_exp2,2022.2.4,59.86013082644798,
1,0,0.0,0.0,0,0,80,80,2,,,,,241.00791350001236,241.65843800001312,241.65843800001312,242.1594797000289,45,45,242.1594797000289,242.1594797000289,242.1594797000289,242.1594797000289,242.1594797000289,242.1594797000289,242.1594797000289,242.1594797000289,242.1594797000289,242.5259536000085,242.5259536000085,242.5259536000085,242.5259536000085,242.5259536000085,242.5259536000085,242.5259536000085,242.5259536000085,242.5259536000085,23,0,,,242.5259536000085,242.72614149999572,0.0,242.72614149999572,0,0.0,0,1,1000,num_1,0.5067571999970824,,28,11,2026-03-05_16h26.57.956,2026A_exp2,2022.2.4,59.86013082644798,
1000,1,4.9,0.0,0,0,81,81,22,,,,,243.2601519000018,243.9107868000283,243.9107868000283,244.39502039999934,45,315,244.39502039999934,244.39502039999934,244.39502039999934,244.39502039999934,244.39502039999934,244.39502039999934,244.39502039999934,244.39502039999934,244.39502039999934,244.7615379000199,244.7615379000199,244.7615379000199,244.7615379000199,244.7615379000199,244.7615379000199,244.7615379000199,244.7615379000199,244.7615379000199,23,0,,,244.7615379000199,244.96350539999548,1000,244.96350539999548,1000,1000,1000,1000,1,num_2,0.4604842000408098,,28,11,2026-03-05_16h26.57.956,2026A_exp2,2022.2.4,59.86013082644798,
1,0,0.0,4.9,0,0,82,82,17,,,,,245.4456315000425,246.09627590002492,246.09627590002492,246.59717600001022,45,315,246.59717600001022,246.59717600001022,246.59717600001022,246.59717600001022,246.59717600001022,246.59717600001022,246.59717600001022,246.59717600001022,246.59717600001022,246.96377690002555,246.96377690002555,246.96377690002555,246.96377690002555,246.96377690002555,246.96377690002555,246.96377690002555,246.96377690002555,246.96377690002555,23,0,,,246.96377690002555,247.16398509999271,0.0,247.16398509999271,0,0.0,0,1,1000,num_1,0.3802030000369996,,28,11,2026-03-05_16h26.57.956,2026A_exp2,2022.2.4,59.86013082644798,
1,0,6.1,3.7,0,0,83,83,26,,,,,247.5643525000196,248.21503379999194,248.21503379999194,248.6993375000311,45,315,248.6993375000311,248.6993375000311,248.6993375000311,248.6993375000311,248.6993375000311,248.6993375000311,248.6993375000311,248.6993375000311,248.6993375000311,249.0657892000163,249.0657892000163,249.0657892000163,249.0657892000163,249.0657892000163,249.0657892000163,249.0657892000163,249.0657892000163,249.0657892000163,23,0,,,249.0657892000163,249.26607579999836,6.1,249.26607579999836,0,6.1,1,0,1000,num_1,0.4792713000206277,,28,11,2026-03-05_16h26.57.956,2026A_exp2,2022.2.4,59.86013082644798,
1000,1,4.9,0.0,1,0,84,84,25,,,,,249.7700622000266,250.41722810000647,250.41722810000647,250.91835069999797,315,315,250.91835069999797,250.91835069999797,250.91835069999797,250.91835069999797,250.91835069999797,250.91835069999797,250.91835069999797,250.91835069999797,250.91835069999797,251.28475310001522,251.28475310001522,251.28475310001522,251.28475310001522,251.28475310001522,251.28475310001522,251.28475310001522,251.28475310001522,251.28475310001522,23,0,,,251.28475310001522,251.48654610000085,1000,251.48654610000085,1000,1000,1000,1000,0,num_3,0.3932807000237517,,28,11,2026-03-05_16h26.57.956,2026A_exp2,2022.2.4,59.86013082644798,
1,0,0.0,0.0,1,0,85,85,43,,,,,251.90215030004038,252.55269250000129,252.55269250000129,253.05381840001792,315,45,253.05381840001792,253.05381840001792,253.05381840001792,253.05381840001792,253.05381840001792,253.05381840001792,253.05381840001792,253.05381840001792,253.05381840001792,253.42017430003034,253.42017430003034,253.42017430003034,253.42017430003034,253.42017430003034,253.42017430003034,253.42017430003034,253.42017430003034,253.42017430003034,23,0,,,253.42017430003034,253.62032340001315,0.0,253.62032340001315,1,0.0,0,0,1000,num_4,0.20414469996467233,,28,11,2026-03-05_16h26.57.956,2026A_exp2,2022.2.4,59.86013082644798,
1000,1,0.0,4.9,1,0,86,86,51,,,,,253.85374759999104,254.48782080004457,254.48782080004457,254.98892950004665,45,315,254.98892950004665,254.98892950004665,254.98892950004665,254.98892950004665,254.98892950004665,254.98892950004665,254.98892950004665,254.98892950004665,254.98892950004665,255.3556100000278,255.3556100000278,255.3556100000278,255.3556100000278,255.3556100000278,255.3556100000278,255.3556100000278,255.3556100000278,255.3556100000278,23,0,,,255.3556100000278,255.55801740003517,1000,255.55801740003517,1000,1000,1000,1000,0,num_3,0.5147423999733292,,28,11,2026-03-05_16h26.57.956,2026A_exp2,2022.2.4,59.86013082644798,
1,0,0.0,0.0,0,0,87,87,59,,,,,256.0895909999963,256.74021740001626,256.74021740001626,257.2412274000235,315,315,257.2412274000235,257.2412274000235,257.2412274000235,257.2412274000235,257.2412274000235,257.2412274000235,257.2412274000235,257.2412274000235,257.2412274000235,257.6077600000426,257.6077600000426,257.6077600000426,257.6077600000426,257.6077600000426,257.6077600000426,257.6077600000426,257.6077600000426,257.6077600000426,23,0,,,257.6077600000426,257.80787000001874,0.0,257.80787000001874,0,0.0,0,1,1000,num_1,0.6245102000539191,,28,11,2026-03-05_16h26.57.956,2026A_exp2,2022.2.4,59.86013082644798,
1000,1,3.7,6.1,0,0,88,88,28,,,,,258.45860310003627,259.1092447999981,259.1092447999981,259.59351620002417,45,315,259.59351620002417,259.59351620002417,259.59351620002417,259.59351620002417,259.59351620002417,259.59351620002417,259.59351620002417,259.59351620002417,259.59351620002417,259.96011380001437,259.96011380001437,259.96011380001437,259.96011380001437,259.96011380001437,259.96011380001437,259.96011380001437,259.96011380001437,259.96011380001437,23,0,,,259.96011380001437,260.16196050000144,1000,260.16196050000144,1000,1000,1000,1000,0,num_3,0.9017495000152849,,28,11,2026-03-05_16h26.57.956,2026A_exp2,2022.2.4,59.86013082644798,
1000,1,6.1,0.0,0,0,89,89,33,,,,,261.0951933999895,261.745105900045,261.745105900045,262.2293986000004,315,315,262.2293986000004,262.2293986000004,262.2293986000004,262.2293986000004,262.2293986000004,262.2293986000004,262.2293986000004,262.2293986000004,262.2293986000004,262.5958961000433,262.5958961000433,262.5958961000433,262.5958961000433,262.5958961000433,262.5958961000433,262.5958961000433,262.5958961000433,262.5958961000433,5,2,"[0.0007345000049099326, 0.31815730000380427]","[0.2667815999593586, 0.3508886999916285]",262.5958961000433,262.79720610001823,1000,262.79720610001823,1000,1000,1000,1000,1,num_2,0.6590845999890007,,28,11,2026-03-05_16h26.57.956,2026A_exp2,2022.2.4,59.86013082644798,
,,,,,,,,,,,,,,,,,,,,,,,,,,,,,,,,,,,,,,,,,,,,,,,,,,,,263.48396640003193,,,,,,,
