validity,detectorcomp,contrastCW,contrastCCW,precueCWorCCW,block_80trials.thisRepN,block_80trials.thisTrialN,block_80trials.thisN,block_80trials.thisIndex,etRecord.started,etRecord.stopped,text.started,text.stopped,text_4.started,text_4.stopped,text_6.started,text_6.stopped,oriCW,oriCCW,roi_2.started,grating_UR.started,grating_UL.started,grating_LR.started,grating_LL.started,noise_UR.started,noise_UL.started,noise_LR.started,noise_LL.started,roi_2.stopped,grating_UR.stopped,grating_UL.stopped,grating_LR.stopped,grating_LL.stopped,noise_UR.stopped,noise_UL.stopped,noise_LR.stopped,noise_LL.stopped,outframe,roi_2.numLooks,roi_2.timesOn,roi_2.timesOff,text_2.started,text_2.stopped,probedcontrast,key_resp.started,respdetect,relevantContrast,correctDetect,TorFdetect,respCWorCCW,key_resp.keys,key_resp.rt,feedback_display_.started,participantNo,blockNo,date,expName,psychopyVersion,frameRate,
1,0,0.0,3.7,0,0,0,0,2,3.520003519952297e-05,3.520003519952297e-05,49.9406377999112,51.94462309987284,51.94462309987284,52.576935400022194,52.576935400022194,53.10967959999107,315,315,53.10967959999107,53.10967959999107,53.10967959999107,53.10967959999107,53.10967959999107,53.10967959999107,53.10967959999107,53.10967959999107,53.10967959999107,53.444505400024354,53.444505400024354,53.444505400024354,53.444505400024354,53.444505400024354,53.444505400024354,53.444505400024354,53.444505400024354,53.444505400024354,0,1,[0.0012481999583542347],[0.3657905999571085],53.444505400024354,53.645387899829075,0.0,53.645387899829075,0,0.0,0,1,1000,num_1,0.8572749001905322,,33,8,2026-03-12_17h53.54.207,2026A_exp2,2022.2.4,59.956243921078084,
1000,1,6.1,0.0,1,0,1,1,79,,,,,54.52914040000178,55.18010209989734,55.18010209989734,55.68067509983666,45,45,55.68067509983666,55.68067509983666,55.68067509983666,55.68067509983666,55.68067509983666,55.68067509983666,55.68067509983666,55.68067509983666,55.68067509983666,56.04700649995357,56.04700649995357,56.04700649995357,56.04700649995357,56.04700649995357,56.04700649995357,56.04700649995357,56.04700649995357,56.04700649995357,0,1,[0.0007596001960337162],[0.36714850016869605],56.04700649995357,56.24870839994401,1000,56.24870839994401,1000,1000,1000,1000,0,num_3,0.5102301000151783,,33,8,2026-03-12_17h53.54.207,2026A_exp2,2022.2.4,59.956243921078084,
1000,1,0.0,3.7,1,0,2,2,43,,,,,56.78134540002793,57.43167219986208,57.43167219986208,57.916221800027415,315,315,57.916221800027415,57.916221800027415,57.916221800027415,57.916221800027415,57.916221800027415,57.916221800027415,57.916221800027415,57.916221800027415,57.916221800027415,58.28260329994373,58.28260329994373,58.28260329994373,58.28260329994373,58.28260329994373,58.28260329994373,58.28260329994373,58.28260329994373,58.28260329994373,0,1,[0.0007545000407844782],[0.3676083998288959],58.28260329994373,58.48293659999035,1000,58.48293659999035,1000,1000,1000,1000,1,num_2,0.5638546000700444,,33,8,2026-03-12_17h53.54.207,2026A_exp2,2022.2.4,59.956243921078084,
1,0,3.7,3.7,1,0,3,3,64,,,,,59.06685069995001,59.71778479986824,59.71778479986824,60.20205429987982,315,45,60.20205429987982,60.20205429987982,60.20205429987982,60.20205429987982,60.20205429987982,60.20205429987982,60.20205429987982,60.20205429987982,60.20205429987982,60.56858089985326,60.56858089985326,60.56858089985326,60.56858089985326,60.56858089985326,60.56858089985326,60.56858089985326,60.56858089985326,60.56858089985326,0,1,[0.001234699971973896],[0.3670584000647068],60.56858089985326,60.768672599922866,3.7,60.768672599922866,0,3.7,1,0,1000,num_1,0.9426907000597566,,33,8,2026-03-12_17h53.54.207,2026A_exp2,2022.2.4,59.956243921078084,
1000,1,6.1,3.7,1,0,4,4,45,,,,,61.73775999993086,62.39766449993476,62.39766449993476,62.88801370002329,315,315,62.88801370002329,62.88801370002329,62.88801370002329,62.88801370002329,62.88801370002329,62.88801370002329,62.88801370002329,62.88801370002329,62.88801370002329,63.25451839994639,63.25451839994639,63.25451839994639,63.25451839994639,63.25451839994639,63.25451839994639,63.25451839994639,63.25451839994639,63.25451839994639,0,1,[0.0013425999786704779],[0.3670606999658048],63.25451839994639,63.454845999833196,1000,63.454845999833196,1000,1000,1000,1000,0,num_3,0.5608966001309454,,33,8,2026-03-12_17h53.54.207,2026A_exp2,2022.2.4,59.956243921078084,
1,0,3.7,4.9,0,0,5,5,31,,,,,64.03902739984915,64.68923629983328,64.68923629983328,65.19040339998901,315,315,65.19040339998901,65.19040339998901,65.19040339998901,65.19040339998901,65.19040339998901,65.19040339998901,65.19040339998901,65.19040339998901,65.19040339998901,65.5570537999738,65.5570537999738,65.5570537999738,65.5570537999738,65.5570537999738,65.5570537999738,65.5570537999738,65.5570537999738,65.5570537999738,0,1,[0.0012198998592793941],[0.3664451998192817],65.5570537999738,65.7569702998735,3.7,65.7569702998735,0,3.7,1,0,1000,num_1,1.0263448001351207,,33,8,2026-03-12_17h53.54.207,2026A_exp2,2022.2.4,59.956243921078084,
1000,1,0.0,4.9,0,0,6,6,27,,,,,66.8079798000399,67.45872619980946,67.45872619980946,67.94311170000583,315,45,67.94311170000583,67.94311170000583,67.94311170000583,67.94311170000583,67.94311170000583,67.94311170000583,67.94311170000583,67.94311170000583,67.94311170000583,68.30964330001734,68.30964330001734,68.30964330001734,68.30964330001734,68.30964330001734,68.30964330001734,68.30964330001734,68.30964330001734,68.30964330001734,6,3,"[0.0014380000066012144, 0.20032479986548424, 0.2335854999255389]","[0.11695689987391233, 0.21696799993515015, 0.367167399963364]",68.30964330001734,68.51406219997443,1000,68.51406219997443,1000,1000,1000,1000,1,num_2,0.67737410007976,,33,8,2026-03-12_17h53.54.207,2026A_exp2,2022.2.4,59.956243921078084,
1000,1,0.0,3.7,1,0,7,7,75,,,,,69.21035939990543,69.86102989991195,69.86102989991195,70.36228779982775,315,315,70.36228779982775,70.36228779982775,70.36228779982775,70.36228779982775,70.36228779982775,70.36228779982775,70.36228779982775,70.36228779982775,70.36228779982775,70.72868629987352,70.72868629987352,70.72868629987352,70.72868629987352,70.72868629987352,70.72868629987352,70.72868629987352,70.72868629987352,70.72868629987352,0,1,[0.0012469999492168427],[0.36717789992690086],70.72868629987352,70.93058329983614,1000,70.93058329983614,1000,1000,1000,1000,1,num_2,0.5004471000283957,,33,8,2026-03-12_17h53.54.207,2026A_exp2,2022.2.4,59.956243921078084,
1,0,0.0,0.0,0,0,8,8,19,,,,,71.46280499990098,72.11340559995733,72.11340559995733,72.61451899982058,45,315,72.61451899982058,72.61451899982058,72.61451899982058,72.61451899982058,72.61451899982058,72.61451899982058,72.61451899982058,72.61451899982058,72.61451899982058,72.96421939996071,72.96421939996071,72.96421939996071,72.96421939996071,72.96421939996071,72.96421939996071,72.96421939996071,72.96421939996071,72.96421939996071,0,1,[0.0012187999673187733],[0.3505477998405695],72.96421939996071,73.16431489982642,0.0,73.18114309990779,0,0.0,0,1,1000,num_1,0.6658392001409084,,33,8,2026-03-12_17h53.54.207,2026A_exp2,2022.2.4,59.956243921078084,
1,0,0.0,4.9,1,0,9,9,65,,,,,73.86536339996383,74.51583369984291,74.51583369984291,75.00015420001,315,315,75.00015420001,75.00015420001,75.00015420001,75.00015420001,75.00015420001,75.00015420001,75.00015420001,75.00015420001,75.00015420001,75.36665989994071,75.36665989994071,75.36665989994071,75.36665989994071,75.36665989994071,75.36665989994071,75.36665989994071,75.36665989994071,75.36665989994071,0,1,[0.0007714000530540943],[0.3676582002080977],75.36665989994071,75.56713490001857,4.9,75.56713490001857,1,4.9,1,1,1000,num_4,1.1677139000967145,,33,8,2026-03-12_17h53.54.207,2026A_exp2,2022.2.4,59.956243921078084,
1000,1,3.7,0.0,1,0,10,10,44,,,,,76.75144739984535,77.38539229985327,77.38539229985327,77.8864674998913,315,45,77.8864674998913,77.8864674998913,77.8864674998913,77.8864674998913,77.8864674998913,77.8864674998913,77.8864674998913,77.8864674998913,77.8864674998913,78.25287540000863,78.25287540000863,78.25287540000863,78.25287540000863,78.25287540000863,78.25287540000863,78.25287540000863,78.25287540000863,78.25287540000863,0,1,[0.0012125999201089144],[0.3671263998840004],78.25287540000863,78.45538689987734,1000,78.45538689987734,1000,1000,1000,1000,0,num_3,0.5275826000142843,,33,8,2026-03-12_17h53.54.207,2026A_exp2,2022.2.4,59.956243921078084,
1,0,4.9,0.0,1,0,11,11,48,,,,,79.00352029991336,79.65417909994721,79.65417909994721,80.16244919993915,45,45,80.16244919993915,80.16244919993915,80.16244919993915,80.16244919993915,80.16244919993915,80.16244919993915,80.16244919993915,80.16244919993915,80.16244919993915,80.52197609981522,80.52197609981522,80.52197609981522,80.52197609981522,80.52197609981522,80.52197609981522,80.52197609981522,80.52197609981522,80.52197609981522,0,1,[0.0033235999289900064],[0.36509109986945987],80.52197609981522,80.7220820998773,0.0,80.7220820998773,0,0.0,0,1,1000,num_1,0.6930084000341594,,33,8,2026-03-12_17h53.54.207,2026A_exp2,2022.2.4,59.956243921078084,
1000,1,3.7,3.7,1,0,12,12,46,,,,,81.43925409996882,82.09001169982366,82.09001169982366,82.59009069995955,315,45,82.59009069995955,82.59009069995955,82.59009069995955,82.59009069995955,82.59009069995955,82.59009069995955,82.59009069995955,82.59009069995955,82.59009069995955,82.940809099935,82.940809099935,82.940809099935,82.940809099935,82.940809099935,82.940809099935,82.940809099935,82.940809099935,82.940809099935,0,1,[0.004140199860557914],[0.3643664000555873],82.940809099935,83.14256339985877,1000,83.14256339985877,1000,1000,1000,1000,0,num_3,0.888345800107345,,33,8,2026-03-12_17h53.54.207,2026A_exp2,2022.2.4,59.956243921078084,
1,0,6.1,6.1,1,0,13,13,89,,,,,84.05881890002638,84.6950482998509,84.6950482998509,85.1937763998285,45,45,85.1937763998285,85.1937763998285,85.1937763998285,85.1937763998285,85.1937763998285,85.1937763998285,85.1937763998285,85.1937763998285,85.1937763998285,85.56003029993735,85.56003029993735,85.56003029993735,85.56003029993735,85.56003029993735,85.56003029993735,85.56003029993735,85.56003029993735,85.56003029993735,6,2,"[0.08359219995327294, 0.15027539990842342]","[0.13369199982844293, 0.3671557998750359]",85.56003029993735,85.76042259996757,6.1,85.76042259996757,0,6.1,1,0,1000,num_1,0.8146728000137955,,33,8,2026-03-12_17h53.54.207,2026A_exp2,2022.2.4,59.956243921078084,
0,0,0.0,0.0,0,0,14,14,69,,,,,86.59445959981531,87.24515319988132,87.24515319988132,87.72954949992709,315,45,87.72954949992709,87.72954949992709,87.72954949992709,87.72954949992709,87.72954949992709,87.72954949992709,87.72954949992709,87.72954949992709,87.72954949992709,88.09607840003446,88.09607840003446,88.09607840003446,88.09607840003446,88.09607840003446,88.09607840003446,88.09607840003446,88.09607840003446,88.09607840003446,5,1,[0.08382799988612533],[0.3675913999322802],88.09607840003446,88.29608060000464,0.0,88.29608060000464,0,0.0,0,1,1000,num_1,0.8942926002200693,,33,8,2026-03-12_17h53.54.207,2026A_exp2,2022.2.4,59.956243921078084,
0,0,0.0,0.0,0,0,15,15,67,,,,,89.21387049998157,89.84782519983128,89.84782519983128,90.3488103998825,315,315,90.3488103998825,90.3488103998825,90.3488103998825,90.3488103998825,90.3488103998825,90.3488103998825,90.3488103998825,90.3488103998825,90.3488103998825,90.71533179981634,90.71533179981634,90.71533179981634,90.71533179981634,90.71533179981634,90.71533179981634,90.71533179981634,90.71533179981634,90.71533179981634,18,3,"[0.0012578999157994986, 0.18341659987345338, 0.24987229984253645]","[0.04996089986525476, 0.2001809999346733, 0.2667897997889668]",90.71533179981634,90.91540249995887,0.0,90.91540249995887,1,0.0,0,0,1000,num_4,0.8753822001162916,,33,8,2026-03-12_17h53.54.207,2026A_exp2,2022.2.4,59.956243921078084,
1000,1,6.1,0.0,1,0,16,16,52,,,,,91.8164303000085,92.4681646998506,92.4681646998506,92.95158379990608,45,45,92.95158379990608,92.95158379990608,92.95158379990608,92.95158379990608,92.95158379990608,92.95158379990608,92.95158379990608,92.95158379990608,92.95158379990608,93.31807169993408,93.31807169993408,93.31807169993408,93.31807169993408,93.31807169993408,93.31807169993408,93.31807169993408,93.31807169993408,93.31807169993408,0,1,[0.0012328000739216805],[0.36646989989094436],93.31807169993408,93.51801549992524,1000,93.51801549992524,1000,1000,1000,1000,0,num_3,0.49637180007994175,,33,8,2026-03-12_17h53.54.207,2026A_exp2,2022.2.4,59.956243921078084,
1000,1,0.0,0.0,1,0,17,17,42,,,,,94.0351124999579,94.68586470000446,94.68586470000446,95.18700949987397,315,315,95.18700949987397,95.18700949987397,95.18700949987397,95.18700949987397,95.18700949987397,95.18700949987397,95.18700949987397,95.18700949987397,95.18700949987397,95.55353809986264,95.55353809986264,95.55353809986264,95.55353809986264,95.55353809986264,95.55353809986264,95.55353809986264,95.55353809986264,95.55353809986264,0,1,[0.0009690001606941223],[0.36751970020122826],95.55353809986264,95.75377990002744,1000,95.75377990002744,1000,1000,1000,1000,0,num_3,0.605291600106284,,33,8,2026-03-12_17h53.54.207,2026A_exp2,2022.2.4,59.956243921078084,
1000,1,6.1,6.1,0,0,18,18,74,,,,,96.38761459989473,97.04067759984173,97.04067759984173,97.53933629998937,315,45,97.53933629998937,97.53933629998937,97.53933629998937,97.53933629998937,97.53933629998937,97.53933629998937,97.53933629998937,97.53933629998937,97.53933629998937,97.88911539991386,97.88911539991386,97.88911539991386,97.88911539991386,97.88911539991386,97.88911539991386,97.88911539991386,97.88911539991386,97.88911539991386,0,1,[0.00116460002027452],[0.35053379996679723],97.88911539991386,98.09117090003565,1000,98.09117090003565,1000,1000,1000,1000,1,num_2,0.5315035001840442,,33,8,2026-03-12_17h53.54.207,2026A_exp2,2022.2.4,59.956243921078084,
1,0,4.9,0.0,0,0,19,19,23,,,,,98.63980829995126,99.2967742998153,99.2967742998153,99.7916349999141,315,315,99.7916349999141,99.7916349999141,99.7916349999141,99.7916349999141,99.7916349999141,99.7916349999141,99.7916349999141,99.7916349999141,99.7916349999141,100.15813359990716,100.15813359990716,100.15813359990716,100.15813359990716,100.15813359990716,100.15813359990716,100.15813359990716,100.15813359990716,100.15813359990716,0,1,[0.001714400015771389],[0.3668831998948008],100.15813359990716,100.35825579985976,4.9,100.35825579985976,1,4.9,1,1,1000,num_4,0.7450647002551705,,33,8,2026-03-12_17h53.54.207,2026A_exp2,2022.2.4,59.956243921078084,
1000,1,0.0,4.9,0,0,20,20,9,,,,,101.12571469997056,101.77644419996068,101.77644419996068,102.2928067999892,315,315,102.2928067999892,102.2928067999892,102.2928067999892,102.2928067999892,102.2928067999892,102.2928067999892,102.2928067999892,102.2928067999892,102.2928067999892,102.64401929988526,102.64401929988526,102.64401929988526,102.64401929988526,102.64401929988526,102.64401929988526,102.64401929988526,102.64401929988526,102.64401929988526,16,1,[0.2648980999365449],[0.3653291000518948],102.64401929988526,102.84522879985161,1000,102.84522879985161,1000,1000,1000,1000,1,num_2,0.4661124001722783,,33,8,2026-03-12_17h53.54.207,2026A_exp2,2022.2.4,59.956243921078084,
1000,1,0.0,0.0,0,0,21,21,47,,,,,103.32767969998531,103.97862569987774,103.97862569987774,104.47972199996002,315,45,104.47972199996002,104.47972199996002,104.47972199996002,104.47972199996002,104.47972199996002,104.47972199996002,104.47972199996002,104.47972199996002,104.47972199996002,104.84616439999081,104.84616439999081,104.84616439999081,104.84616439999081,104.84616439999081,104.84616439999081,104.84616439999081,104.84616439999081,104.84616439999081,0,1,[0.0015321001410484314],[0.36801189999096096],104.84616439999081,105.06870049983263,1000,105.06870049983263,1000,1000,1000,1000,1,num_2,0.5378920999355614,,33,8,2026-03-12_17h53.54.207,2026A_exp2,2022.2.4,59.956243921078084,
1,0,0.0,3.7,1,0,22,22,25,,,,,105.6301722000353,106.28073300002143,106.28073300002143,106.78191250003874,45,45,106.78191250003874,106.78191250003874,106.78191250003874,106.78191250003874,106.78191250003874,106.78191250003874,106.78191250003874,106.78191250003874,106.78191250003874,107.14844989986159,107.14844989986159,107.14844989986159,107.14844989986159,107.14844989986159,107.14844989986159,107.14844989986159,107.14844989986159,107.14844989986159,0,1,[0.0008133999072015285],[0.3676064999308437],107.14844989986159,107.34865779988468,3.7,107.34865779988468,1,3.7,1,1,1000,num_4,0.6983879001345485,,33,8,2026-03-12_17h53.54.207,2026A_exp2,2022.2.4,59.956243921078084,
1000,1,4.9,0.0,0,0,23,23,20,,,,,108.06583789992146,108.71679959981702,108.71679959981702,109.20110509986989,315,45,109.20110509986989,109.20110509986989,109.20110509986989,109.20110509986989,109.20110509986989,109.20110509986989,109.20110509986989,109.20110509986989,109.20110509986989,109.56757229985669,109.56757229985669,109.56757229985669,109.56757229985669,109.56757229985669,109.56757229985669,109.56757229985669,109.56757229985669,109.56757229985669,0,1,[0.0014617000706493855],[0.36715140007436275],109.56757229985669,109.76969220000319,1000,109.76969220000319,1000,1000,1000,1000,0,num_3,0.5172281002160162,,33,8,2026-03-12_17h53.54.207,2026A_exp2,2022.2.4,59.956243921078084,
1000,1,3.7,6.1,0,0,24,24,81,,,,,110.31840209988877,110.96893480001017,110.96893480001017,111.4585967999883,45,315,111.4585967999883,111.4585967999883,111.4585967999883,111.4585967999883,111.4585967999883,111.4585967999883,111.4585967999883,111.4585967999883,111.4585967999883,111.81965749990195,111.81965749990195,111.81965749990195,111.81965749990195,111.81965749990195,111.81965749990195,111.81965749990195,111.81965749990195,111.81965749990195,0,1,[0.002560799941420555],[0.36586689995601773],111.81965749990195,112.02162879984826,1000,112.02162879984826,1000,1000,1000,1000,1,num_2,0.45655430015176535,,33,8,2026-03-12_17h53.54.207,2026A_exp2,2022.2.4,59.956243921078084,
1,0,6.1,4.9,0,0,25,25,30,,,,,112.50367639982142,113.15412670001388,113.15412670001388,113.64424890000373,315,315,113.64424890000373,113.64424890000373,113.64424890000373,113.64424890000373,113.64424890000373,113.64424890000373,113.64424890000373,113.64424890000373,113.64424890000373,114.00530710001476,114.00530710001476,114.00530710001476,114.00530710001476,114.00530710001476,114.00530710001476,114.00530710001476,114.00530710001476,114.00530710001476,0,1,[0.0025459998287260532],[0.3668776999693364],114.00530710001476,114.2090461999178,6.1,114.2090461999178,1,6.1,1,1,1000,num_4,0.5340778999961913,,33,8,2026-03-12_17h53.54.207,2026A_exp2,2022.2.4,59.956243921078084,
1,0,0.0,0.0,0,0,26,26,49,,,,,114.77244999981485,115.42471249983646,115.42471249983646,115.9245015999768,45,45,115.9245015999768,115.9245015999768,115.9245015999768,115.9245015999768,115.9245015999768,115.9245015999768,115.9245015999768,115.9245015999768,115.9245015999768,116.29095279984176,116.29095279984176,116.29095279984176,116.29095279984176,116.29095279984176,116.29095279984176,116.29095279984176,116.29095279984176,116.29095279984176,2,2,"[0.0012105000205338001, 0.35050090006552637]","[0.3338488000445068, 0.36726569989696145]",116.29095279984176,116.49105879990384,0.0,116.49105879990384,1,0.0,0,0,1000,num_4,0.7483320999890566,,33,8,2026-03-12_17h53.54.207,2026A_exp2,2022.2.4,59.956243921078084,
1,0,4.9,0.0,0,0,27,27,87,,,,,117.25841769995168,117.91555049992166,117.91555049992166,118.40359719982371,45,315,118.40359719982371,118.40359719982371,118.40359719982371,118.40359719982371,118.40359719982371,118.40359719982371,118.40359719982371,118.40359719982371,118.40359719982371,118.7598343999125,118.7598343999125,118.7598343999125,118.7598343999125,118.7598343999125,118.7598343999125,118.7598343999125,118.7598343999125,118.7598343999125,1,1,[0.0033744999673217535],[0.36491580004803836],118.7598343999125,118.96034260001034,4.9,118.96034260001034,1,4.9,1,1,1000,num_4,0.48680449998937547,,33,8,2026-03-12_17h53.54.207,2026A_exp2,2022.2.4,59.956243921078084,
1,0,6.1,0.0,1,0,28,28,54,,,,,119.47855410003103,120.12810759991407,120.12810759991407,120.62919919984415,45,315,120.62919919984415,120.62919919984415,120.62919919984415,120.62919919984415,120.62919919984415,120.62919919984415,120.62919919984415,120.62919919984415,120.62919919984415,120.9956159000285,120.9956159000285,120.9956159000285,120.9956159000285,120.9956159000285,120.9956159000285,120.9956159000285,120.9956159000285,120.9956159000285,0,1,[0.001232899958267808],[0.36706600012257695],120.9956159000285,121.19572640000843,0.0,121.19572640000843,0,0.0,0,1,1000,num_1,0.6760033001191914,,33,8,2026-03-12_17h53.54.207,2026A_exp2,2022.2.4,59.956243921078084,
0,0,3.7,6.1,1,0,29,29,17,,,,,121.8964312998578,122.54721289989538,122.54721289989538,123.03143289987929,315,315,123.03143289987929,123.03143289987929,123.03143289987929,123.03143289987929,123.03143289987929,123.03143289987929,123.03143289987929,123.03143289987929,123.03143289987929,123.39806209993549,123.39806209993549,123.39806209993549,123.39806209993549,123.39806209993549,123.39806209993549,123.39806209993549,123.39806209993549,123.39806209993549,0,1,[0.0012126998044550419],[0.36711300001479685],123.39806209993549,123.5983327999711,3.7,123.5983327999711,0,3.7,1,0,1000,num_1,0.6093520000576973,,33,8,2026-03-12_17h53.54.207,2026A_exp2,2022.2.4,59.956243921078084,
1000,1,3.7,0.0,1,0,30,30,33,,,,,124.23208799981512,124.88282019994222,124.88282019994222,125.36713479994796,45,45,125.36713479994796,125.36713479994796,125.36713479994796,125.36713479994796,125.36713479994796,125.36713479994796,125.36713479994796,125.36713479994796,125.36713479994796,125.73359679989517,125.73359679989517,125.73359679989517,125.73359679989517,125.73359679989517,125.73359679989517,125.73359679989517,125.73359679989517,125.73359679989517,0,1,[0.0007121001835912466],[0.36779470019973814],125.73359679989517,125.9357757999096,1000,125.9357757999096,1000,1000,1000,1000,0,num_3,0.5751570002175868,,33,8,2026-03-12_17h53.54.207,2026A_exp2,2022.2.4,59.956243921078084,
1000,1,0.0,0.0,1,0,31,31,39,,,,,126.53443300002255,127.18513689981773,127.18513689981773,127.68625689996406,45,45,127.68625689996406,127.68625689996406,127.68625689996406,127.68625689996406,127.68625689996406,127.68625689996406,127.68625689996406,127.68625689996406,127.68625689996406,128.052671500016,128.052671500016,128.052671500016,128.052671500016,128.052671500016,128.052671500016,128.052671500016,128.052671500016,128.052671500016,0,1,[0.0014465001877397299],[0.3669996000826359],128.052671500016,128.25465919985436,1000,128.25465919985436,1000,1000,1000,1000,0,num_3,1.3358920000027865,,33,8,2026-03-12_17h53.54.207,2026A_exp2,2022.2.4,59.956243921078084,
1000,1,0.0,0.0,1,0,32,32,70,,,,,129.6207754998468,130.2714823000133,130.2714823000133,130.77249090000987,45,315,130.77249090000987,130.77249090000987,130.77249090000987,130.77249090000987,130.77249090000987,130.77249090000987,130.77249090000987,130.77249090000987,130.77249090000987,131.13901369995438,131.13901369995438,131.13901369995438,131.13901369995438,131.13901369995438,131.13901369995438,131.13901369995438,131.13901369995438,131.13901369995438,0,1,[0.0010526999831199646],[0.36731730005703866],131.13901369995438,131.33990599983372,1000,131.33990599983372,1000,1000,1000,1000,1,num_2,0.5385167000349611,,33,8,2026-03-12_17h53.54.207,2026A_exp2,2022.2.4,59.956243921078084,
1000,1,3.7,4.9,0,0,33,33,13,,,,,131.90654859994538,132.55706089991145,132.55706089991145,133.04161239997484,45,45,133.04161239997484,133.04161239997484,133.04161239997484,133.04161239997484,133.04161239997484,133.04161239997484,133.04161239997484,133.04161239997484,133.04161239997484,133.4079978999216,133.4079978999216,133.4079978999216,133.4079978999216,133.4079978999216,133.4079978999216,133.4079978999216,133.4079978999216,133.4079978999216,0,1,[0.0011978000402450562],[0.36709080007858574],133.4079978999216,133.61014949996024,1000,133.61014949996024,1000,1000,1000,1000,0,num_3,0.5168832002673298,,33,8,2026-03-12_17h53.54.207,2026A_exp2,2022.2.4,59.956243921078084,
0,0,0.0,0.0,0,0,34,34,4,,,,,134.14203169988468,134.7926670999732,134.7926670999732,135.29389850003645,315,315,135.29389850003645,135.29389850003645,135.29389850003645,135.29389850003645,135.29389850003645,135.29389850003645,135.29389850003645,135.29389850003645,135.29389850003645,135.66024230001494,135.66024230001494,135.66024230001494,135.66024230001494,135.66024230001494,135.66024230001494,135.66024230001494,135.66024230001494,135.66024230001494,0,1,[0.0012066999915987253],[0.367308400105685],135.66024230001494,135.86049659992568,0.0,135.86049659992568,1,0.0,0,0,1000,num_4,0.778312599984929,,33,8,2026-03-12_17h53.54.207,2026A_exp2,2022.2.4,59.956243921078084,
1,0,0.0,3.7,0,0,35,35,1,,,,,136.6610485999845,137.30375409987755,137.30375409987755,137.79638920002617,315,315,137.79638920002617,137.79638920002617,137.79638920002617,137.79638920002617,137.79638920002617,137.79638920002617,137.79638920002617,137.79638920002617,137.79638920002617,138.16278929985128,138.16278929985128,138.16278929985128,138.16278929985128,138.16278929985128,138.16278929985128,138.16278929985128,138.16278929985128,138.16278929985128,0,1,[0.0011903000995516777],[0.36734590004198253],138.16278929985128,138.36302099982277,0.0,138.36302099982277,1,0.0,0,0,1000,num_4,0.6526129001285881,,33,8,2026-03-12_17h53.54.207,2026A_exp2,2022.2.4,59.956243921078084,
1,0,6.1,3.7,0,0,36,36,86,,,,,139.04681509989314,139.6976409999188,139.6976409999188,140.18195889983326,45,315,140.18195889983326,140.18195889983326,140.18195889983326,140.18195889983326,140.18195889983326,140.18195889983326,140.18195889983326,140.18195889983326,140.18195889983326,140.54871689993888,140.54871689993888,140.54871689993888,140.54871689993888,140.54871689993888,140.54871689993888,140.54871689993888,140.54871689993888,140.54871689993888,0,1,[0.0007947999984025955],[0.3678210999350995],140.54871689993888,140.756635800004,6.1,140.756635800004,1,6.1,1,1,1000,num_4,0.6101226001046598,,33,8,2026-03-12_17h53.54.207,2026A_exp2,2022.2.4,59.956243921078084,
1,0,3.7,6.1,1,0,37,37,6,,,,,141.38259419985116,142.0334030999802,142.0334030999802,142.51765069994144,315,315,142.51765069994144,142.51765069994144,142.51765069994144,142.51765069994144,142.51765069994144,142.51765069994144,142.51765069994144,142.51765069994144,142.51765069994144,142.88414819980972,142.88414819980972,142.88414819980972,142.88414819980972,142.88414819980972,142.88414819980972,142.88414819980972,142.88414819980972,142.88414819980972,0,1,[0.0011607999913394451],[0.3672468999866396],142.88414819980972,143.0843060000334,6.1,143.0843060000334,1,6.1,1,1,1000,num_4,0.5069303999189287,,33,8,2026-03-12_17h53.54.207,2026A_exp2,2022.2.4,59.956243921078084,
1,0,0.0,0.0,0,0,38,38,0,,,,,143.61801350000314,144.26874480000697,144.26874480000697,144.76981389988214,315,315,144.76981389988214,144.76981389988214,144.76981389988214,144.76981389988214,144.76981389988214,144.76981389988214,144.76981389988214,144.76981389988214,144.76981389988214,145.11934039997868,145.11934039997868,145.11934039997868,145.11934039997868,145.11934039997868,145.11934039997868,145.11934039997868,145.11934039997868,145.11934039997868,22,0,,,145.11934039997868,145.319851399865,0.0,145.319851399865,0,0.0,0,1,1000,num_1,0.7986020999960601,,33,8,2026-03-12_17h53.54.207,2026A_exp2,2022.2.4,59.956243921078084,
1000,1,6.1,6.1,0,0,39,39,56,,,,,146.137090299977,146.78188659995794,146.78188659995794,147.27235979982652,45,45,147.27235979982652,147.27235979982652,147.27235979982652,147.27235979982652,147.27235979982652,147.27235979982652,147.27235979982652,147.27235979982652,147.27235979982652,147.63876409991644,147.63876409991644,147.63876409991644,147.63876409991644,147.63876409991644,147.63876409991644,147.63876409991644,147.63876409991644,147.63876409991644,1,2,"[0.0012397000100463629, 0.3172194000799209]","[0.3004426001571119, 0.36736150016076863]",147.63876409991644,147.84125879989006,1000,147.84125879989006,1000,1000,1000,1000,1,num_2,0.45323360012844205,,33,8,2026-03-12_17h53.54.207,2026A_exp2,2022.2.4,59.956243921078084,
1,0,0.0,4.9,0,0,40,40,35,,,,,148.32288559991866,148.9735148998443,148.9735148998443,149.47475289995782,45,315,149.47475289995782,149.47475289995782,149.47475289995782,149.47475289995782,149.47475289995782,149.47475289995782,149.47475289995782,149.47475289995782,149.47475289995782,149.82444599992596,149.82444599992596,149.82444599992596,149.82444599992596,149.82444599992596,149.82444599992596,149.82444599992596,149.82444599992596,149.82444599992596,0,1,[0.0012131000403314829],[0.35055719991214573],149.82444599992596,150.02451190003194,0.0,150.02451190003194,0,0.0,0,1,1000,num_1,0.5097857001237571,,33,8,2026-03-12_17h53.54.207,2026A_exp2,2022.2.4,59.956243921078084,
1,0,6.1,6.1,0,0,41,41,11,,,,,150.55832259985618,151.19251089985482,151.19251089985482,151.69363259989768,315,315,151.69363259989768,151.69363259989768,151.69363259989768,151.69363259989768,151.69363259989768,151.69363259989768,151.69363259989768,151.69363259989768,151.69363259989768,152.06008509988897,152.06008509988897,152.06008509988897,152.06008509988897,152.06008509988897,152.06008509988897,152.06008509988897,152.06008509988897,152.06008509988897,0,1,[0.001199800055474043],[0.36729750013910234],152.06008509988897,152.26001879991964,6.1,152.26001879991964,0,6.1,1,0,1000,num_1,0.898314299993217,,33,8,2026-03-12_17h53.54.207,2026A_exp2,2022.2.4,59.956243921078084,
1000,1,6.1,4.9,0,0,42,42,77,,,,,153.17769779986702,153.82057740003802,153.82057740003802,154.31416699988768,315,45,154.31416699988768,154.31416699988768,154.31416699988768,154.31416699988768,154.31416699988768,154.31416699988768,154.31416699988768,154.31416699988768,154.31416699988768,154.6793408000376,154.6793408000376,154.6793408000376,154.6793408000376,154.6793408000376,154.6793408000376,154.6793408000376,154.6793408000376,154.6793408000376,0,1,[0.0019874998833984137],[0.3665197999216616],154.6793408000376,154.88116869982332,1000,154.88116869982332,1000,1000,1000,1000,1,num_2,0.8141057000029832,,33,8,2026-03-12_17h53.54.207,2026A_exp2,2022.2.4,59.956243921078084,
1,0,0.0,0.0,0,0,43,43,29,,,,,155.71357759996317,156.36420519999228,156.36420519999228,156.86551329982467,315,315,156.86551329982467,156.86551329982467,156.86551329982467,156.86551329982467,156.86551329982467,156.86551329982467,156.86551329982467,156.86551329982467,156.86551329982467,157.23185149999335,157.23185149999335,157.23185149999335,157.23185149999335,157.23185149999335,157.23185149999335,157.23185149999335,157.23185149999335,157.23185149999335,23,0,,,157.23185149999335,157.4319674000144,0.0,157.4319674000144,1,0.0,0,0,1000,num_4,0.8468561000190675,,33,8,2026-03-12_17h53.54.207,2026A_exp2,2022.2.4,59.956243921078084,
1000,1,6.1,6.1,0,0,44,44,50,,,,,158.29942870000377,158.9505984999705,158.9505984999705,159.4513834998943,45,315,159.4513834998943,159.4513834998943,159.4513834998943,159.4513834998943,159.4513834998943,159.4513834998943,159.4513834998943,159.4513834998943,159.4513834998943,159.81763189984486,159.81763189984486,159.81763189984486,159.81763189984486,159.81763189984486,159.81763189984486,159.81763189984486,159.81763189984486,159.81763189984486,0,1,[0.0012293998152017593],[0.3671059999614954],159.81763189984486,160.01984469988383,1000,160.01984469988383,1000,1000,1000,1000,0,num_3,0.4349671001546085,,33,8,2026-03-12_17h53.54.207,2026A_exp2,2022.2.4,59.956243921078084,
1000,1,6.1,0.0,0,0,45,45,8,,,,,160.48503570002504,161.13576400000602,161.13576400000602,161.63672890001908,45,315,161.63672890001908,161.63672890001908,161.63672890001908,161.63672890001908,161.63672890001908,161.63672890001908,161.63672890001908,161.63672890001908,161.63672890001908,162.00333079998381,162.00333079998381,162.00333079998381,162.00333079998381,162.00333079998381,162.00333079998381,162.00333079998381,162.00333079998381,162.00333079998381,0,1,[0.0012397000100463629],[0.36709309997968376],162.00333079998381,162.20548719982617,1000,162.20548719982617,1000,1000,1000,1000,0,num_3,0.4969740002416074,,33,8,2026-03-12_17h53.54.207,2026A_exp2,2022.2.4,59.956243921078084,
1000,1,0.0,0.0,1,0,46,46,40,,,,,162.72054390003905,163.37126709986478,163.37126709986478,163.87231360003352,315,315,163.87231360003352,163.87231360003352,163.87231360003352,163.87231360003352,163.87231360003352,163.87231360003352,163.87231360003352,163.87231360003352,163.87231360003352,164.23877909989096,164.23877909989096,164.23877909989096,164.23877909989096,164.23877909989096,164.23877909989096,164.23877909989096,164.23877909989096,164.23877909989096,0,1,[0.0011744999792426825],[0.36745149991475046],164.23877909989096,164.4410166000016,1000,164.4410166000016,1000,1000,1000,1000,0,num_3,0.42994090006686747,,33,8,2026-03-12_17h53.54.207,2026A_exp2,2022.2.4,59.956243921078084,
1,0,3.7,0.0,1,0,47,47,59,,,,,164.89320179983042,165.54012889997102,165.54012889997102,166.04128499981016,45,45,166.04128499981016,166.04128499981016,166.04128499981016,166.04128499981016,166.04128499981016,166.04128499981016,166.04128499981016,166.04128499981016,166.04128499981016,166.4075171998702,166.4075171998702,166.4075171998702,166.4075171998702,166.4075171998702,166.4075171998702,166.4075171998702,166.4075171998702,166.4075171998702,0,1,[0.0012014000676572323],[0.3667502000462264],166.4075171998702,166.6077824998647,0.0,166.6077824998647,0,0.0,0,1,1000,num_1,0.550993800163269,,33,8,2026-03-12_17h53.54.207,2026A_exp2,2022.2.4,59.956243921078084,
1,0,0.0,3.7,1,0,48,48,10,,,,,167.17495669983327,167.82577449991368,167.82577449991368,168.31006029993296,315,315,168.31006029993296,168.31006029993296,168.31006029993296,168.31006029993296,168.31006029993296,168.31006029993296,168.31006029993296,168.31006029993296,168.31006029993296,168.67659990000539,168.67659990000539,168.67659990000539,168.67659990000539,168.67659990000539,168.67659990000539,168.67659990000539,168.67659990000539,168.67659990000539,0,1,[0.0012141999322921038],[0.3671333999373019],168.67659990000539,168.8768107998185,3.7,168.8768107998185,1,3.7,1,1,1000,num_4,0.5389603001531214,,33,8,2026-03-12_17h53.54.207,2026A_exp2,2022.2.4,59.956243921078084,
1000,1,4.9,0.0,1,0,49,49,7,,,,,169.4439560000319,170.07802849984728,170.07802849984728,170.57913249987178,45,45,170.57913249987178,170.57913249987178,170.57913249987178,170.57913249987178,170.57913249987178,170.57913249987178,170.57913249987178,170.57913249987178,170.57913249987178,170.94562529982068,170.94562529982068,170.94562529982068,170.94562529982068,170.94562529982068,170.94562529982068,170.94562529982068,170.94562529982068,170.94562529982068,0,1,[0.0012509000953286886],[0.3668825998902321],170.94562529982068,171.147614199901,1000,171.147614199901,1000,1000,1000,1000,0,num_3,0.4672603001818061,,33,8,2026-03-12_17h53.54.207,2026A_exp2,2022.2.4,59.956243921078084,
1000,1,6.1,4.9,1,0,50,50,76,,,,,171.64616979984567,172.29704570001923,172.29704570001923,172.78133859997615,45,315,172.78133859997615,172.78133859997615,172.78133859997615,172.78133859997615,172.78133859997615,172.78133859997615,172.78133859997615,172.78133859997615,172.78133859997615,173.14771529985592,173.14771529985592,173.14771529985592,173.14771529985592,173.14771529985592,173.14771529985592,173.14771529985592,173.14771529985592,173.14771529985592,0,1,[0.001245599938556552],[0.36739599984139204],173.14771529985592,173.3481785999611,1000,173.3481785999611,1000,1000,1000,1000,0,num_3,0.44222340011037886,,33,8,2026-03-12_17h53.54.207,2026A_exp2,2022.2.4,59.956243921078084,
0,0,3.7,3.7,0,0,51,51,63,,,,,173.81505850004032,174.46565479994752,174.46565479994752,174.966758799972,45,45,174.966758799972,174.966758799972,174.966758799972,174.966758799972,174.966758799972,174.966758799972,174.966758799972,174.966758799972,174.966758799972,175.33328969986178,175.33328969986178,175.33328969986178,175.33328969986178,175.33328969986178,175.33328969986178,175.33328969986178,175.33328969986178,175.33328969986178,0,1,[0.0012764001730829477],[0.3673291001468897],175.33328969986178,175.53350769984536,3.7,175.53350769984536,1,3.7,1,1,1000,num_4,0.7218882001470774,,33,8,2026-03-12_17h53.54.207,2026A_exp2,2022.2.4,59.956243921078084,
1,0,0.0,0.0,0,0,52,52,66,,,,,176.2840265999548,176.93494449998252,176.93494449998252,177.41910339985043,45,45,177.41910339985043,177.41910339985043,177.41910339985043,177.41910339985043,177.41910339985043,177.41910339985043,177.41910339985043,177.41910339985043,177.41910339985043,177.78566519985907,177.78566519985907,177.78566519985907,177.78566519985907,177.78566519985907,177.78566519985907,177.78566519985907,177.78566519985907,177.78566519985907,0,1,[0.0012745000422000885],[0.3675824000965804],177.78566519985907,177.98579169996083,0.0,177.98579169996083,0,0.0,0,1,1000,num_1,0.7170134002808481,,33,8,2026-03-12_17h53.54.207,2026A_exp2,2022.2.4,59.956243921078084,
1000,1,4.9,0.0,1,0,53,53,28,,,,,178.71995099983178,179.37063249992207,179.37063249992207,179.85507609997876,315,45,179.85507609997876,179.85507609997876,179.85507609997876,179.85507609997876,179.85507609997876,179.85507609997876,179.85507609997876,179.85507609997876,179.85507609997876,180.22143259993754,180.22143259993754,180.22143259993754,180.22143259993754,180.22143259993754,180.22143259993754,180.22143259993754,180.22143259993754,180.22143259993754,18,1,[0.2666261000558734],[0.3503721000161022],180.22143259993754,180.4236492998898,1000,180.4236492998898,1000,1000,1000,1000,0,num_3,0.4471724999602884,,33,8,2026-03-12_17h53.54.207,2026A_exp2,2022.2.4,59.956243921078084,
1,0,0.0,6.1,0,0,54,54,72,,,,,180.8887302998919,181.5391232999973,181.5391232999973,182.04045560001396,45,45,182.04045560001396,182.04045560001396,182.04045560001396,182.04045560001396,182.04045560001396,182.04045560001396,182.04045560001396,182.04045560001396,182.04045560001396,182.406987400027,182.406987400027,182.406987400027,182.406987400027,182.406987400027,182.406987400027,182.406987400027,182.406987400027,182.406987400027,0,1,[0.0012024000752717257],[0.36727360007353127],182.406987400027,182.60710989986546,0.0,182.60710989986546,0,0.0,0,1,1000,num_1,1.4393550001550466,,33,8,2026-03-12_17h53.54.207,2026A_exp2,2022.2.4,59.956243921078084,
1,0,0.0,4.9,1,0,55,55,36,,,,,184.07532209996134,184.72615069989115,184.72615069989115,185.21045869984664,315,315,185.21045869984664,185.21045869984664,185.21045869984664,185.21045869984664,185.21045869984664,185.21045869984664,185.21045869984664,185.21045869984664,185.21045869984664,185.57688189996406,185.57688189996406,185.57688189996406,185.57688189996406,185.57688189996406,185.57688189996406,185.57688189996406,185.57688189996406,185.57688189996406,0,1,[0.0011909999884665012],[0.3670034999959171],185.57688189996406,185.77686619991437,4.9,185.77686619991437,1,4.9,1,1,1000,num_4,0.6140909001696855,,33,8,2026-03-12_17h53.54.207,2026A_exp2,2022.2.4,59.956243921078084,
1000,1,0.0,3.7,0,0,56,56,32,,,,,186.41088599991053,187.06170109985396,187.06170109985396,187.54614269989543,45,45,187.54614269989543,187.54614269989543,187.54614269989543,187.54614269989543,187.54614269989543,187.54614269989543,187.54614269989543,187.54614269989543,187.54614269989543,187.91249539982527,187.91249539982527,187.91249539982527,187.91249539982527,187.91249539982527,187.91249539982527,187.91249539982527,187.91249539982527,187.91249539982527,2,2,"[0.0012157000601291656, 0.08387580001726747]","[0.050341200083494186, 0.36737950006499887]",187.91249539982527,188.1303254000377,1000,188.1303254000377,1000,1000,1000,1000,1,num_2,0.6687732001300901,,33,8,2026-03-12_17h53.54.207,2026A_exp2,2022.2.4,59.956243921078084,
1,0,6.1,6.1,0,0,57,57,51,,,,,188.83018309995532,189.48066889983602,189.48066889983602,189.98190559982322,315,315,189.98190559982322,189.98190559982322,189.98190559982322,189.98190559982322,189.98190559982322,189.98190559982322,189.98190559982322,189.98190559982322,189.98190559982322,190.34821569989435,190.34821569989435,190.34821569989435,190.34821569989435,190.34821569989435,190.34821569989435,190.34821569989435,190.34821569989435,190.34821569989435,0,1,[0.0012864999007433653],[0.36714019998908043],190.34821569989435,190.54831340000965,6.1,190.54831340000965,0,6.1,1,0,1000,num_1,0.8032990999054164,,33,8,2026-03-12_17h53.54.207,2026A_exp2,2022.2.4,59.956243921078084,
1,0,0.0,0.0,1,0,58,58,53,,,,,191.3669064999558,192.01665470004082,192.01665470004082,192.52289809985086,45,315,192.52289809985086,192.52289809985086,192.52289809985086,192.52289809985086,192.52289809985086,192.52289809985086,192.52289809985086,192.52289809985086,192.52289809985086,192.88415589998476,192.88415589998476,192.88415589998476,192.88415589998476,192.88415589998476,192.88415589998476,192.88415589998476,192.88415589998476,192.88415589998476,6,3,"[0.002548699965700507, 0.08352350001223385, 0.11690529994666576]","[0.02238400001078844, 0.10010510007850826, 0.3656854999717325]",192.88415589998476,193.08445309987292,0.0,193.08445309987292,0,0.0,0,1,1000,num_1,0.6988710002042353,,33,8,2026-03-12_17h53.54.207,2026A_exp2,2022.2.4,59.956243921078084,
1,0,0.0,0.0,1,0,59,59,82,,,,,193.80185169982724,194.45241010002792,194.45241010002792,194.93660290003754,315,315,194.93660290003754,194.93660290003754,194.93660290003754,194.93660290003754,194.93660290003754,194.93660290003754,194.93660290003754,194.93660290003754,194.93660290003754,195.30326849990524,195.30326849990524,195.30326849990524,195.30326849990524,195.30326849990524,195.30326849990524,195.30326849990524,195.30326849990524,195.30326849990524,14,1,[0.2334815999493003],[0.3672962000127882],195.30326849990524,195.50350919994526,0.0,195.50350919994526,0,0.0,0,1,1000,num_1,0.6068557002581656,,33,8,2026-03-12_17h53.54.207,2026A_exp2,2022.2.4,59.956243921078084,
1,0,0.0,6.1,0,0,60,60,57,,,,,196.1375574998092,196.77107149991207,196.77107149991207,197.2796328999102,315,315,197.2796328999102,197.2796328999102,197.2796328999102,197.2796328999102,197.2796328999102,197.2796328999102,197.2796328999102,197.2796328999102,197.2796328999102,197.63886349997483,197.63886349997483,197.63886349997483,197.63886349997483,197.63886349997483,197.63886349997483,197.63886349997483,197.63886349997483,197.63886349997483,0,1,[0.0030183999333530664],[0.36544309998862445],197.63886349997483,197.83908039983362,0.0,197.83908039983362,0,0.0,0,1,1000,num_1,1.191899900091812,,33,8,2026-03-12_17h53.54.207,2026A_exp2,2022.2.4,59.956243921078084,
1000,1,4.9,4.9,1,0,61,61,85,,,,,199.05688579985872,199.70768580003642,199.70768580003642,200.19211209984496,315,45,200.19211209984496,200.19211209984496,200.19211209984496,200.19211209984496,200.19211209984496,200.19211209984496,200.19211209984496,200.19211209984496,200.19211209984496,200.5584136999678,200.5584136999678,200.5584136999678,200.5584136999678,200.5584136999678,200.5584136999678,200.5584136999678,200.5584136999678,200.5584136999678,0,1,[0.0012110001407563686],[0.36742740008048713],200.5584136999678,200.7603519000113,1000,200.7603519000113,1000,1000,1000,1000,1,num_2,0.6299101000186056,,33,8,2026-03-12_17h53.54.207,2026A_exp2,2022.2.4,59.956243921078084,
1000,1,0.0,0.0,1,0,62,62,71,,,,,201.40925749996677,202.06001379992813,202.06001379992813,202.56103589991108,45,315,202.56103589991108,202.56103589991108,202.56103589991108,202.56103589991108,202.56103589991108,202.56103589991108,202.56103589991108,202.56103589991108,202.56103589991108,202.91159879998304,202.91159879998304,202.91159879998304,202.91159879998304,202.91159879998304,202.91159879998304,202.91159879998304,202.91159879998304,202.91159879998304,21,1,[0.0017522999551147223],[0.01628410001285374],202.91159879998304,203.13576909992844,1000,203.13576909992844,1000,1000,1000,1000,1,num_2,0.5035027002450079,,33,8,2026-03-12_17h53.54.207,2026A_exp2,2022.2.4,59.956243921078084,
1000,1,0.0,4.9,1,0,63,63,73,,,,,203.66161069995724,204.31219900003634,204.31219900003634,204.81341969990171,315,315,204.81341969990171,204.81341969990171,204.81341969990171,204.81341969990171,204.81341969990171,204.81341969990171,204.81341969990171,204.81341969990171,204.81341969990171,205.17978699994273,205.17978699994273,205.17978699994273,205.17978699994273,205.17978699994273,205.17978699994273,205.17978699994273,205.17978699994273,205.17978699994273,23,0,,,205.17978699994273,205.38184729986824,1000,205.38184729986824,1000,1000,1000,1000,1,num_2,0.2644348000176251,,33,8,2026-03-12_17h53.54.207,2026A_exp2,2022.2.4,59.956243921078084,
1,0,4.9,0.0,1,0,64,64,15,,,,,205.66352439997718,206.31421229988337,206.31421229988337,206.81528640002944,315,315,206.81528640002944,206.81528640002944,206.81528640002944,206.81528640002944,206.81528640002944,206.81528640002944,206.81528640002944,206.81528640002944,206.81528640002944,207.18170179985464,207.18170179985464,207.18170179985464,207.18170179985464,207.18170179985464,207.18170179985464,207.18170179985464,207.18170179985464,207.18170179985464,4,2,"[0.0012068001087754965, 0.3669299001339823]","[0.3004191000945866, 0.3669358000624925]",207.18170179985464,207.3818005998619,0.0,207.3818005998619,0,0.0,0,1,1000,num_1,0.6645017999690026,,33,8,2026-03-12_17h53.54.207,2026A_exp2,2022.2.4,59.956243921078084,
1000,1,3.7,0.0,0,0,65,65,37,,,,,208.0658615999855,208.71944039990194,208.71944039990194,209.21091849985532,315,45,209.21091849985532,209.21091849985532,209.21091849985532,209.21091849985532,209.21091849985532,209.21091849985532,209.21091849985532,209.21091849985532,209.21091849985532,209.5674276999198,209.5674276999198,209.5674276999198,209.5674276999198,209.5674276999198,209.5674276999198,209.5674276999198,209.5674276999198,209.5674276999198,23,0,,,209.5674276999198,209.76933859987184,1000,209.76933859987184,1000,1000,1000,1000,0,num_3,0.44518820010125637,,33,8,2026-03-12_17h53.54.207,2026A_exp2,2022.2.4,59.956243921078084,
1000,1,6.1,3.7,0,0,66,66,61,,,,,210.23462769994512,210.8854819999542,210.8854819999542,211.37015519989654,315,45,211.37015519989654,211.37015519989654,211.37015519989654,211.37015519989654,211.37015519989654,211.37015519989654,211.37015519989654,211.37015519989654,211.37015519989654,211.73632259992883,211.73632259992883,211.73632259992883,211.73632259992883,211.73632259992883,211.73632259992883,211.73632259992883,211.73632259992883,211.73632259992883,23,0,,,211.73632259992883,211.93853079993278,1000,211.93853079993278,1000,1000,1000,1000,0,num_3,0.4198660000693053,,33,8,2026-03-12_17h53.54.207,2026A_exp2,2022.2.4,59.956243921078084,
1000,1,6.1,0.0,0,0,67,67,68,,,,,212.38697519991547,213.04183260002173,213.04183260002173,213.53890759986825,315,45,213.53890759986825,213.53890759986825,213.53890759986825,213.53890759986825,213.53890759986825,213.53890759986825,213.53890759986825,213.53890759986825,213.53890759986825,213.88842360000126,213.88842360000126,213.88842360000126,213.88842360000126,213.88842360000126,213.88842360000126,213.88842360000126,213.88842360000126,213.88842360000126,22,0,,,213.88842360000126,214.09051089989953,1000,214.10542159993201,1000,1000,1000,1000,0,num_3,0.3409167001955211,,33,8,2026-03-12_17h53.54.207,2026A_exp2,2022.2.4,59.956243921078084,
1000,1,0.0,0.0,0,0,68,68,5,,,,,214.47230140003376,215.12308970000595,215.12308970000595,215.6240583998151,45,315,215.6240583998151,215.6240583998151,215.6240583998151,215.6240583998151,215.6240583998151,215.6240583998151,215.6240583998151,215.6240583998151,215.6240583998151,215.99037369992584,215.99037369992584,215.99037369992584,215.99037369992584,215.99037369992584,215.99037369992584,215.99037369992584,215.99037369992584,215.99037369992584,15,1,[0.0011946000158786774],[0.13363429997116327],215.99037369992584,216.19261409994215,1000,216.19261409994215,1000,1000,1000,1000,1,num_2,0.38207790022715926,,33,8,2026-03-12_17h53.54.207,2026A_exp2,2022.2.4,59.956243921078084,
1000,1,4.9,3.7,1,0,69,69,14,,,,,216.5911445999518,217.24182789982297,217.24182789982297,217.74280430004,315,45,217.74280430004,217.74280430004,217.74280430004,217.74280430004,217.74280430004,217.74280430004,217.74280430004,217.74280430004,217.74280430004,218.10921319993213,218.10921319993213,218.10921319993213,218.10921319993213,218.10921319993213,218.10921319993213,218.10921319993213,218.10921319993213,218.10921319993213,22,1,[0.3502273999620229],[0.36670239991508424],218.10921319993213,218.31124740000814,1000,218.31124740000814,1000,1000,1000,1000,0,num_3,0.463159300154075,,33,8,2026-03-12_17h53.54.207,2026A_exp2,2022.2.4,59.956243921078084,
1000,1,4.9,0.0,0,0,70,70,78,,,,,218.793244499946,219.44395759981126,219.44395759981126,219.94503319985233,45,315,219.94503319985233,219.94503319985233,219.94503319985233,219.94503319985233,219.94503319985233,219.94503319985233,219.94503319985233,219.94503319985233,219.94503319985233,220.29494869988412,220.29494869988412,220.29494869988412,220.29494869988412,220.29494869988412,220.29494869988412,220.29494869988412,220.29494869988412,220.29494869988412,20,2,"[0.13369260006584227, 0.2670674999244511]","[0.1501925999764353, 0.2836992999073118]",220.29494869988412,220.49690849985927,1000,220.51173849985935,1000,1000,1000,1000,0,num_3,0.3434886001050472,,33,8,2026-03-12_17h53.54.207,2026A_exp2,2022.2.4,59.956243921078084,
1000,1,4.9,4.9,1,0,71,71,60,,,,,220.87873779982328,221.52930799988098,221.52930799988098,222.03052229993045,315,315,222.03052229993045,222.03052229993045,222.03052229993045,222.03052229993045,222.03052229993045,222.03052229993045,222.03052229993045,222.03052229993045,222.03052229993045,222.39704909990542,222.39704909990542,222.39704909990542,222.39704909990542,222.39704909990542,222.39704909990542,222.39704909990542,222.39704909990542,222.39704909990542,18,2,"[0.0012336999643594027, 0.08347929990850389]","[0.06687820004299283, 0.1002324998844415]",222.39704909990542,222.5992669998668,1000,222.5992669998668,1000,1000,1000,1000,1,num_2,0.38369780010543764,,33,8,2026-03-12_17h53.54.207,2026A_exp2,2022.2.4,59.956243921078084,
1000,1,0.0,6.1,1,0,72,72,3,,,,,223.0143720000051,223.6649589999579,223.6649589999579,224.16586899990216,315,315,224.16586899990216,224.16586899990216,224.16586899990216,224.16586899990216,224.16586899990216,224.16586899990216,224.16586899990216,224.16586899990216,224.16586899990216,224.53248209995218,224.53248209995218,224.53248209995218,224.53248209995218,224.53248209995218,224.53248209995218,224.53248209995218,224.53248209995218,224.53248209995218,0,1,[0.0015314000193029642],[0.3670832999050617],224.53248209995218,224.7377652998548,1000,224.7377652998548,1000,1000,1000,1000,1,num_2,0.36501560010947287,,33,8,2026-03-12_17h53.54.207,2026A_exp2,2022.2.4,59.956243921078084,
1000,1,0.0,0.0,0,0,73,73,41,,,,,225.13290919992141,225.7836700999178,225.7836700999178,226.284598399885,315,45,226.284598399885,226.284598399885,226.284598399885,226.284598399885,226.284598399885,226.284598399885,226.284598399885,226.284598399885,226.284598399885,226.65108760003932,226.65108760003932,226.65108760003932,226.65108760003932,226.65108760003932,226.65108760003932,226.65108760003932,226.65108760003932,226.65108760003932,23,0,,,226.65108760003932,226.85157909989357,1000,226.85157909989357,1000,1000,1000,1000,1,num_2,0.5871715000830591,,33,8,2026-03-12_17h53.54.207,2026A_exp2,2022.2.4,59.956243921078084,
1,0,3.7,4.9,0,0,74,74,84,,,,,227.46873799990863,228.1194084000308,228.1194084000308,228.62039139983244,315,45,228.62039139983244,228.62039139983244,228.62039139983244,228.62039139983244,228.62039139983244,228.62039139983244,228.62039139983244,228.62039139983244,228.62039139983244,228.986945200013,228.986945200013,228.986945200013,228.986945200013,228.986945200013,228.986945200013,228.986945200013,228.986945200013,228.986945200013,4,2,"[0.017444399883970618, 0.08363049989566207]","[0.05024969996884465, 0.36734989983960986]",228.986945200013,229.1870762000326,3.7,229.1870762000326,0,3.7,1,0,1000,num_1,0.7404776001349092,,33,8,2026-03-12_17h53.54.207,2026A_exp2,2022.2.4,59.956243921078084,
1000,1,4.9,6.1,1,0,75,75,18,,,,,229.95445879991166,230.58869099989533,230.58869099989533,231.089488199912,45,45,231.089488199912,231.089488199912,231.089488199912,231.089488199912,231.089488199912,231.089488199912,231.089488199912,231.089488199912,231.089488199912,231.4559592998121,231.4559592998121,231.4559592998121,231.4559592998121,231.4559592998121,231.4559592998121,231.4559592998121,231.4559592998121,231.4559592998121,23,0,,,231.4559592998121,231.65831770002842,1000,231.65831770002842,1000,1000,1000,1000,1,num_2,0.5003708000294864,,33,8,2026-03-12_17h53.54.207,2026A_exp2,2022.2.4,59.956243921078084,
1,0,3.7,6.1,0,0,76,76,55,,,,,232.1902054999955,232.8409166999627,232.8409166999627,233.3422340999823,315,45,233.3422340999823,233.3422340999823,233.3422340999823,233.3422340999823,233.3422340999823,233.3422340999823,233.3422340999823,233.3422340999823,233.3422340999823,233.69163679983467,233.69163679983467,233.69163679983467,233.69163679983467,233.69163679983467,233.69163679983467,233.69163679983467,233.69163679983467,233.69163679983467,13,1,[0.21666919998824596],[0.3502213000319898],233.69163679983467,233.89187639998272,3.7,233.89187639998272,0,3.7,1,0,1000,num_1,0.8118408999871463,,33,8,2026-03-12_17h53.54.207,2026A_exp2,2022.2.4,59.956243921078084,
1000,1,0.0,6.1,0,0,77,77,83,,,,,234.7258625999093,235.3766689999029,235.3766689999029,235.86123629985377,45,45,235.86123629985377,235.86123629985377,235.86123629985377,235.86123629985377,235.86123629985377,235.86123629985377,235.86123629985377,235.86123629985377,235.86123629985377,236.22759779985063,236.22759779985063,236.22759779985063,236.22759779985063,236.22759779985063,236.22759779985063,236.22759779985063,236.22759779985063,236.22759779985063,22,1,[0.3672113998327404],[0.3672144999727607],236.22759779985063,236.42972879996523,1000,236.42972879996523,1000,1000,1000,1000,1,num_2,0.7059746002778411,,33,8,2026-03-12_17h53.54.207,2026A_exp2,2022.2.4,59.956243921078084,
1000,1,4.9,4.9,0,0,78,78,34,,,,,237.16182829998434,237.8124029999599,237.8124029999599,238.2967649998609,45,315,238.2967649998609,238.2967649998609,238.2967649998609,238.2967649998609,238.2967649998609,238.2967649998609,238.2967649998609,238.2967649998609,238.2967649998609,238.66313769994304,238.66313769994304,238.66313769994304,238.66313769994304,238.66313769994304,238.66313769994304,238.66313769994304,238.66313769994304,238.66313769994304,14,7,"[0.03342289989814162, 0.06686529982835054, 0.10011899983510375, 0.16684179985895753, 0.21700239996425807, 0.2504237999673933, 0.30029609985649586]","[0.05008840002119541, 0.08346810005605221, 0.15033470001071692, 0.18356819986365736, 0.23363599996082485, 0.2670217000413686, 0.3169970999006182]",238.66313769994304,238.86547019984573,1000,238.86547019984573,1000,1000,1000,1000,0,num_3,0.4134310001973063,,33,8,2026-03-12_17h53.54.207,2026A_exp2,2022.2.4,59.956243921078084,
1000,1,4.9,4.9,1,0,79,79,26,,,,,239.29732399992645,239.9592536999844,239.9592536999844,240.45337380003184,315,315,240.45337380003184,240.45337380003184,240.45337380003184,240.45337380003184,240.45337380003184,240.45337380003184,240.45337380003184,240.45337380003184,240.45337380003184,240.81530959997326,240.81530959997326,240.81530959997326,240.81530959997326,240.81530959997326,240.81530959997326,240.81530959997326,240.81530959997326,240.81530959997326,21,2,"[0.3159457999281585, 0.3657261999323964]","[0.3327160000335425, 0.3657313999719918]",240.81530959997326,241.0173591999337,1000,241.0173591999337,1000,1000,1000,1000,0,num_3,0.6701151002198458,,33,8,2026-03-12_17h53.54.207,2026A_exp2,2022.2.4,59.956243921078084,
1000,1,3.7,3.7,1,0,80,80,88,,,,,241.71623499994166,242.36684120004065,242.36684120004065,242.86800189991482,315,315,242.86800189991482,242.86800189991482,242.86800189991482,242.86800189991482,242.86800189991482,242.86800189991482,242.86800189991482,242.86800189991482,242.86800189991482,243.21786840003915,243.21786840003915,243.21786840003915,243.21786840003915,243.21786840003915,243.21786840003915,243.21786840003915,243.21786840003915,243.21786840003915,17,3,"[0.03344430006109178, 0.08353980001993477, 0.33369160001166165]","[0.05018050014041364, 0.11685320013202727, 0.3505266001448035]",243.21786840003915,243.41962499986403,1000,243.4347010999918,1000,1000,1000,1000,0,num_3,0.7801856000442058,,33,8,2026-03-12_17h53.54.207,2026A_exp2,2022.2.4,59.956243921078084,
1000,1,0.0,0.0,1,0,81,81,62,,,,,244.23538929992355,244.88621639995836,244.88621639995836,245.38732869992964,315,315,245.38732869992964,245.38732869992964,245.38732869992964,245.38732869992964,245.38732869992964,245.38732869992964,245.38732869992964,245.38732869992964,245.38732869992964,245.75380779989064,245.75380779989064,245.75380779989064,245.75380779989064,245.75380779989064,245.75380779989064,245.75380779989064,245.75380779989064,245.75380779989064,23,0,,,245.75380779989064,,1000,245.9544087999966,1000,1000,1000,1000,0,num_3,0.5642866000998765,,33,8,2026-03-12_17h53.54.207,2026A_exp2,2022.2.4,59.956243921078084,
1,0,6.1,0.0,1,0,82,82,38,,,,,246.5377931999974,247.18859709985554,247.18859709985554,247.68960539996624,315,315,247.68960539996624,247.68960539996624,247.68960539996624,247.68960539996624,247.68960539996624,247.68960539996624,247.68960539996624,247.68960539996624,247.68960539996624,248.0561573000159,248.0561573000159,248.0561573000159,248.0561573000159,248.0561573000159,248.0561573000159,248.0561573000159,248.0561573000159,248.0561573000159,3,1,[0.05033109989017248],[0.36693289992399514],248.0561573000159,248.25621049990878,0.0,248.25621049990878,0,0.0,0,1,1000,num_1,0.6384454001672566,,33,8,2026-03-12_17h53.54.207,2026A_exp2,2022.2.4,59.956243921078084,
1000,1,3.7,0.0,1,0,83,83,21,,,,,248.92338409996592,249.57420159992762,249.57420159992762,250.05847709998488,45,45,250.05847709998488,250.05847709998488,250.05847709998488,250.05847709998488,250.05847709998488,250.05847709998488,250.05847709998488,250.05847709998488,250.05847709998488,250.42506239982322,250.42506239982322,250.42506239982322,250.42506239982322,250.42506239982322,250.42506239982322,250.42506239982322,250.42506239982322,250.42506239982322,0,1,[0.0007070000283420086],[0.36746770003810525],250.42506239982322,250.6270474998746,1000,250.6270474998746,1000,1000,1000,1000,0,num_3,0.4765181001275778,,33,8,2026-03-12_17h53.54.207,2026A_exp2,2022.2.4,59.956243921078084,
1,0,6.1,0.0,0,0,84,84,24,,,,,251.1256976998411,251.77644299995154,251.77644299995154,252.2773682998959,315,315,252.2773682998959,252.2773682998959,252.2773682998959,252.2773682998959,252.2773682998959,252.2773682998959,252.2773682998959,252.2773682998959,252.2773682998959,252.6437583998777,252.6437583998777,252.6437583998777,252.6437583998777,252.6437583998777,252.6437583998777,252.6437583998777,252.6437583998777,252.6437583998777,0,1,[0.001611500047147274],[0.3668390999082476],252.6437583998777,252.8441182000097,6.1,252.8441182000097,0,6.1,1,0,1000,num_1,0.7393925001379102,,33,8,2026-03-12_17h53.54.207,2026A_exp2,2022.2.4,59.956243921078084,
1,0,0.0,3.7,1,0,85,85,12,,,,,253.61159239988774,254.2622807000298,254.2622807000298,254.74664109991863,315,315,254.74664109991863,254.74664109991863,254.74664109991863,254.74664109991863,254.74664109991863,254.74664109991863,254.74664109991863,254.74664109991863,254.74664109991863,255.1130599998869,255.1130599998869,255.1130599998869,255.1130599998869,255.1130599998869,255.1130599998869,255.1130599998869,255.1130599998869,255.1130599998869,2,3,"[0.0012141000479459763, 0.21714190021157265, 0.3002938001882285]","[0.2004006002098322, 0.28382680006325245, 0.3668677001260221]",255.1130599998869,255.31305859982967,3.7,255.31305859982967,1,3.7,1,1,1000,num_4,0.7980833002366126,,33,8,2026-03-12_17h53.54.207,2026A_exp2,2022.2.4,59.956243921078084,
1000,1,6.1,0.0,0,0,86,86,80,,,,,256.1307281998452,256.7811078999657,256.7811078999657,257.26573759992607,45,315,257.26573759992607,257.26573759992607,257.26573759992607,257.26573759992607,257.26573759992607,257.26573759992607,257.26573759992607,257.26573759992607,257.26573759992607,257.63389119994827,257.63389119994827,257.63389119994827,257.63389119994827,257.63389119994827,257.63389119994827,257.63389119994827,257.63389119994827,257.63389119994827,0,1,[0.0011909999884665012],[0.366755299968645],257.63389119994827,257.85117909987457,1000,257.85117909987457,1000,1000,1000,1000,0,num_3,0.4276614999398589,,33,8,2026-03-12_17h53.54.207,2026A_exp2,2022.2.4,59.956243921078084,
1000,1,3.7,3.7,0,0,87,87,16,,,,,258.29950840002857,258.9501565999817,258.9501565999817,259.4346511999611,45,45,259.4346511999611,259.4346511999611,259.4346511999611,259.4346511999611,259.4346511999611,259.4346511999611,259.4346511999611,259.4346511999611,259.4346511999611,259.80100489989854,259.80100489989854,259.80100489989854,259.80100489989854,259.80100489989854,259.80100489989854,259.80100489989854,259.80100489989854,259.80100489989854,0,1,[0.001195299904793501],[0.367346900049597],259.80100489989854,260.0029060000088,1000,260.0029060000088,1000,1000,1000,1000,0,num_3,0.5247787002008408,,33,8,2026-03-12_17h53.54.207,2026A_exp2,2022.2.4,59.956243921078084,
1000,1,6.1,0.0,0,0,88,88,58,,,,,260.5519703999162,261.2023149000015,261.2023149000015,261.7036532999482,45,45,261.7036532999482,261.7036532999482,261.7036532999482,261.7036532999482,261.7036532999482,261.7036532999482,261.7036532999482,261.7036532999482,261.7036532999482,262.0534403999336,262.0534403999336,262.0534403999336,262.0534403999336,262.0534403999336,262.0534403999336,262.0534403999336,262.0534403999336,262.0534403999336,0,1,[0.0007354998961091042],[0.35079810000024736],262.0534403999336,262.2539201998152,1000,262.2539201998152,1000,1000,1000,1000,0,num_3,0.4163302001543343,,33,8,2026-03-12_17h53.54.207,2026A_exp2,2022.2.4,59.956243921078084,
1,0,0.0,3.7,0,0,89,89,22,,,,,262.6873941998929,263.3379261000082,263.3379261000082,263.8390589999035,315,45,263.8390589999035,263.8390589999035,263.8390589999035,263.8390589999035,263.8390589999035,263.8390589999035,263.8390589999035,263.8390589999035,263.8390589999035,264.1888351999223,264.1888351999223,264.1888351999223,264.1888351999223,264.1888351999223,264.1888351999223,264.1888351999223,264.1888351999223,264.1888351999223,0,1,[0.0012024999596178532],[0.3507000000681728],264.1888351999223,264.38897139998153,0.0,264.40571790002286,0,0.0,0,1,1000,num_1,1.1455389000475407,,33,8,2026-03-12_17h53.54.207,2026A_exp2,2022.2.4,59.956243921078084,
,,,,,,,,,,,,,,,,,,,,,,,,,,,,,,,,,,,,,,,,,,,,,,,,,,,,265.57483489997685,,,,,,,
