validity,detectorcomp,contrastCW,contrastCCW,precueCWorCCW,block_80trials.thisRepN,block_80trials.thisTrialN,block_80trials.thisN,block_80trials.thisIndex,etRecord.started,etRecord.stopped,text.started,text.stopped,text_4.started,text_4.stopped,text_6.started,text_6.stopped,oriCW,oriCCW,roi_2.started,grating_UR.started,grating_UL.started,grating_LR.started,grating_LL.started,noise_UR.started,noise_UL.started,noise_LR.started,noise_LL.started,roi_2.stopped,grating_UR.stopped,grating_UL.stopped,grating_LR.stopped,grating_LL.stopped,noise_UR.stopped,noise_UL.stopped,noise_LR.stopped,noise_LL.stopped,outframe,roi_2.numLooks,roi_2.timesOn,roi_2.timesOff,text_2.started,text_2.stopped,probedcontrast,key_resp.started,respdetect,relevantContrast,correctDetect,TorFdetect,respCWorCCW,key_resp.keys,key_resp.rt,feedback_display_.started,participantNo,blockNo,date,expName,psychopyVersion,frameRate,
1,0,0.0,0.0,1,0,0,0,4,4.270000499673188e-05,4.270000499673188e-05,52.22358410002198,54.22874550000415,54.22874550000415,54.86081380001269,54.86081380001269,55.38532319999649,315,315,55.38532319999649,55.38532319999649,55.38532319999649,55.38532319999649,55.38532319999649,55.38532319999649,55.38532319999649,55.38532319999649,55.38532319999649,55.727738900022814,55.727738900022814,55.727738900022814,55.727738900022814,55.727738900022814,55.727738900022814,55.727738900022814,55.727738900022814,55.727738900022814,23,0,,,55.727738900022814,55.92806160001783,0.0,55.92806160001783,0,0.0,0,1,1000,num_1,0.5153816999809351,,18,15,2026-03-02_11h28.29.499,2026A_exp2,2022.2.4,59.817305978723944,
1000,1,3.7,6.1,1,0,1,1,43,,,,,56.46182310002041,57.09601820001262,57.09601820001262,57.59698220001883,45,315,57.59698220001883,57.59698220001883,57.59698220001883,57.59698220001883,57.59698220001883,57.59698220001883,57.59698220001883,57.59698220001883,57.59698220001883,57.963452099997085,57.963452099997085,57.963452099997085,57.963452099997085,57.963452099997085,57.963452099997085,57.963452099997085,57.963452099997085,57.963452099997085,23,0,,,57.963452099997085,58.16837170001236,1000,58.16837170001236,1000,1000,1000,1000,1,num_2,0.6118795000074897,,18,15,2026-03-02_11h28.29.499,2026A_exp2,2022.2.4,59.817305978723944,
1,0,4.9,3.7,1,0,2,2,71,,,,,58.79761480001616,59.448287300008815,59.448287300008815,59.94939809999778,45,315,59.94939809999778,59.94939809999778,59.94939809999778,59.94939809999778,59.94939809999778,59.94939809999778,59.94939809999778,59.94939809999778,59.94939809999778,60.315745400002925,60.315745400002925,60.315745400002925,60.315745400002925,60.315745400002925,60.315745400002925,60.315745400002925,60.315745400002925,60.315745400002925,23,0,,,60.315745400002925,60.51569080000627,3.7,60.51569080000627,1,3.7,1,1,1000,num_4,0.4162101999972947,,18,15,2026-03-02_11h28.29.499,2026A_exp2,2022.2.4,59.817305978723944,
1000,1,3.7,3.7,1,0,3,3,54,,,,,60.94973829999799,61.60038610000629,61.60038610000629,62.084865800017724,315,45,62.084865800017724,62.084865800017724,62.084865800017724,62.084865800017724,62.084865800017724,62.084865800017724,62.084865800017724,62.084865800017724,62.084865800017724,62.45130360001349,62.45130360001349,62.45130360001349,62.45130360001349,62.45130360001349,62.45130360001349,62.45130360001349,62.45130360001349,62.45130360001349,23,0,,,62.45130360001349,62.65325100001064,1000,62.65325100001064,1000,1000,1000,1000,1,num_2,0.535222899983637,,18,15,2026-03-02_11h28.29.499,2026A_exp2,2022.2.4,59.817305978723944,
1,0,0.0,0.0,0,0,4,4,85,,,,,63.21875230001751,63.86929970001802,63.86929970001802,64.37014660000568,315,315,64.37014660000568,64.37014660000568,64.37014660000568,64.37014660000568,64.37014660000568,64.37014660000568,64.37014660000568,64.37014660000568,64.37014660000568,64.7377206000092,64.7377206000092,64.7377206000092,64.7377206000092,64.7377206000092,64.7377206000092,64.7377206000092,64.7377206000092,64.7377206000092,23,0,,,64.7377206000092,64.93666910001775,0.0,64.93666910001775,0,0.0,0,1,1000,num_1,0.4437100999930408,,18,15,2026-03-02_11h28.29.499,2026A_exp2,2022.2.4,59.817305978723944,
1,0,6.1,3.7,1,0,5,5,16,,,,,65.40547220001463,66.05477810002048,66.05477810002048,66.55588070000522,315,45,66.55588070000522,66.55588070000522,66.55588070000522,66.55588070000522,66.55588070000522,66.55588070000522,66.55588070000522,66.55588070000522,66.55588070000522,66.9053980000026,66.9053980000026,66.9053980000026,66.9053980000026,66.9053980000026,66.9053980000026,66.9053980000026,66.9053980000026,66.9053980000026,22,0,,,66.9053980000026,67.10591390001355,3.7,67.10591390001355,1,3.7,1,1,1000,num_4,0.4897851999849081,,18,15,2026-03-02_11h28.29.499,2026A_exp2,2022.2.4,59.817305978723944,
1,0,0.0,0.0,1,0,6,6,59,,,,,67.6229659000237,68.27356800000416,68.27356800000416,68.75817970000207,45,45,68.75817970000207,68.75817970000207,68.75817970000207,68.75817970000207,68.75817970000207,68.75817970000207,68.75817970000207,68.75817970000207,68.75817970000207,69.12460730000748,69.12460730000748,69.12460730000748,69.12460730000748,69.12460730000748,69.12460730000748,69.12460730000748,69.12460730000748,69.12460730000748,23,0,,,69.12460730000748,69.32484880002448,0.0,69.32484880002448,0,0.0,0,1,1000,num_1,0.4477105000114534,,18,15,2026-03-02_11h28.29.499,2026A_exp2,2022.2.4,59.817305978723944,
1,0,0.0,0.0,0,0,7,7,22,,,,,69.79180390000693,70.442561200005,70.442561200005,70.92690459999721,45,45,70.92690459999721,70.92690459999721,70.92690459999721,70.92690459999721,70.92690459999721,70.92690459999721,70.92690459999721,70.92690459999721,70.92690459999721,71.29341150002438,71.29341150002438,71.29341150002438,71.29341150002438,71.29341150002438,71.29341150002438,71.29341150002438,71.29341150002438,71.29341150002438,23,0,,,71.29341150002438,71.4934708000219,0.0,71.4934708000219,0,0.0,0,1,1000,num_1,0.3029251999978442,,18,15,2026-03-02_11h28.29.499,2026A_exp2,2022.2.4,59.817305978723944,
1000,1,0.0,0.0,1,0,8,8,88,,,,,71.82711740001105,72.47807860001922,72.47807860001922,72.96224630001234,45,45,72.96224630001234,72.96224630001234,72.96224630001234,72.96224630001234,72.96224630001234,72.96224630001234,72.96224630001234,72.96224630001234,72.96224630001234,73.32862110002316,73.32862110002316,73.32862110002316,73.32862110002316,73.32862110002316,73.32862110002316,73.32862110002316,73.32862110002316,73.32862110002316,23,0,,,73.32862110002316,73.53096270002425,1000,73.53096270002425,1000,1000,1000,1000,0,num_3,1.0974105999921449,,18,15,2026-03-02_11h28.29.499,2026A_exp2,2022.2.4,59.817305978723944,
1,0,0.0,0.0,0,0,9,9,32,,,,,74.6475951000175,75.29738170001656,75.29738170001656,75.78172490000725,315,45,75.78172490000725,75.78172490000725,75.78172490000725,75.78172490000725,75.78172490000725,75.78172490000725,75.78172490000725,75.78172490000725,75.78172490000725,76.14841590001015,76.14841590001015,76.14841590001015,76.14841590001015,76.14841590001015,76.14841590001015,76.14841590001015,76.14841590001015,76.14841590001015,23,0,,,76.14841590001015,76.34878030000255,0.0,76.34878030000255,0,0.0,0,1,1000,num_1,0.5597316000203136,,18,15,2026-03-02_11h28.29.499,2026A_exp2,2022.2.4,59.817305978723944,
0,0,4.9,0.0,1,0,10,10,26,,,,,76.93221930001164,77.58292760001495,77.58292760001495,78.0675669000193,45,315,78.0675669000193,78.0675669000193,78.0675669000193,78.0675669000193,78.0675669000193,78.0675669000193,78.0675669000193,78.0675669000193,78.0675669000193,78.43395279999822,78.43395279999822,78.43395279999822,78.43395279999822,78.43395279999822,78.43395279999822,78.43395279999822,78.43395279999822,78.43395279999822,23,0,,,78.43395279999822,78.63418079999974,4.9,78.63418079999974,1,4.9,1,1,1000,num_4,0.801135300018359,,18,15,2026-03-02_11h28.29.499,2026A_exp2,2022.2.4,59.817305978723944,
0,0,6.1,4.9,1,0,11,11,42,,,,,79.45147390000056,80.10226490002242,80.10226490002242,80.58660420001252,45,45,80.58660420001252,80.58660420001252,80.58660420001252,80.58660420001252,80.58660420001252,80.58660420001252,80.58660420001252,80.58660420001252,80.58660420001252,80.95321470001363,80.95321470001363,80.95321470001363,80.95321470001363,80.95321470001363,80.95321470001363,80.95321470001363,80.95321470001363,80.95321470001363,23,0,,,80.95321470001363,81.15334540000185,6.1,81.15334540000185,1,6.1,1,1,1000,num_4,1.0827343000273686,,18,15,2026-03-02_11h28.29.499,2026A_exp2,2022.2.4,59.817305978723944,
0,0,0.0,4.9,1,0,12,12,0,,,,,82.25422620002064,82.90499340000679,82.90499340000679,83.38936510001076,315,45,83.38936510001076,83.38936510001076,83.38936510001076,83.38936510001076,83.38936510001076,83.38936510001076,83.38936510001076,83.38936510001076,83.38936510001076,83.75573840001016,83.75573840001016,83.75573840001016,83.75573840001016,83.75573840001016,83.75573840001016,83.75573840001016,83.75573840001016,83.75573840001016,23,0,,,83.75573840001016,83.95612280000933,0.0,83.95612280000933,0,0.0,0,1,1000,num_1,0.6718957000121009,,18,15,2026-03-02_11h28.29.499,2026A_exp2,2022.2.4,59.817305978723944,
1000,1,6.1,4.9,1,0,13,13,15,,,,,84.65692030001082,85.30740380001953,85.30740380001953,85.79183400000329,45,315,85.79183400000329,85.79183400000329,85.79183400000329,85.79183400000329,85.79183400000329,85.79183400000329,85.79183400000329,85.79183400000329,85.79183400000329,86.15834449999966,86.15834449999966,86.15834449999966,86.15834449999966,86.15834449999966,86.15834449999966,86.15834449999966,86.15834449999966,86.15834449999966,23,0,,,86.15834449999966,86.36061780000455,1000,86.36061780000455,1000,1000,1000,1000,1,num_2,0.5073242000071332,,18,15,2026-03-02_11h28.29.499,2026A_exp2,2022.2.4,59.817305978723944,
1000,1,0.0,4.9,1,0,14,14,57,,,,,86.89232310000807,87.54290349999792,87.54290349999792,88.02741420001257,315,315,88.02741420001257,88.02741420001257,88.02741420001257,88.02741420001257,88.02741420001257,88.02741420001257,88.02741420001257,88.02741420001257,88.02741420001257,88.39385140000377,88.39385140000377,88.39385140000377,88.39385140000377,88.39385140000377,88.39385140000377,88.39385140000377,88.39385140000377,88.39385140000377,23,0,,,88.39385140000377,88.5957515000191,1000,88.5957515000191,1000,1000,1000,1000,1,num_2,0.4406046000076458,,18,15,2026-03-02_11h28.29.499,2026A_exp2,2022.2.4,59.817305978723944,
0,0,0.0,4.9,1,0,15,15,33,,,,,89.06118070002412,89.71221800000058,89.71221800000058,90.1961658000073,45,45,90.1961658000073,90.1961658000073,90.1961658000073,90.1961658000073,90.1961658000073,90.1961658000073,90.1961658000073,90.1961658000073,90.1961658000073,90.56270680000307,90.56270680000307,90.56270680000307,90.56270680000307,90.56270680000307,90.56270680000307,90.56270680000307,90.56270680000307,90.56270680000307,23,0,,,90.56270680000307,90.7628367000143,0.0,90.7628367000143,0,0.0,0,1,1000,num_1,0.5614700999867637,,18,15,2026-03-02_11h28.29.499,2026A_exp2,2022.2.4,59.817305978723944,
0,0,0.0,6.1,1,0,16,16,46,,,,,91.34676980000222,91.99748449999606,91.99748449999606,92.48178250002093,315,45,92.48178250002093,92.48178250002093,92.48178250002093,92.48178250002093,92.48178250002093,92.48178250002093,92.48178250002093,92.48178250002093,92.48178250002093,92.84848840002087,92.84848840002087,92.84848840002087,92.84848840002087,92.84848840002087,92.84848840002087,92.84848840002087,92.84848840002087,92.84848840002087,23,0,,,92.84848840002087,93.04860219999682,0.0,93.04860219999682,0,0.0,0,1,1000,num_1,0.47625569999217987,,18,15,2026-03-02_11h28.29.499,2026A_exp2,2022.2.4,59.817305978723944,
1000,1,4.9,0.0,0,0,17,17,12,,,,,93.54889420000836,94.18295740001486,94.18295740001486,94.68372410000302,315,315,94.68372410000302,94.68372410000302,94.68372410000302,94.68372410000302,94.68372410000302,94.68372410000302,94.68372410000302,94.68372410000302,94.68372410000302,95.05050670000492,95.05050670000492,95.05050670000492,95.05050670000492,95.05050670000492,95.05050670000492,95.05050670000492,95.05050670000492,95.05050670000492,23,0,,,95.05050670000492,95.25055580001208,1000,95.25055580001208,1000,1000,1000,1000,0,num_3,0.5216469000151847,,18,15,2026-03-02_11h28.29.499,2026A_exp2,2022.2.4,59.817305978723944,
1,0,4.9,4.9,1,0,18,18,18,,,,,95.8020428000018,96.43512850001571,96.43512850001571,96.93625480000628,45,45,96.93625480000628,96.93625480000628,96.93625480000628,96.93625480000628,96.93625480000628,96.93625480000628,96.93625480000628,96.93625480000628,96.93625480000628,97.30272520001745,97.30272520001745,97.30272520001745,97.30272520001745,97.30272520001745,97.30272520001745,97.30272520001745,97.30272520001745,97.30272520001745,23,0,,,97.30272520001745,97.50310240002,4.9,97.50310240002,1,4.9,1,1,1000,num_4,0.58152579999296,,18,15,2026-03-02_11h28.29.499,2026A_exp2,2022.2.4,59.817305978723944,
1,0,0.0,6.1,1,0,19,19,5,,,,,98.1033560000069,98.75406239999575,98.75406239999575,99.2387079000182,315,315,99.2387079000182,99.2387079000182,99.2387079000182,99.2387079000182,99.2387079000182,99.2387079000182,99.2387079000182,99.2387079000182,99.2387079000182,99.60518480002065,99.60518480002065,99.60518480002065,99.60518480002065,99.60518480002065,99.60518480002065,99.60518480002065,99.60518480002065,99.60518480002065,23,0,,,99.60518480002065,99.80525220002164,6.1,99.80525220002164,1,6.1,1,1,1000,num_4,0.42288999998709187,,18,15,2026-03-02_11h28.29.499,2026A_exp2,2022.2.4,59.817305978723944,
1,0,0.0,3.7,0,0,20,20,31,,,,,100.25557730000583,100.90649080000003,100.90649080000003,101.39071590002277,315,45,101.39071590002277,101.39071590002277,101.39071590002277,101.39071590002277,101.39071590002277,101.39071590002277,101.39071590002277,101.39071590002277,101.39071590002277,101.75733280001441,101.75733280001441,101.75733280001441,101.75733280001441,101.75733280001441,101.75733280001441,101.75733280001441,101.75733280001441,101.75733280001441,23,0,,,101.75733280001441,101.95740440001828,0.0,101.95740440001828,0,0.0,0,1,1000,num_1,0.5423575000022538,,18,15,2026-03-02_11h28.29.499,2026A_exp2,2022.2.4,59.817305978723944,
1000,1,0.0,3.7,0,0,21,21,50,,,,,102.52453070000047,103.1752708000131,103.1752708000131,103.65945060001104,315,45,103.65945060001104,103.65945060001104,103.65945060001104,103.65945060001104,103.65945060001104,103.65945060001104,103.65945060001104,103.65945060001104,103.65945060001104,104.02618290000828,104.02618290000828,104.02618290000828,104.02618290000828,104.02618290000828,104.02618290000828,104.02618290000828,104.02618290000828,104.02618290000828,23,0,,,104.02618290000828,104.22665130000678,1000,104.22665130000678,1000,1000,1000,1000,1,num_2,0.4102555999998003,,18,15,2026-03-02_11h28.29.499,2026A_exp2,2022.2.4,59.817305978723944,
0,0,6.1,6.1,1,0,22,22,48,,,,,104.66016190001392,105.31070520001231,105.31070520001231,105.81198009999935,315,45,105.81198009999935,105.81198009999935,105.81198009999935,105.81198009999935,105.81198009999935,105.81198009999935,105.81198009999935,105.81198009999935,105.81198009999935,106.16166160002467,106.16166160002467,106.16166160002467,106.16166160002467,106.16166160002467,106.16166160002467,106.16166160002467,106.16166160002467,106.16166160002467,22,0,,,106.16166160002467,106.36188450001646,6.1,106.37855550000677,1,6.1,1,1,1000,num_4,1.3212796000007074,,18,15,2026-03-02_11h28.29.499,2026A_exp2,2022.2.4,59.817305978723944,
1,0,0.0,3.7,0,0,23,23,76,,,,,107.7296949000156,108.38042820000555,108.38042820000555,108.86483690000023,315,315,108.86483690000023,108.86483690000023,108.86483690000023,108.86483690000023,108.86483690000023,108.86483690000023,108.86483690000023,108.86483690000023,108.86483690000023,109.231491500017,109.231491500017,109.231491500017,109.231491500017,109.231491500017,109.231491500017,109.231491500017,109.231491500017,109.231491500017,23,0,,,109.231491500017,109.43168229999719,0.0,109.43168229999719,0,0.0,0,1,1000,num_1,0.9243878000124823,,18,15,2026-03-02_11h28.29.499,2026A_exp2,2022.2.4,59.817305978723944,
1000,1,3.7,0.0,1,0,24,24,78,,,,,110.38236020001932,111.01648120000027,111.01648120000027,111.51750300001004,45,45,111.51750300001004,111.51750300001004,111.51750300001004,111.51750300001004,111.51750300001004,111.51750300001004,111.51750300001004,111.51750300001004,111.51750300001004,111.8840637000103,111.8840637000103,111.8840637000103,111.8840637000103,111.8840637000103,111.8840637000103,111.8840637000103,111.8840637000103,111.8840637000103,23,0,,,111.8840637000103,112.08599000002141,1000,112.08599000002141,1000,1000,1000,1000,0,num_3,1.2945317000267096,,18,15,2026-03-02_11h28.29.499,2026A_exp2,2022.2.4,59.817305978723944,
1000,1,0.0,0.0,1,0,25,25,34,,,,,113.40205740000238,114.0527429000067,114.0527429000067,114.5540782000171,45,315,114.5540782000171,114.5540782000171,114.5540782000171,114.5540782000171,114.5540782000171,114.5540782000171,114.5540782000171,114.5540782000171,114.5540782000171,114.92040640002233,114.92040640002233,114.92040640002233,114.92040640002233,114.92040640002233,114.92040640002233,114.92040640002233,114.92040640002233,114.92040640002233,23,0,,,114.92040640002233,115.12286830000812,1000,115.12286830000812,1000,1000,1000,1000,0,num_3,0.5936340999905951,,18,15,2026-03-02_11h28.29.499,2026A_exp2,2022.2.4,59.817305978723944,
1000,1,6.1,6.1,0,0,26,26,87,,,,,115.73781730001792,116.38858820000314,116.38858820000314,116.88953559999936,315,315,116.88953559999936,116.88953559999936,116.88953559999936,116.88953559999936,116.88953559999936,116.88953559999936,116.88953559999936,116.88953559999936,116.88953559999936,117.25596989999758,117.25596989999758,117.25596989999758,117.25596989999758,117.25596989999758,117.25596989999758,117.25596989999758,117.25596989999758,117.25596989999758,23,0,,,117.25596989999758,117.45807490000152,1000,117.45807490000152,1000,1000,1000,1000,0,num_3,0.401804599998286,,18,15,2026-03-02_11h28.29.499,2026A_exp2,2022.2.4,59.817305978723944,
1,0,3.7,0.0,0,0,27,27,10,,,,,117.88989990000846,118.54055790000712,118.54055790000712,119.04168630001368,45,315,119.04168630001368,119.04168630001368,119.04168630001368,119.04168630001368,119.04168630001368,119.04168630001368,119.04168630001368,119.04168630001368,119.04168630001368,119.40817599999718,119.40817599999718,119.40817599999718,119.40817599999718,119.40817599999718,119.40817599999718,119.40817599999718,119.40817599999718,119.40817599999718,23,0,,,119.40817599999718,119.60834240002441,3.7,119.60834240002441,0,3.7,1,0,1000,num_1,0.9084610999852885,,18,15,2026-03-02_11h28.29.499,2026A_exp2,2022.2.4,59.817305978723944,
1,0,0.0,0.0,0,0,28,28,61,,,,,120.54257310001412,121.19330240000272,121.19330240000272,121.67776610000874,45,45,121.67776610000874,121.67776610000874,121.67776610000874,121.67776610000874,121.67776610000874,121.67776610000874,121.67776610000874,121.67776610000874,121.67776610000874,122.04420709999977,122.04420709999977,122.04420709999977,122.04420709999977,122.04420709999977,122.04420709999977,122.04420709999977,122.04420709999977,122.04420709999977,23,0,,,122.04420709999977,122.24431520001963,0.0,122.24431520001963,0,0.0,0,1,1000,num_1,0.687091200001305,,18,15,2026-03-02_11h28.29.499,2026A_exp2,2022.2.4,59.817305978723944,
1000,1,4.9,3.7,0,0,29,29,40,,,,,122.9615432000137,123.61222700000508,123.61222700000508,124.09676360001322,315,315,124.09676360001322,124.09676360001322,124.09676360001322,124.09676360001322,124.09676360001322,124.09676360001322,124.09676360001322,124.09676360001322,124.09676360001322,124.4631653999968,124.4631653999968,124.4631653999968,124.4631653999968,124.4631653999968,124.4631653999968,124.4631653999968,124.4631653999968,124.4631653999968,23,0,,,124.4631653999968,124.663515799999,1000,124.663515799999,1000,1000,1000,1000,0,num_3,0.78081649998785,,18,15,2026-03-02_11h28.29.499,2026A_exp2,2022.2.4,59.817305978723944,
1,0,4.9,6.1,0,0,30,30,29,,,,,125.4646585000155,126.11452560001635,126.11452560001635,126.59927850001259,45,315,126.59927850001259,126.59927850001259,126.59927850001259,126.59927850001259,126.59927850001259,126.59927850001259,126.59927850001259,126.59927850001259,126.59927850001259,126.96588550001616,126.96588550001616,126.96588550001616,126.96588550001616,126.96588550001616,126.96588550001616,126.96588550001616,126.96588550001616,126.96588550001616,23,0,,,126.96588550001616,127.16588640000555,4.9,127.16588640000555,0,4.9,1,0,1000,num_1,1.278244800021639,,18,15,2026-03-02_11h28.29.499,2026A_exp2,2022.2.4,59.817305978723944,
1000,1,0.0,0.0,0,0,31,31,24,,,,,128.46714429999702,129.10111840002355,129.10111840002355,129.6023725999985,45,45,129.6023725999985,129.6023725999985,129.6023725999985,129.6023725999985,129.6023725999985,129.6023725999985,129.6023725999985,129.6023725999985,129.6023725999985,129.9688015000138,129.9688015000138,129.9688015000138,129.9688015000138,129.9688015000138,129.9688015000138,129.9688015000138,129.9688015000138,129.9688015000138,23,0,,,129.9688015000138,130.1707607000135,1000,130.1707607000135,1000,1000,1000,1000,1,num_2,0.9687928000057582,,18,15,2026-03-02_11h28.29.499,2026A_exp2,2022.2.4,59.817305978723944,
1000,1,0.0,3.7,1,0,32,32,82,,,,,131.1700494000106,131.8206257999991,131.8206257999991,132.30509950002306,315,315,132.30509950002306,132.30509950002306,132.30509950002306,132.30509950002306,132.30509950002306,132.30509950002306,132.30509950002306,132.30509950002306,132.30509950002306,132.67137870000442,132.67137870000442,132.67137870000442,132.67137870000442,132.67137870000442,132.67137870000442,132.67137870000442,132.67137870000442,132.67137870000442,23,0,,,132.67137870000442,132.8736800000188,1000,132.8736800000188,1000,1000,1000,1000,1,num_2,0.8901534999895375,,18,15,2026-03-02_11h28.29.499,2026A_exp2,2022.2.4,59.817305978723944,
1,0,0.0,3.7,0,0,33,33,64,,,,,133.7891435000056,134.43989730000612,134.43989730000612,134.94106740001007,315,45,134.94106740001007,134.94106740001007,134.94106740001007,134.94106740001007,134.94106740001007,134.94106740001007,134.94106740001007,134.94106740001007,134.94106740001007,135.29077730001882,135.29077730001882,135.29077730001882,135.29077730001882,135.29077730001882,135.29077730001882,135.29077730001882,135.29077730001882,135.29077730001882,22,0,,,135.29077730001882,135.4908750000177,0.0,135.4908750000177,0,0.0,0,1,1000,num_1,0.937510799994925,,18,15,2026-03-02_11h28.29.499,2026A_exp2,2022.2.4,59.817305978723944,
0,0,3.7,3.7,1,0,34,34,62,,,,,136.45845000000554,137.10928150001564,137.10928150001564,137.59361070001614,315,45,137.59361070001614,137.59361070001614,137.59361070001614,137.59361070001614,137.59361070001614,137.59361070001614,137.59361070001614,137.59361070001614,137.59361070001614,137.96009730000515,137.96009730000515,137.96009730000515,137.96009730000515,137.96009730000515,137.96009730000515,137.96009730000515,137.96009730000515,137.96009730000515,23,0,,,137.96009730000515,138.160200000013,3.7,138.160200000013,0,3.7,1,0,1000,num_1,0.8761411000159569,,18,15,2026-03-02_11h28.29.499,2026A_exp2,2022.2.4,59.817305978723944,
1,0,0.0,3.7,1,0,35,35,30,,,,,139.0610602000088,139.71174389999942,139.71174389999942,140.19635790001485,315,45,140.19635790001485,140.19635790001485,140.19635790001485,140.19635790001485,140.19635790001485,140.19635790001485,140.19635790001485,140.19635790001485,140.19635790001485,140.56259230000433,140.56259230000433,140.56259230000433,140.56259230000433,140.56259230000433,140.56259230000433,140.56259230000433,140.56259230000433,140.56259230000433,23,0,,,140.56259230000433,140.7628345999983,3.7,140.7628345999983,1,3.7,1,1,1000,num_4,0.43359199998667464,,18,15,2026-03-02_11h28.29.499,2026A_exp2,2022.2.4,59.817305978723944,
1,0,3.7,6.1,1,0,36,36,75,,,,,141.2134355000162,141.86383280000882,141.86383280000882,142.34858410002198,45,45,142.34858410002198,142.34858410002198,142.34858410002198,142.34858410002198,142.34858410002198,142.34858410002198,142.34858410002198,142.34858410002198,142.34858410002198,142.71479240001645,142.71479240001645,142.71479240001645,142.71479240001645,142.71479240001645,142.71479240001645,142.71479240001645,142.71479240001645,142.71479240001645,23,0,,,142.71479240001645,142.9149978000205,6.1,142.9149978000205,1,6.1,1,1,1000,num_4,0.27370230000815354,,18,15,2026-03-02_11h28.29.499,2026A_exp2,2022.2.4,59.817305978723944,
1000,1,0.0,6.1,0,0,37,37,27,,,,,143.21521560000838,143.86600400001043,143.86600400001043,144.3505165000097,45,45,144.3505165000097,144.3505165000097,144.3505165000097,144.3505165000097,144.3505165000097,144.3505165000097,144.3505165000097,144.3505165000097,144.3505165000097,144.71644910000032,144.71644910000032,144.71644910000032,144.71644910000032,144.71644910000032,144.71644910000032,144.71644910000032,144.71644910000032,144.71644910000032,23,0,,,144.71644910000032,144.91875290000462,1000,144.91875290000462,1000,1000,1000,1000,1,num_2,0.860864499991294,,18,15,2026-03-02_11h28.29.499,2026A_exp2,2022.2.4,59.817305978723944,
1000,1,3.7,0.0,1,0,38,38,19,,,,,145.80122530000517,146.45184160000645,146.45184160000645,146.95271890002186,315,45,146.95271890002186,146.95271890002186,146.95271890002186,146.95271890002186,146.95271890002186,146.95271890002186,146.95271890002186,146.95271890002186,146.95271890002186,147.3028024000232,147.3028024000232,147.3028024000232,147.3028024000232,147.3028024000232,147.3028024000232,147.3028024000232,147.3028024000232,147.3028024000232,22,0,,,147.3028024000232,147.5048025000142,1000,147.5048025000142,1000,1000,1000,1000,0,num_3,0.7629790999926627,,18,15,2026-03-02_11h28.29.499,2026A_exp2,2022.2.4,59.817305978723944,
1000,1,3.7,4.9,0,0,39,39,25,,,,,148.28682690000278,148.9377233000123,148.9377233000123,149.43889630000922,45,315,149.43889630000922,149.43889630000922,149.43889630000922,149.43889630000922,149.43889630000922,149.43889630000922,149.43889630000922,149.43889630000922,149.43889630000922,149.8052871999971,149.8052871999971,149.8052871999971,149.8052871999971,149.8052871999971,149.8052871999971,149.8052871999971,149.8052871999971,149.8052871999971,23,0,,,149.8052871999971,150.00723879999714,1000,150.00723879999714,1000,1000,1000,1000,0,num_3,0.5487320000247564,,18,15,2026-03-02_11h28.29.499,2026A_exp2,2022.2.4,59.817305978723944,
0,0,0.0,0.0,1,0,40,40,80,,,,,150.57255270000314,151.22341390000656,151.22341390000656,151.72436370002106,315,315,151.72436370002106,151.72436370002106,151.72436370002106,151.72436370002106,151.72436370002106,151.72436370002106,151.72436370002106,151.72436370002106,151.72436370002106,152.09085320000304,152.09085320000304,152.09085320000304,152.09085320000304,152.09085320000304,152.09085320000304,152.09085320000304,152.09085320000304,152.09085320000304,23,0,,,152.09085320000304,152.29104010001174,0.0,152.29104010001174,1,0.0,0,0,1000,num_4,1.3776452000020072,,18,15,2026-03-02_11h28.29.499,2026A_exp2,2022.2.4,59.817305978723944,
1000,1,3.7,0.0,0,0,41,41,81,,,,,153.69255279999925,154.34388550001313,154.34388550001313,154.84443180001108,45,45,154.84443180001108,154.84443180001108,154.84443180001108,154.84443180001108,154.84443180001108,154.84443180001108,154.84443180001108,154.84443180001108,154.84443180001108,155.21056820001104,155.21056820001104,155.21056820001104,155.21056820001104,155.21056820001104,155.21056820001104,155.21056820001104,155.21056820001104,155.21056820001104,23,0,,,155.21056820001104,155.41086030000588,1000,155.41086030000588,1000,1000,1000,1000,0,num_3,0.46500060000107624,,18,15,2026-03-02_11h28.29.499,2026A_exp2,2022.2.4,59.817305978723944,
1,0,3.7,3.7,0,0,42,42,8,,,,,155.89492950000567,156.5452634000103,156.5452634000103,157.04643600000418,315,315,157.04643600000418,157.04643600000418,157.04643600000418,157.04643600000418,157.04643600000418,157.04643600000418,157.04643600000418,157.04643600000418,157.04643600000418,157.4129365000117,157.4129365000117,157.4129365000117,157.4129365000117,157.4129365000117,157.4129365000117,157.4129365000117,157.4129365000117,157.4129365000117,23,0,,,157.4129365000117,157.6131159000215,3.7,157.6131159000215,1,3.7,1,1,1000,num_4,0.5424098999937996,,18,15,2026-03-02_11h28.29.499,2026A_exp2,2022.2.4,59.817305978723944,
1000,1,0.0,0.0,1,0,43,43,35,,,,,158.1802971000143,158.83115949999774,158.83115949999774,159.3152596,315,45,159.3152596,159.3152596,159.3152596,159.3152596,159.3152596,159.3152596,159.3152596,159.3152596,159.3152596,159.6818629000045,159.6818629000045,159.6818629000045,159.6818629000045,159.6818629000045,159.6818629000045,159.6818629000045,159.6818629000045,159.6818629000045,23,0,,,159.6818629000045,159.8837434000161,1000,159.8837434000161,1000,1000,1000,1000,0,num_3,1.5036904999869876,,18,15,2026-03-02_11h28.29.499,2026A_exp2,2022.2.4,59.817305978723944,
1,0,0.0,4.9,1,0,44,44,73,,,,,161.41694460000144,162.0674078000011,162.0674078000011,162.56860660001985,45,315,162.56860660001985,162.56860660001985,162.56860660001985,162.56860660001985,162.56860660001985,162.56860660001985,162.56860660001985,162.56860660001985,162.56860660001985,162.93506920000073,162.93506920000073,162.93506920000073,162.93506920000073,162.93506920000073,162.93506920000073,162.93506920000073,162.93506920000073,162.93506920000073,23,0,,,162.93506920000073,163.13529259999632,4.9,163.13529259999632,1,4.9,1,1,1000,num_4,0.41268680000212044,,18,15,2026-03-02_11h28.29.499,2026A_exp2,2022.2.4,59.817305978723944,
1,0,0.0,0.0,0,0,45,45,6,,,,,163.56911040001432,164.20878190000076,164.20878190000076,164.71817619999638,45,315,164.71817619999638,164.71817619999638,164.71817619999638,164.71817619999638,164.71817619999638,164.71817619999638,164.71817619999638,164.71817619999638,164.71817619999638,165.0706745000207,165.0706745000207,165.0706745000207,165.0706745000207,165.0706745000207,165.0706745000207,165.0706745000207,165.0706745000207,165.0706745000207,23,0,,,165.0706745000207,165.2744085000013,0.0,165.2744085000013,1,0.0,0,0,1000,num_4,0.5696716000093147,,18,15,2026-03-02_11h28.29.499,2026A_exp2,2022.2.4,59.817305978723944,
1,0,0.0,0.0,1,0,46,46,20,,,,,165.87113970000064,166.52223630002118,166.52223630002118,167.00633740000194,315,45,167.00633740000194,167.00633740000194,167.00633740000194,167.00633740000194,167.00633740000194,167.00633740000194,167.00633740000194,167.00633740000194,167.00633740000194,167.37280540002394,167.37280540002394,167.37280540002394,167.37280540002394,167.37280540002394,167.37280540002394,167.37280540002394,167.37280540002394,167.37280540002394,23,0,,,167.37280540002394,167.57292870001402,0.0,167.57292870001402,1,0.0,0,0,1000,num_4,0.47075030000996776,,18,15,2026-03-02_11h28.29.499,2026A_exp2,2022.2.4,59.817305978723944,
1,0,6.1,6.1,1,0,47,47,49,,,,,168.07335570000578,168.72425680002198,168.72425680002198,169.20864510000683,315,315,169.20864510000683,169.20864510000683,169.20864510000683,169.20864510000683,169.20864510000683,169.20864510000683,169.20864510000683,169.20864510000683,169.20864510000683,169.57510330001242,169.57510330001242,169.57510330001242,169.57510330001242,169.57510330001242,169.57510330001242,169.57510330001242,169.57510330001242,169.57510330001242,23,0,,,169.57510330001242,169.77525910001714,6.1,169.77525910001714,1,6.1,1,1,1000,num_4,0.36467400001129135,,18,15,2026-03-02_11h28.29.499,2026A_exp2,2022.2.4,59.817305978723944,
1,0,6.1,0.0,0,0,48,48,51,,,,,170.15885470001376,170.81043260000297,170.81043260000297,171.29412880001473,315,45,171.29412880001473,171.29412880001473,171.29412880001473,171.29412880001473,171.29412880001473,171.29412880001473,171.29412880001473,171.29412880001473,171.29412880001473,171.6603391999961,171.6603391999961,171.6603391999961,171.6603391999961,171.6603391999961,171.6603391999961,171.6603391999961,171.6603391999961,171.6603391999961,23,0,,,171.6603391999961,171.86070000001928,6.1,171.86070000001928,1,6.1,1,1,1000,num_4,0.3033945999923162,,18,15,2026-03-02_11h28.29.499,2026A_exp2,2022.2.4,59.817305978723944,
1000,1,6.1,4.9,1,0,49,49,86,,,,,172.1941552000062,172.83973010000773,172.83973010000773,173.32937950000633,45,315,173.32937950000633,173.32937950000633,173.32937950000633,173.32937950000633,173.32937950000633,173.32937950000633,173.32937950000633,173.32937950000633,173.32937950000633,173.69581010000547,173.69581010000547,173.69581010000547,173.69581010000547,173.69581010000547,173.69581010000547,173.69581010000547,173.69581010000547,173.69581010000547,23,0,,,173.69581010000547,173.89626210002461,1000,173.89626210002461,1000,1000,1000,1000,1,num_2,0.6513208999822382,,18,15,2026-03-02_11h28.29.499,2026A_exp2,2022.2.4,59.817305978723944,
1000,1,0.0,4.9,1,0,50,50,72,,,,,174.56335229999968,175.21415820001857,175.21415820001857,175.7152474000177,45,45,175.7152474000177,175.7152474000177,175.7152474000177,175.7152474000177,175.7152474000177,175.7152474000177,175.7152474000177,175.7152474000177,175.7152474000177,176.08149550002418,176.08149550002418,176.08149550002418,176.08149550002418,176.08149550002418,176.08149550002418,176.08149550002418,176.08149550002418,176.08149550002418,23,0,,,176.08149550002418,176.28204020002158,1000,176.28204020002158,1000,1000,1000,1000,1,num_2,0.4983219000278041,,18,15,2026-03-02_11h28.29.499,2026A_exp2,2022.2.4,59.817305978723944,
1000,1,6.1,6.1,1,0,51,51,53,,,,,176.8022894000169,177.4496622000006,177.4496622000006,177.9505727000069,315,315,177.9505727000069,177.9505727000069,177.9505727000069,177.9505727000069,177.9505727000069,177.9505727000069,177.9505727000069,177.9505727000069,177.9505727000069,178.31712360001984,178.31712360001984,178.31712360001984,178.31712360001984,178.31712360001984,178.31712360001984,178.31712360001984,178.31712360001984,178.31712360001984,23,0,,,178.31712360001984,178.51955330002238,1000,178.51955330002238,1000,1000,1000,1000,1,num_2,0.4601863999851048,,18,15,2026-03-02_11h28.29.499,2026A_exp2,2022.2.4,59.817305978723944,
1000,1,4.9,0.0,1,0,52,52,74,,,,,179.001115400024,179.6623116999981,179.6623116999981,180.15292170000612,315,45,180.15292170000612,180.15292170000612,180.15292170000612,180.15292170000612,180.15292170000612,180.15292170000612,180.15292170000612,180.15292170000612,180.15292170000612,180.51930370001355,180.51930370001355,180.51930370001355,180.51930370001355,180.51930370001355,180.51930370001355,180.51930370001355,180.51930370001355,180.51930370001355,23,0,,,180.51930370001355,180.71939600000042,1000,180.71939600000042,1000,1000,1000,1000,0,num_3,0.46831660001771525,,18,15,2026-03-02_11h28.29.499,2026A_exp2,2022.2.4,59.817305978723944,
1000,1,4.9,0.0,0,0,53,53,45,,,,,181.20326150002074,181.85400780002237,181.85400780002237,182.35503520001657,45,315,182.35503520001657,182.35503520001657,182.35503520001657,182.35503520001657,182.35503520001657,182.35503520001657,182.35503520001657,182.35503520001657,182.35503520001657,182.72153790001175,182.72153790001175,182.72153790001175,182.72153790001175,182.72153790001175,182.72153790001175,182.72153790001175,182.72153790001175,182.72153790001175,23,0,,,182.72153790001175,182.92328489999636,1000,182.92328489999636,1000,1000,1000,1000,0,num_3,0.35244640000746585,,18,15,2026-03-02_11h28.29.499,2026A_exp2,2022.2.4,59.817305978723944,
1000,1,0.0,0.0,0,0,54,54,2,,,,,183.30561959999613,183.95607559999917,183.95607559999917,184.4577244000102,315,315,184.4577244000102,184.4577244000102,184.4577244000102,184.4577244000102,184.4577244000102,184.4577244000102,184.4577244000102,184.4577244000102,184.4577244000102,184.8068295000121,184.8068295000121,184.8068295000121,184.8068295000121,184.8068295000121,184.8068295000121,184.8068295000121,184.8068295000121,184.8068295000121,22,0,,,184.8068295000121,185.00723820002167,1000,185.0237731000234,1000,1000,1000,1000,0,num_3,0.7005343999771867,,18,15,2026-03-02_11h28.29.499,2026A_exp2,2022.2.4,59.817305978723944,
1,0,0.0,0.0,0,0,55,55,39,,,,,185.7412558000069,186.3915879999986,186.3915879999986,186.87646240001777,45,45,186.87646240001777,186.87646240001777,186.87646240001777,186.87646240001777,186.87646240001777,186.87646240001777,186.87646240001777,186.87646240001777,186.87646240001777,187.2427147999988,187.2427147999988,187.2427147999988,187.2427147999988,187.2427147999988,187.2427147999988,187.2427147999988,187.2427147999988,187.2427147999988,23,0,,,187.2427147999988,187.4429115000239,0.0,187.4429115000239,1,0.0,0,0,1000,num_4,0.9205025999981444,,18,15,2026-03-02_11h28.29.499,2026A_exp2,2022.2.4,59.817305978723944,
0,0,0.0,0.0,1,0,56,56,14,,,,,188.3937186000112,189.04442370001925,189.04442370001925,189.52894070002367,315,315,189.52894070002367,189.52894070002367,189.52894070002367,189.52894070002367,189.52894070002367,189.52894070002367,189.52894070002367,189.52894070002367,189.52894070002367,189.895279999997,189.895279999997,189.895279999997,189.895279999997,189.895279999997,189.895279999997,189.895279999997,189.895279999997,189.895279999997,23,0,,,189.895279999997,190.09565669999574,0.0,190.09565669999574,0,0.0,0,1,1000,num_1,1.1398984999977984,,18,15,2026-03-02_11h28.29.499,2026A_exp2,2022.2.4,59.817305978723944,
1,0,4.9,4.9,0,0,57,57,28,,,,,191.26335530000506,191.89746750000631,191.89746750000631,192.3983811000071,45,315,192.3983811000071,192.3983811000071,192.3983811000071,192.3983811000071,192.3983811000071,192.3983811000071,192.3983811000071,192.3983811000071,192.3983811000071,192.76489390002098,192.76489390002098,192.76489390002098,192.76489390002098,192.76489390002098,192.76489390002098,192.76489390002098,192.76489390002098,192.76489390002098,23,0,,,192.76489390002098,192.96503150000353,4.9,192.96503150000353,1,4.9,1,1,1000,num_4,0.42271090002031997,,18,15,2026-03-02_11h28.29.499,2026A_exp2,2022.2.4,59.817305978723944,
1000,1,0.0,4.9,0,0,58,58,23,,,,,193.41539229999762,194.06620309999562,194.06620309999562,194.5506635000056,315,45,194.5506635000056,194.5506635000056,194.5506635000056,194.5506635000056,194.5506635000056,194.5506635000056,194.5506635000056,194.5506635000056,194.5506635000056,194.91709280002397,194.91709280002397,194.91709280002397,194.91709280002397,194.91709280002397,194.91709280002397,194.91709280002397,194.91709280002397,194.91709280002397,23,0,,,194.91709280002397,195.1195466000063,1000,195.1195466000063,1000,1000,1000,1000,1,num_2,0.5239921000029426,,18,15,2026-03-02_11h28.29.499,2026A_exp2,2022.2.4,59.817305978723944,
1,0,3.7,3.7,0,0,59,59,60,,,,,195.66769920001389,196.31839840000612,196.31839840000612,196.81955350001226,45,315,196.81955350001226,196.81955350001226,196.81955350001226,196.81955350001226,196.81955350001226,196.81955350001226,196.81955350001226,196.81955350001226,196.81955350001226,197.18596709999838,197.18596709999838,197.18596709999838,197.18596709999838,197.18596709999838,197.18596709999838,197.18596709999838,197.18596709999838,197.18596709999838,23,0,,,197.18596709999838,197.38607680000132,3.7,197.38607680000132,1,3.7,1,1,1000,num_4,0.8973852000199258,,18,15,2026-03-02_11h28.29.499,2026A_exp2,2022.2.4,59.817305978723944,
0,0,4.9,6.1,1,0,60,60,70,,,,,198.30354610001086,198.95443490002071,198.95443490002071,199.43843470001593,45,45,199.43843470001593,199.43843470001593,199.43843470001593,199.43843470001593,199.43843470001593,199.43843470001593,199.43843470001593,199.43843470001593,199.43843470001593,199.80496960002347,199.80496960002347,199.80496960002347,199.80496960002347,199.80496960002347,199.80496960002347,199.80496960002347,199.80496960002347,199.80496960002347,23,0,,,199.80496960002347,200.00549730000785,4.9,200.00549730000785,0,4.9,1,0,1000,num_1,0.6469311999971978,,18,15,2026-03-02_11h28.29.499,2026A_exp2,2022.2.4,59.817305978723944,
1,0,3.7,0.0,0,0,61,61,7,,,,,200.67264360000263,201.32338270000764,201.32338270000764,201.80793430001359,45,45,201.80793430001359,201.80793430001359,201.80793430001359,201.80793430001359,201.80793430001359,201.80793430001359,201.80793430001359,201.80793430001359,201.80793430001359,202.17426359999808,202.17426359999808,202.17426359999808,202.17426359999808,202.17426359999808,202.17426359999808,202.17426359999808,202.17426359999808,202.17426359999808,23,0,,,202.17426359999808,202.37452179999673,3.7,202.37452179999673,1,3.7,1,1,1000,num_4,0.445085499988636,,18,15,2026-03-02_11h28.29.499,2026A_exp2,2022.2.4,59.817305978723944,
1,0,4.9,6.1,1,0,62,62,36,,,,,202.84145259999787,203.49229220001143,203.49229220001143,203.98063840001123,315,45,203.98063840001123,203.98063840001123,203.98063840001123,203.98063840001123,203.98063840001123,203.98063840001123,203.98063840001123,203.98063840001123,203.98063840001123,204.3431838999968,204.3431838999968,204.3431838999968,204.3431838999968,204.3431838999968,204.3431838999968,204.3431838999968,204.3431838999968,204.3431838999968,23,0,,,204.3431838999968,204.54326910001691,6.1,204.54326910001691,1,6.1,1,1,1000,num_4,0.32442690001334995,,18,15,2026-03-02_11h28.29.499,2026A_exp2,2022.2.4,59.817305978723944,
1000,1,4.9,0.0,1,0,63,63,84,,,,,204.89356369999587,205.527505200007,205.527505200007,206.0286596000078,315,45,206.0286596000078,206.0286596000078,206.0286596000078,206.0286596000078,206.0286596000078,206.0286596000078,206.0286596000078,206.0286596000078,206.0286596000078,206.39518010002212,206.39518010002212,206.39518010002212,206.39518010002212,206.39518010002212,206.39518010002212,206.39518010002212,206.39518010002212,206.39518010002212,23,0,,,206.39518010002212,206.59558630001266,1000,206.59558630001266,1000,1000,1000,1000,0,num_3,0.43294759999844246,,18,15,2026-03-02_11h28.29.499,2026A_exp2,2022.2.4,59.817305978723944,
1000,1,3.7,0.0,1,0,64,64,52,,,,,207.04598300001817,207.6964954000141,207.6964954000141,208.18080070000724,315,315,208.18080070000724,208.18080070000724,208.18080070000724,208.18080070000724,208.18080070000724,208.18080070000724,208.18080070000724,208.18080070000724,208.18080070000724,208.54741440000362,208.54741440000362,208.54741440000362,208.54741440000362,208.54741440000362,208.54741440000362,208.54741440000362,208.54741440000362,208.54741440000362,23,0,,,208.54741440000362,208.7493630000099,1000,208.7493630000099,1000,1000,1000,1000,0,num_3,0.36666639999020845,,18,15,2026-03-02_11h28.29.499,2026A_exp2,2022.2.4,59.817305978723944,
1000,1,0.0,3.7,1,0,65,65,67,,,,,209.13117560002138,209.78191020002123,209.78191020002123,210.2865640000091,45,45,210.2865640000091,210.2865640000091,210.2865640000091,210.2865640000091,210.2865640000091,210.2865640000091,210.2865640000091,210.2865640000091,210.2865640000091,210.6328914000187,210.6328914000187,210.6328914000187,210.6328914000187,210.6328914000187,210.6328914000187,210.6328914000187,210.6328914000187,210.6328914000187,22,0,,,210.6328914000187,210.8478110000142,1000,210.8478110000142,1000,1000,1000,1000,1,num_2,0.39646620000712574,,18,15,2026-03-02_11h28.29.499,2026A_exp2,2022.2.4,59.817305978723944,
1000,1,3.7,0.0,0,0,66,66,55,,,,,211.2667536000081,211.91726260000723,211.91726260000723,212.40166420000605,45,315,212.40166420000605,212.40166420000605,212.40166420000605,212.40166420000605,212.40166420000605,212.40166420000605,212.40166420000605,212.40166420000605,212.40166420000605,212.7682671000075,212.7682671000075,212.7682671000075,212.7682671000075,212.7682671000075,212.7682671000075,212.7682671000075,212.7682671000075,212.7682671000075,23,0,,,212.7682671000075,212.97059620000073,1000,212.97059620000073,1000,1000,1000,1000,1,num_2,0.832735700008925,,18,15,2026-03-02_11h28.29.499,2026A_exp2,2022.2.4,59.817305978723944,
1000,1,0.0,0.0,0,0,67,67,13,,,,,213.81910350002,214.46967459999723,214.46967459999723,214.95438209999702,45,45,214.95438209999702,214.95438209999702,214.95438209999702,214.95438209999702,214.95438209999702,214.95438209999702,214.95438209999702,214.95438209999702,214.95438209999702,215.32079690002138,215.32079690002138,215.32079690002138,215.32079690002138,215.32079690002138,215.32079690002138,215.32079690002138,215.32079690002138,215.32079690002138,23,0,,,215.32079690002138,215.52097760001197,1000,215.52097760001197,1000,1000,1000,1000,0,num_3,0.5714318999962416,,18,15,2026-03-02_11h28.29.499,2026A_exp2,2022.2.4,59.817305978723944,
1,0,0.0,4.9,1,0,68,68,41,,,,,216.12138840000262,216.77251090001664,216.77251090001664,217.25666420001653,315,315,217.25666420001653,217.25666420001653,217.25666420001653,217.25666420001653,217.25666420001653,217.25666420001653,217.25666420001653,217.25666420001653,217.25666420001653,217.62306820001686,217.62306820001686,217.62306820001686,217.62306820001686,217.62306820001686,217.62306820001686,217.62306820001686,217.62306820001686,217.62306820001686,23,0,,,217.62306820001686,217.82330849999562,4.9,217.82330849999562,1,4.9,1,1,1000,num_4,0.7965776999772061,,18,15,2026-03-02_11h28.29.499,2026A_exp2,2022.2.4,59.817305978723944,
1,0,3.7,0.0,0,0,69,69,9,,,,,218.64053350000177,219.29143179999664,219.29143179999664,219.7758281000133,315,45,219.7758281000133,219.7758281000133,219.7758281000133,219.7758281000133,219.7758281000133,219.7758281000133,219.7758281000133,219.7758281000133,219.7758281000133,220.14198960000067,220.14198960000067,220.14198960000067,220.14198960000067,220.14198960000067,220.14198960000067,220.14198960000067,220.14198960000067,220.14198960000067,23,0,,,220.14198960000067,220.3425322000112,3.7,220.3425322000112,1,3.7,1,1,1000,num_4,0.7254616999998689,,18,15,2026-03-02_11h28.29.499,2026A_exp2,2022.2.4,59.817305978723944,
1000,1,3.7,0.0,1,0,70,70,38,,,,,221.0930348999973,221.7438630000106,221.7438630000106,222.2281617000117,45,315,222.2281617000117,222.2281617000117,222.2281617000117,222.2281617000117,222.2281617000117,222.2281617000117,222.2281617000117,222.2281617000117,222.2281617000117,222.59471990002203,222.59471990002203,222.59471990002203,222.59471990002203,222.59471990002203,222.59471990002203,222.59471990002203,222.59471990002203,222.59471990002203,23,0,,,222.59471990002203,222.7969961000199,1000,222.7969961000199,1000,1000,1000,1000,0,num_3,0.5828355000121519,,18,15,2026-03-02_11h28.29.499,2026A_exp2,2022.2.4,59.817305978723944,
1,0,0.0,0.0,1,0,71,71,66,,,,,223.39584850001847,224.04608310002368,224.04608310002368,224.547212400008,315,45,224.547212400008,224.547212400008,224.547212400008,224.547212400008,224.547212400008,224.547212400008,224.547212400008,224.547212400008,224.547212400008,224.91362300000037,224.91362300000037,224.91362300000037,224.91362300000037,224.91362300000037,224.91362300000037,224.91362300000037,224.91362300000037,224.91362300000037,23,0,,,224.91362300000037,225.1140000000014,0.0,225.1140000000014,0,0.0,0,1,1000,num_1,0.5784016000106931,,18,15,2026-03-02_11h28.29.499,2026A_exp2,2022.2.4,59.817305978723944,
1000,1,0.0,0.0,1,0,72,72,44,,,,,225.7143664000032,226.36504020000575,226.36504020000575,226.84946870000567,45,45,226.84946870000567,226.84946870000567,226.84946870000567,226.84946870000567,226.84946870000567,226.84946870000567,226.84946870000567,226.84946870000567,226.84946870000567,227.2159718000039,227.2159718000039,227.2159718000039,227.2159718000039,227.2159718000039,227.2159718000039,227.2159718000039,227.2159718000039,227.2159718000039,23,0,,,227.2159718000039,227.41644960001577,1000,227.41644960001577,1000,1000,1000,1000,0,num_3,0.5880212000047322,,18,15,2026-03-02_11h28.29.499,2026A_exp2,2022.2.4,59.817305978723944,
1,0,0.0,0.0,0,0,73,73,11,,,,,228.03337910000118,228.68401930000982,228.68401930000982,229.18526349999593,45,315,229.18526349999593,229.18526349999593,229.18526349999593,229.18526349999593,229.18526349999593,229.18526349999593,229.18526349999593,229.18526349999593,229.18526349999593,229.5512858000002,229.5512858000002,229.5512858000002,229.5512858000002,229.5512858000002,229.5512858000002,229.5512858000002,229.5512858000002,229.5512858000002,23,0,,,229.5512858000002,229.7519355000113,0.0,229.7519355000113,1,0.0,0,0,1000,num_4,0.7077819000114687,,18,15,2026-03-02_11h28.29.499,2026A_exp2,2022.2.4,59.817305978723944,
1000,1,6.1,0.0,0,0,74,74,21,,,,,230.48578960000305,231.13656020001508,231.13656020001508,231.62086550000822,45,315,231.62086550000822,231.62086550000822,231.62086550000822,231.62086550000822,231.62086550000822,231.62086550000822,231.62086550000822,231.62086550000822,231.62086550000822,231.98746750000282,231.98746750000282,231.98746750000282,231.98746750000282,231.98746750000282,231.98746750000282,231.98746750000282,231.98746750000282,231.98746750000282,23,0,,,231.98746750000282,232.18961000000127,1000,232.18961000000127,1000,1000,1000,1000,0,num_3,0.6379621000087354,,18,15,2026-03-02_11h28.29.499,2026A_exp2,2022.2.4,59.817305978723944,
1000,1,0.0,3.7,1,0,75,75,1,,,,,232.85492890002206,233.50566140000592,233.50566140000592,234.0067310000013,315,45,234.0067310000013,234.0067310000013,234.0067310000013,234.0067310000013,234.0067310000013,234.0067310000013,234.0067310000013,234.0067310000013,234.0067310000013,234.35647530001006,234.35647530001006,234.35647530001006,234.35647530001006,234.35647530001006,234.35647530001006,234.35647530001006,234.35647530001006,234.35647530001006,22,0,,,234.35647530001006,234.55871400001342,1000,234.5733903000073,1000,1000,1000,1000,1,num_2,0.47116970003116876,,18,15,2026-03-02_11h28.29.499,2026A_exp2,2022.2.4,59.817305978723944,
1,0,6.1,3.7,1,0,76,76,83,,,,,235.07371910000802,235.7245178000012,235.7245178000012,236.2254588000069,45,45,236.2254588000069,236.2254588000069,236.2254588000069,236.2254588000069,236.2254588000069,236.2254588000069,236.2254588000069,236.2254588000069,236.2254588000069,236.59203739999793,236.59203739999793,236.59203739999793,236.59203739999793,236.59203739999793,236.59203739999793,236.59203739999793,236.59203739999793,236.59203739999793,23,0,,,236.59203739999793,236.79222990002017,3.7,236.79222990002017,1,3.7,1,1,1000,num_4,0.7081621999968775,,18,15,2026-03-02_11h28.29.499,2026A_exp2,2022.2.4,59.817305978723944,
1,0,3.7,0.0,0,0,77,77,3,,,,,237.526139900001,238.1768815999967,238.1768815999967,238.66127070001676,315,315,238.66127070001676,238.66127070001676,238.66127070001676,238.66127070001676,238.66127070001676,238.66127070001676,238.66127070001676,238.66127070001676,238.66127070001676,239.02777240000432,239.02777240000432,239.02777240000432,239.02777240000432,239.02777240000432,239.02777240000432,239.02777240000432,239.02777240000432,239.02777240000432,23,0,,,239.02777240000432,239.22788960000616,3.7,239.22788960000616,1,3.7,1,1,1000,num_4,0.39172310000867583,,18,15,2026-03-02_11h28.29.499,2026A_exp2,2022.2.4,59.817305978723944,
1,0,6.1,0.0,0,0,78,78,77,,,,,239.64499830000568,240.29559390002396,240.29559390002396,240.78005250002025,45,45,240.78005250002025,240.78005250002025,240.78005250002025,240.78005250002025,240.78005250002025,240.78005250002025,240.78005250002025,240.78005250002025,240.78005250002025,241.14656799999648,241.14656799999648,241.14656799999648,241.14656799999648,241.14656799999648,241.14656799999648,241.14656799999648,241.14656799999648,241.14656799999648,23,0,,,241.14656799999648,241.3587843000132,6.1,241.3587843000132,1,6.1,1,1,1000,num_4,0.29329230001894757,,18,15,2026-03-02_11h28.29.499,2026A_exp2,2022.2.4,59.817305978723944,
1000,1,4.9,0.0,1,0,79,79,56,,,,,241.68029570000363,242.33091000001878,242.33091000001878,242.83226200001081,315,315,242.83226200001081,242.83226200001081,242.83226200001081,242.83226200001081,242.83226200001081,242.83226200001081,242.83226200001081,242.83226200001081,242.83226200001081,243.19881380000152,243.19881380000152,243.19881380000152,243.19881380000152,243.19881380000152,243.19881380000152,243.19881380000152,243.19881380000152,243.19881380000152,23,0,,,243.19881380000152,243.41233750001993,1000,243.41233750001993,1000,1000,1000,1000,0,num_3,0.6552578999835532,,18,15,2026-03-02_11h28.29.499,2026A_exp2,2022.2.4,59.817305978723944,
1,0,0.0,0.0,1,0,80,80,58,,,,,244.09948870001244,244.7333970000036,244.7333970000036,245.23440850002225,315,45,245.23440850002225,245.23440850002225,245.23440850002225,245.23440850002225,245.23440850002225,245.23440850002225,245.23440850002225,245.23440850002225,245.23440850002225,245.6008383000153,245.6008383000153,245.6008383000153,245.6008383000153,245.6008383000153,245.6008383000153,245.6008383000153,245.6008383000153,245.6008383000153,23,0,,,245.6008383000153,245.80130430002464,0.0,245.80130430002464,0,0.0,0,1,1000,num_1,0.8270072000159416,,18,15,2026-03-02_11h28.29.499,2026A_exp2,2022.2.4,59.817305978723944,
1,0,6.1,6.1,0,0,81,81,89,,,,,246.65193760002148,247.30279410001822,247.30279410001822,247.78708460001508,45,315,247.78708460001508,247.78708460001508,247.78708460001508,247.78708460001508,247.78708460001508,247.78708460001508,247.78708460001508,247.78708460001508,247.78708460001508,248.15358939999714,248.15358939999714,248.15358939999714,248.15358939999714,248.15358939999714,248.15358939999714,248.15358939999714,248.15358939999714,248.15358939999714,23,0,,,248.15358939999714,248.35370259999763,6.1,248.35370259999763,1,6.1,1,1,1000,num_4,0.33031459999619983,,18,15,2026-03-02_11h28.29.499,2026A_exp2,2022.2.4,59.817305978723944,
1,0,4.9,0.0,0,0,82,82,47,,,,,248.7040070000221,249.3652675000194,249.3652675000194,249.84127050000825,45,45,249.84127050000825,249.84127050000825,249.84127050000825,249.84127050000825,249.84127050000825,249.84127050000825,249.84127050000825,249.84127050000825,249.84127050000825,250.20560889999615,250.20560889999615,250.20560889999615,250.20560889999615,250.20560889999615,250.20560889999615,250.20560889999615,250.20560889999615,250.20560889999615,23,0,,,250.20560889999615,250.41729160002433,4.9,250.41729160002433,1,4.9,1,1,1000,num_4,0.26691470001242124,,18,15,2026-03-02_11h28.29.499,2026A_exp2,2022.2.4,59.817305978723944,
1000,1,0.0,0.0,0,0,83,83,79,,,,,250.70600560001913,251.35679430002347,251.35679430002347,251.85797260000254,45,315,251.85797260000254,251.85797260000254,251.85797260000254,251.85797260000254,251.85797260000254,251.85797260000254,251.85797260000254,251.85797260000254,251.85797260000254,252.22433110000566,252.22433110000566,252.22433110000566,252.22433110000566,252.22433110000566,252.22433110000566,252.22433110000566,252.22433110000566,252.22433110000566,23,0,,,252.22433110000566,252.4263173000072,1000,252.4263173000072,1000,1000,1000,1000,1,num_2,0.9460413999913726,,18,15,2026-03-02_11h28.29.499,2026A_exp2,2022.2.4,59.817305978723944,
1000,1,0.0,0.0,1,0,84,84,63,,,,,253.3923688000068,254.04287410000688,254.04287410000688,254.5440381000226,315,45,254.5440381000226,254.5440381000226,254.5440381000226,254.5440381000226,254.5440381000226,254.5440381000226,254.5440381000226,254.5440381000226,254.5440381000226,254.91035069999634,254.91035069999634,254.91035069999634,254.91035069999634,254.91035069999634,254.91035069999634,254.91035069999634,254.91035069999634,254.91035069999634,23,0,,,254.91035069999634,255.1125863000052,1000,255.1125863000052,1000,1000,1000,1000,0,num_3,0.923154699994484,,18,15,2026-03-02_11h28.29.499,2026A_exp2,2022.2.4,59.817305978723944,
1000,1,4.9,0.0,0,0,85,85,37,,,,,256.06154590001097,256.71222740001394,256.71222740001394,257.21325090000755,315,315,257.21325090000755,257.21325090000755,257.21325090000755,257.21325090000755,257.21325090000755,257.21325090000755,257.21325090000755,257.21325090000755,257.21325090000755,257.5797237000079,257.5797237000079,257.5797237000079,257.5797237000079,257.5797237000079,257.5797237000079,257.5797237000079,257.5797237000079,257.5797237000079,23,0,,,257.5797237000079,257.79055570001947,1000,257.79055570001947,1000,1000,1000,1000,0,num_3,0.3249299000017345,,18,15,2026-03-02_11h28.29.499,2026A_exp2,2022.2.4,59.817305978723944,
1000,1,6.1,0.0,0,0,86,86,69,,,,,258.14697170001455,258.80150500001037,258.80150500001037,259.29927270000917,45,45,259.29927270000917,259.29927270000917,259.29927270000917,259.29927270000917,259.29927270000917,259.29927270000917,259.29927270000917,259.29927270000917,259.29927270000917,259.66510660000495,259.66510660000495,259.66510660000495,259.66510660000495,259.66510660000495,259.66510660000495,259.66510660000495,259.66510660000495,259.66510660000495,23,0,,,259.66510660000495,259.88559260001057,1000,259.88559260001057,1000,1000,1000,1000,0,num_3,0.28649379999842495,,18,15,2026-03-02_11h28.29.499,2026A_exp2,2022.2.4,59.817305978723944,
1,0,6.1,0.0,1,0,87,87,17,,,,,260.19895780002116,260.84961520001525,260.84961520001525,261.334086900024,315,315,261.334086900024,261.334086900024,261.334086900024,261.334086900024,261.334086900024,261.334086900024,261.334086900024,261.334086900024,261.334086900024,261.700556900003,261.700556900003,261.700556900003,261.700556900003,261.700556900003,261.700556900003,261.700556900003,261.700556900003,261.700556900003,23,0,,,261.700556900003,261.9007630000124,0.0,261.9007630000124,0,0.0,0,1,1000,num_1,0.9120374000049196,,18,15,2026-03-02_11h28.29.499,2026A_exp2,2022.2.4,59.817305978723944,
0,0,0.0,4.9,0,0,88,88,65,,,,,262.8351639000175,263.48748040001374,263.48748040001374,263.9917254000029,45,45,263.9917254000029,263.9917254000029,263.9917254000029,263.9917254000029,263.9917254000029,263.9917254000029,263.9917254000029,263.9917254000029,263.9917254000029,264.35309660001076,264.35309660001076,264.35309660001076,264.35309660001076,264.35309660001076,264.35309660001076,264.35309660001076,264.35309660001076,264.35309660001076,23,0,,,264.35309660001076,264.55328250001185,4.9,264.55328250001185,1,4.9,1,1,1000,num_4,0.6424469000194222,,18,15,2026-03-02_11h28.29.499,2026A_exp2,2022.2.4,59.817305978723944,
1000,1,0.0,0.0,1,0,89,89,68,,,,,265.2205552000087,265.877304499998,265.877304499998,266.3557114000141,315,45,266.3557114000141,266.3557114000141,266.3557114000141,266.3557114000141,266.3557114000141,266.3557114000141,266.3557114000141,266.3557114000141,266.3557114000141,266.72195629999624,266.72195629999624,266.72195629999624,266.72195629999624,266.72195629999624,266.72195629999624,266.72195629999624,266.72195629999624,266.72195629999624,23,0,,,266.72195629999624,266.92246120001073,1000,266.92246120001073,1000,1000,1000,1000,0,num_3,0.7297860999824479,,18,15,2026-03-02_11h28.29.499,2026A_exp2,2022.2.4,59.817305978723944,
,,,,,,,,,,,,,,,,,,,,,,,,,,,,,,,,,,,,,,,,,,,,,,,,,,,,267.68193550000433,,,,,,,
