validity,detectorcomp,contrastCW,contrastCCW,precueCWorCCW,block_80trials.thisRepN,block_80trials.thisTrialN,block_80trials.thisN,block_80trials.thisIndex,etRecord.started,etRecord.stopped,text.started,text.stopped,text_4.started,text_4.stopped,text_6.started,text_6.stopped,oriCW,oriCCW,roi_2.started,grating_UR.started,grating_UL.started,grating_LR.started,grating_LL.started,noise_UR.started,noise_UL.started,noise_LR.started,noise_LL.started,roi_2.stopped,grating_UR.stopped,grating_UL.stopped,grating_LR.stopped,grating_LL.stopped,noise_UR.stopped,noise_UL.stopped,noise_LR.stopped,noise_LL.stopped,outframe,roi_2.numLooks,roi_2.timesOn,roi_2.timesOff,text_2.started,text_2.stopped,probedcontrast,key_resp.started,respdetect,relevantContrast,correctDetect,TorFdetect,respCWorCCW,key_resp.keys,key_resp.rt,feedback_display_.started,participantNo,blockNo,date,expName,psychopyVersion,frameRate,
1,0,6.1,3.7,0,0,0,0,79,3.260001540184021e-05,3.260001540184021e-05,49.05374070000835,51.056984499969985,51.056984499969985,51.69077970000217,51.69077970000217,52.21079370001098,315,315,52.21079370001098,52.21079370001098,52.21079370001098,52.21079370001098,52.21079370001098,52.21079370001098,52.21079370001098,52.21079370001098,52.21079370001098,52.55804299999727,52.55804299999727,52.55804299999727,52.55804299999727,52.55804299999727,52.55804299999727,52.55804299999727,52.55804299999727,52.55804299999727,23,0,,,52.55804299999727,52.75860850000754,6.1,52.75860850000754,1,6.1,1,1,1000,num_4,0.8178444000077434,,26,14,2026-03-05_11h24.53.239,2026A_exp2,2022.2.4,59.944886677217596,
1,0,4.9,4.9,1,0,1,1,32,,,,,53.5924600000144,54.24304199998733,54.24304199998733,54.727656900009606,45,315,54.727656900009606,54.727656900009606,54.727656900009606,54.727656900009606,54.727656900009606,54.727656900009606,54.727656900009606,54.727656900009606,54.727656900009606,55.09393969998928,55.09393969998928,55.09393969998928,55.09393969998928,55.09393969998928,55.09393969998928,55.09393969998928,55.09393969998928,55.09393969998928,0,1,[0.0012223999947309494],[0.3671392999822274],55.09393969998928,55.294201700016856,4.9,55.294201700016856,0,4.9,1,0,1000,num_1,0.6496528999996372,,26,14,2026-03-05_11h24.53.239,2026A_exp2,2022.2.4,59.944886677217596,
1000,1,0.0,0.0,1,0,2,2,8,,,,,55.962299400009215,56.61214470001869,56.61214470001869,57.113180199987255,315,315,57.113180199987255,57.113180199987255,57.113180199987255,57.113180199987255,57.113180199987255,57.113180199987255,57.113180199987255,57.113180199987255,57.113180199987255,57.47963110002456,57.47963110002456,57.47963110002456,57.47963110002456,57.47963110002456,57.47963110002456,57.47963110002456,57.47963110002456,57.47963110002456,23,0,,,57.47963110002456,57.684965599968564,1000,57.684965599968564,1000,1000,1000,1000,1,num_2,0.627591600001324,,26,14,2026-03-05_11h24.53.239,2026A_exp2,2022.2.4,59.944886677217596,
1000,1,4.9,6.1,1,0,3,3,4,,,,,58.33067649998702,58.98126430000411,58.98126430000411,59.48222569999052,315,315,59.48222569999052,59.48222569999052,59.48222569999052,59.48222569999052,59.48222569999052,59.48222569999052,59.48222569999052,59.48222569999052,59.48222569999052,59.832053899997845,59.832053899997845,59.832053899997845,59.832053899997845,59.832053899997845,59.832053899997845,59.832053899997845,59.832053899997845,59.832053899997845,0,1,[0.0012129999813623726],[0.3504271000274457],59.832053899997845,60.03417020000052,1000,60.03417020000052,1000,1000,1000,1000,0,num_3,0.6307935999939218,,26,14,2026-03-05_11h24.53.239,2026A_exp2,2022.2.4,59.944886677217596,
1,0,6.1,0.0,1,0,4,4,29,,,,,60.68305099999998,61.333549099974334,61.333549099974334,61.818134400004055,45,315,61.818134400004055,61.818134400004055,61.818134400004055,61.818134400004055,61.818134400004055,61.818134400004055,61.818134400004055,61.818134400004055,61.818134400004055,62.18444919999456,62.18444919999456,62.18444919999456,62.18444919999456,62.18444919999456,62.18444919999456,62.18444919999456,62.18444919999456,62.18444919999456,0,1,[0.0012434999807737768],[0.3672367999679409],62.18444919999456,62.384646099992096,0.0,62.384646099992096,0,0.0,0,1,1000,num_1,0.6236168999457732,,26,14,2026-03-05_11h24.53.239,2026A_exp2,2022.2.4,59.944886677217596,
0,0,4.9,6.1,0,0,5,5,1,,,,,63.03515770001104,63.68596199998865,63.68596199998865,64.17024920001859,315,315,64.17024920001859,64.17024920001859,64.17024920001859,64.17024920001859,64.17024920001859,64.17024920001859,64.17024920001859,64.17024920001859,64.17024920001859,64.53677659999812,64.53677659999812,64.53677659999812,64.53677659999812,64.53677659999812,64.53677659999812,64.53677659999812,64.53677659999812,64.53677659999812,21,1,[0.0012482000165618956],[0.0333972999942489],64.53677659999812,64.73701440001605,6.1,64.73701440001605,0,6.1,1,0,1000,num_1,0.6315054000006057,,26,14,2026-03-05_11h24.53.239,2026A_exp2,2022.2.4,59.944886677217596,
0,0,0.0,6.1,0,0,6,6,12,,,,,65.38748909998685,66.03833549999399,66.03833549999399,66.52274729998317,315,45,66.52274729998317,66.52274729998317,66.52274729998317,66.52274729998317,66.52274729998317,66.52274729998317,66.52274729998317,66.52274729998317,66.52274729998317,66.88912240002537,66.88912240002537,66.88912240002537,66.88912240002537,66.88912240002537,66.88912240002537,66.88912240002537,66.88912240002537,66.88912240002537,23,0,,,66.88912240002537,67.08933599997545,6.1,67.08933599997545,1,6.1,1,1,1000,num_4,0.5595755000249483,,26,14,2026-03-05_11h24.53.239,2026A_exp2,2022.2.4,59.944886677217596,
1000,1,6.1,0.0,1,0,7,7,61,,,,,67.67316970002139,68.32419439998921,68.32419439998921,68.80829209997319,315,45,68.80829209997319,68.80829209997319,68.80829209997319,68.80829209997319,68.80829209997319,68.80829209997319,68.80829209997319,68.80829209997319,68.80829209997319,69.17480149999028,69.17480149999028,69.17480149999028,69.17480149999028,69.17480149999028,69.17480149999028,69.17480149999028,69.17480149999028,69.17480149999028,21,1,[0.2508153999806382],[0.2841988999862224],69.17480149999028,69.3770560999983,1000,69.3770560999983,1000,1000,1000,1000,0,num_3,0.47171589999925345,,26,14,2026-03-05_11h24.53.239,2026A_exp2,2022.2.4,59.944886677217596,
1000,1,4.9,0.0,0,0,8,8,82,,,,,69.87538139999378,70.52612970001064,70.52612970001064,71.02728929999284,45,315,71.02728929999284,71.02728929999284,71.02728929999284,71.02728929999284,71.02728929999284,71.02728929999284,71.02728929999284,71.02728929999284,71.02728929999284,71.39366339996923,71.39366339996923,71.39366339996923,71.39366339996923,71.39366339996923,71.39366339996923,71.39366339996923,71.39366339996923,71.39366339996923,0,1,[0.0012428999762050807],[0.36725859995931387],71.39366339996923,71.59575259999838,1000,71.59575259999838,1000,1000,1000,1000,0,num_3,0.45305429998552427,,26,14,2026-03-05_11h24.53.239,2026A_exp2,2022.2.4,59.944886677217596,
1000,1,4.9,4.9,0,0,9,9,6,,,,,72.07771350000985,72.72825009998633,72.72825009998633,73.22944670001743,45,45,73.22944670001743,73.22944670001743,73.22944670001743,73.22944670001743,73.22944670001743,73.22944670001743,73.22944670001743,73.22944670001743,73.22944670001743,73.59586850000778,73.59586850000778,73.59586850000778,73.59586850000778,73.59586850000778,73.59586850000778,73.59586850000778,73.59586850000778,73.59586850000778,0,1,[0.001218699966557324],[0.3670816999510862],73.59586850000778,73.79784569999902,1000,73.79784569999902,1000,1000,1000,1000,0,num_3,0.4105551000102423,,26,14,2026-03-05_11h24.53.239,2026A_exp2,2022.2.4,59.944886677217596,
1000,1,0.0,3.7,1,0,10,10,81,,,,,74.22968240000773,74.8801801999798,74.8801801999798,75.38140339998063,45,45,75.38140339998063,75.38140339998063,75.38140339998063,75.38140339998063,75.38140339998063,75.38140339998063,75.38140339998063,75.38140339998063,75.38140339998063,75.74801490001846,75.74801490001846,75.74801490001846,75.74801490001846,75.74801490001846,75.74801490001846,75.74801490001846,75.74801490001846,75.74801490001846,0,1,[0.0012448999914340675],[0.3671155999763869],75.74801490001846,75.95027680002386,1000,75.95027680002386,1000,1000,1000,1000,1,num_2,0.5065539999632165,,26,14,2026-03-05_11h24.53.239,2026A_exp2,2022.2.4,59.944886677217596,
1,0,6.1,0.0,0,0,11,11,58,,,,,76.48196950001875,77.13276629999746,77.13276629999746,77.63391009997576,45,315,77.63391009997576,77.63391009997576,77.63391009997576,77.63391009997576,77.63391009997576,77.63391009997576,77.63391009997576,77.63391009997576,77.63391009997576,78.00015669997083,78.00015669997083,78.00015669997083,78.00015669997083,78.00015669997083,78.00015669997083,78.00015669997083,78.00015669997083,78.00015669997083,21,2,"[0.23370310000609607, 0.3670838999678381]","[0.2503319999668747, 0.3670886000036262]",78.00015669997083,78.20032100001117,6.1,78.20032100001117,1,6.1,1,1,1000,num_4,0.68815210001776,,26,14,2026-03-05_11h24.53.239,2026A_exp2,2022.2.4,59.944886677217596,
1,0,4.9,0.0,1,0,12,12,52,,,,,78.91780789999757,79.56847549998201,79.56847549998201,80.05291899997974,315,45,80.05291899997974,80.05291899997974,80.05291899997974,80.05291899997974,80.05291899997974,80.05291899997974,80.05291899997974,80.05291899997974,80.05291899997974,80.41931779996958,80.41931779996958,80.41931779996958,80.41931779996958,80.41931779996958,80.41931779996958,80.41931779996958,80.41931779996958,80.41931779996958,7,2,"[0.017395000031683594, 0.06697149999672547]","[0.05017180001595989, 0.3002848000032827]",80.41931779996958,80.61942820000695,0.0,80.61942820000695,0,0.0,0,1,1000,num_1,0.7244045000406913,,26,14,2026-03-05_11h24.53.239,2026A_exp2,2022.2.4,59.944886677217596,
0,0,3.7,0.0,1,0,13,13,0,,,,,81.37010030000238,82.02082520001568,82.02082520001568,82.5053898000042,315,45,82.5053898000042,82.5053898000042,82.5053898000042,82.5053898000042,82.5053898000042,82.5053898000042,82.5053898000042,82.5053898000042,82.5053898000042,82.8717147000134,82.8717147000134,82.8717147000134,82.8717147000134,82.8717147000134,82.8717147000134,82.8717147000134,82.8717147000134,82.8717147000134,0,1,[0.0012493000249378383],[0.36720970005262643],82.8717147000134,83.07196700002532,3.7,83.07196700002532,1,3.7,1,1,1000,num_4,0.9040805000113323,,26,14,2026-03-05_11h24.53.239,2026A_exp2,2022.2.4,59.944886677217596,
1,0,0.0,0.0,1,0,14,14,77,,,,,84.00620880001225,84.65687910001725,84.65687910001725,85.15801600000123,315,315,85.15801600000123,85.15801600000123,85.15801600000123,85.15801600000123,85.15801600000123,85.15801600000123,85.15801600000123,85.15801600000123,85.15801600000123,85.50779539998621,85.50779539998621,85.50779539998621,85.50779539998621,85.50779539998621,85.50779539998621,85.50779539998621,85.50779539998621,85.50779539998621,22,0,,,85.50779539998621,85.70797519996995,0.0,85.70797519996995,1,0.0,0,0,1000,num_4,0.7731838999898173,,26,14,2026-03-05_11h24.53.239,2026A_exp2,2022.2.4,59.944886677217596,
1,0,3.7,3.7,0,0,15,15,69,,,,,86.50906080001732,87.15931780001847,87.15931780001847,87.64378480002051,45,45,87.64378480002051,87.64378480002051,87.64378480002051,87.64378480002051,87.64378480002051,87.64378480002051,87.64378480002051,87.64378480002051,87.64378480002051,88.01031809998676,88.01031809998676,88.01031809998676,88.01031809998676,88.01031809998676,88.01031809998676,88.01031809998676,88.01031809998676,88.01031809998676,0,1,[0.0011220999876968563],[0.3674328000051901],88.01031809998676,88.21037619997514,3.7,88.21037619997514,0,3.7,1,0,1000,num_1,0.8785926999989897,,26,14,2026-03-05_11h24.53.239,2026A_exp2,2022.2.4,59.944886677217596,
1,0,6.1,0.0,1,0,16,16,23,,,,,89.1114011000027,89.76196139998501,89.76196139998501,90.24645400000736,45,315,90.24645400000736,90.24645400000736,90.24645400000736,90.24645400000736,90.24645400000736,90.24645400000736,90.24645400000736,90.24645400000736,90.24645400000736,90.61269959999481,90.61269959999481,90.61269959999481,90.61269959999481,90.61269959999481,90.61269959999481,90.61269959999481,90.61269959999481,90.61269959999481,23,0,,,90.61269959999481,90.81306979997316,0.0,90.81306979997316,0,0.0,0,1,1000,num_1,0.6993967000162229,,26,14,2026-03-05_11h24.53.239,2026A_exp2,2022.2.4,59.944886677217596,
1,0,4.9,6.1,1,0,17,17,62,,,,,91.53039909998188,92.16443030000664,92.16443030000664,92.66541820002021,45,45,92.66541820002021,92.66541820002021,92.66541820002021,92.66541820002021,92.66541820002021,92.66541820002021,92.66541820002021,92.66541820002021,92.66541820002021,93.03189400001429,93.03189400001429,93.03189400001429,93.03189400001429,93.03189400001429,93.03189400001429,93.03189400001429,93.03189400001429,93.03189400001429,23,0,,,93.03189400001429,93.23233500000788,6.1,93.23233500000788,1,6.1,1,1,1000,num_4,0.7045685999910347,,26,14,2026-03-05_11h24.53.239,2026A_exp2,2022.2.4,59.944886677217596,
1,0,0.0,0.0,1,0,18,18,42,,,,,93.96604389999993,94.61687490000622,94.61687490000622,95.10118980001425,315,45,95.10118980001425,95.10118980001425,95.10118980001425,95.10118980001425,95.10118980001425,95.10118980001425,95.10118980001425,95.10118980001425,95.10118980001425,95.46763349999674,95.46763349999674,95.46763349999674,95.46763349999674,95.46763349999674,95.46763349999674,95.46763349999674,95.46763349999674,95.46763349999674,23,0,,,95.46763349999674,95.66769299999578,0.0,95.66769299999578,0,0.0,0,1,1000,num_1,0.5968068999936804,,26,14,2026-03-05_11h24.53.239,2026A_exp2,2022.2.4,59.944886677217596,
0,0,0.0,0.0,0,0,19,19,10,,,,,96.28524009999819,96.91907080000965,96.91907080000965,97.42029929999262,315,45,97.42029929999262,97.42029929999262,97.42029929999262,97.42029929999262,97.42029929999262,97.42029929999262,97.42029929999262,97.42029929999262,97.42029929999262,97.78664020000724,97.78664020000724,97.78664020000724,97.78664020000724,97.78664020000724,97.78664020000724,97.78664020000724,97.78664020000724,97.78664020000724,23,0,,,97.78664020000724,97.98677810002118,0.0,97.98677810002118,0,0.0,0,1,1000,num_1,0.5899021000368521,,26,14,2026-03-05_11h24.53.239,2026A_exp2,2022.2.4,59.944886677217596,
1000,1,4.9,6.1,0,0,20,20,49,,,,,98.60408199997619,99.25484319997486,99.25484319997486,99.73939200001769,315,315,99.73939200001769,99.73939200001769,99.73939200001769,99.73939200001769,99.73939200001769,99.73939200001769,99.73939200001769,99.73939200001769,99.73939200001769,100.10565240000142,100.10565240000142,100.10565240000142,100.10565240000142,100.10565240000142,100.10565240000142,100.10565240000142,100.10565240000142,100.10565240000142,23,0,,,100.10565240000142,100.30776930000866,1000,100.30776930000866,1000,1000,1000,1000,0,num_3,0.5887571999919601,,26,14,2026-03-05_11h24.53.239,2026A_exp2,2022.2.4,59.944886677217596,
1,0,4.9,0.0,0,0,21,21,19,,,,,100.92301039997255,101.57782449998194,101.57782449998194,102.07492009998532,45,315,102.07492009998532,102.07492009998532,102.07492009998532,102.07492009998532,102.07492009998532,102.07492009998532,102.07492009998532,102.07492009998532,102.07492009998532,102.44124630000442,102.44124630000442,102.44124630000442,102.44124630000442,102.44124630000442,102.44124630000442,102.44124630000442,102.44124630000442,102.44124630000442,0,1,[0.0011667999788187444],[0.36730109999189153],102.44124630000442,102.6415660000057,4.9,102.6415660000057,1,4.9,1,1,1000,num_4,0.6303569000447169,,26,14,2026-03-05_11h24.53.239,2026A_exp2,2022.2.4,59.944886677217596,
1000,1,0.0,0.0,1,0,22,22,78,,,,,103.29211769998074,103.9425938000204,103.9425938000204,104.42714460002026,315,315,104.42714460002026,104.42714460002026,104.42714460002026,104.42714460002026,104.42714460002026,104.42714460002026,104.42714460002026,104.42714460002026,104.42714460002026,104.7936888000113,104.7936888000113,104.7936888000113,104.7936888000113,104.7936888000113,104.7936888000113,104.7936888000113,104.7936888000113,104.7936888000113,0,1,[0.001319899980444461],[0.3672536999802105],104.7936888000113,104.99557600001572,1000,104.99557600001572,1000,1000,1000,1000,1,num_2,0.4932212000130676,,26,14,2026-03-05_11h24.53.239,2026A_exp2,2022.2.4,59.944886677217596,
1000,1,0.0,0.0,1,0,23,23,80,,,,,105.5110444999882,106.16168780002045,106.16168780002045,106.64620349998586,45,45,106.64620349998586,106.64620349998586,106.64620349998586,106.64620349998586,106.64620349998586,106.64620349998586,106.64620349998586,106.64620349998586,106.64620349998586,107.01252789999126,107.01252789999126,107.01252789999126,107.01252789999126,107.01252789999126,107.01252789999126,107.01252789999126,107.01252789999126,107.01252789999126,23,0,,,107.01252789999126,107.21488949999912,1000,107.21488949999912,1000,1000,1000,1000,1,num_2,0.5370939999702387,,26,14,2026-03-05_11h24.53.239,2026A_exp2,2022.2.4,59.944886677217596,
1,0,0.0,0.0,1,0,24,24,60,,,,,107.78028379997704,108.43053469998995,108.43053469998995,108.93176100001438,45,45,108.93176100001438,108.93176100001438,108.93176100001438,108.93176100001438,108.93176100001438,108.93176100001438,108.93176100001438,108.93176100001438,108.93176100001438,109.29822950001108,109.29822950001108,109.29822950001108,109.29822950001108,109.29822950001108,109.29822950001108,109.29822950001108,109.29822950001108,109.29822950001108,1,2,"[0.001310700026806444, 0.3336418999824673]","[0.31712429999606684, 0.3671767999767326]",109.29822950001108,109.49819040001603,0.0,109.49819040001603,1,0.0,0,0,1000,num_4,0.7181565000209957,,26,14,2026-03-05_11h24.53.239,2026A_exp2,2022.2.4,59.944886677217596,
1,0,0.0,6.1,1,0,25,25,17,,,,,110.23251699999673,110.86651899997378,110.86651899997378,111.3675474000047,315,45,111.3675474000047,111.3675474000047,111.3675474000047,111.3675474000047,111.3675474000047,111.3675474000047,111.3675474000047,111.3675474000047,111.3675474000047,111.73397559998557,111.73397559998557,111.73397559998557,111.73397559998557,111.73397559998557,111.73397559998557,111.73397559998557,111.73397559998557,111.73397559998557,0,1,[0.0012094000121578574],[0.36725660000229254],111.73397559998557,111.9342380000162,6.1,111.9342380000162,1,6.1,1,1,1000,num_4,0.3789318000199273,,26,14,2026-03-05_11h24.53.239,2026A_exp2,2022.2.4,59.944886677217596,
1,0,6.1,4.9,1,0,26,26,38,,,,,112.33471419999842,112.98511609999696,112.98511609999696,113.46960369998123,315,315,113.46960369998123,113.46960369998123,113.46960369998123,113.46960369998123,113.46960369998123,113.46960369998123,113.46960369998123,113.46960369998123,113.46960369998123,113.83610090002185,113.83610090002185,113.83610090002185,113.83610090002185,113.83610090002185,113.83610090002185,113.83610090002185,113.83610090002185,113.83610090002185,10,1,[0.0011953999637626112],[0.21698809997178614],113.83610090002185,114.0361971000093,4.9,114.0361971000093,0,4.9,1,0,1000,num_1,0.6282198000117205,,26,14,2026-03-05_11h24.53.239,2026A_exp2,2022.2.4,59.944886677217596,
1,0,4.9,3.7,0,0,27,27,89,,,,,114.68681809998816,115.33748749998631,115.33748749998631,115.83852589997696,45,315,115.83852589997696,115.83852589997696,115.83852589997696,115.83852589997696,115.83852589997696,115.83852589997696,115.83852589997696,115.83852589997696,115.83852589997696,116.20508649997646,116.20508649997646,116.20508649997646,116.20508649997646,116.20508649997646,116.20508649997646,116.20508649997646,116.20508649997646,116.20508649997646,1,2,"[0.0017733999993652105, 0.35007929999846965]","[0.33347329997923225, 0.3668824999476783]",116.20508649997646,116.40535100002307,4.9,116.40535100002307,1,4.9,1,1,1000,num_4,0.7785658999928273,,26,14,2026-03-05_11h24.53.239,2026A_exp2,2022.2.4,59.944886677217596,
1000,1,3.7,3.7,0,0,28,28,76,,,,,117.20599290000973,117.85671919997549,117.85671919997549,118.34109820000594,45,315,118.34109820000594,118.34109820000594,118.34109820000594,118.34109820000594,118.34109820000594,118.34109820000594,118.34109820000594,118.34109820000594,118.34109820000594,118.70767580001848,118.70767580001848,118.70767580001848,118.70767580001848,118.70767580001848,118.70767580001848,118.70767580001848,118.70767580001848,118.70767580001848,0,1,[0.0012116000289097428],[0.36720630002673715],118.70767580001848,118.90909259999171,1000,118.90909259999171,1000,1000,1000,1000,0,num_3,0.5948218999546953,,26,14,2026-03-05_11h24.53.239,2026A_exp2,2022.2.4,59.944886677217596,
1000,1,0.0,3.7,0,0,29,29,21,,,,,119.52510789997177,120.17578330001561,120.17578330001561,120.6768904000055,45,45,120.6768904000055,120.6768904000055,120.6768904000055,120.6768904000055,120.6768904000055,120.6768904000055,120.6768904000055,120.6768904000055,120.6768904000055,121.04330439999467,121.04330439999467,121.04330439999467,121.04330439999467,121.04330439999467,121.04330439999467,121.04330439999467,121.04330439999467,121.04330439999467,23,0,,,121.04330439999467,121.24554129998432,1000,121.24554129998432,1000,1000,1000,1000,1,num_2,0.43563359999097884,,26,14,2026-03-05_11h24.53.239,2026A_exp2,2022.2.4,59.944886677217596,
1,0,6.1,0.0,1,0,30,30,41,,,,,121.71057739999378,122.36122199997772,122.36122199997772,122.86235800001305,45,45,122.86235800001305,122.86235800001305,122.86235800001305,122.86235800001305,122.86235800001305,122.86235800001305,122.86235800001305,122.86235800001305,122.86235800001305,123.22878880001372,123.22878880001372,123.22878880001372,123.22878880001372,123.22878880001372,123.22878880001372,123.22878880001372,123.22878880001372,123.22878880001372,23,0,,,123.22878880001372,123.42896709998604,0.0,123.42896709998604,0,0.0,0,1,1000,num_1,0.6193475000327453,,26,14,2026-03-05_11h24.53.239,2026A_exp2,2022.2.4,59.944886677217596,
1000,1,3.7,3.7,1,0,31,31,25,,,,,124.07952019997174,,124.73079090000829,125.21462530002464,45,45,125.21462530002464,125.21462530002464,125.21462530002464,125.21462530002464,125.21462530002464,125.21462530002464,125.21462530002464,125.21462530002464,125.21462530002464,125.58126449998235,125.58126449998235,125.58126449998235,125.58126449998235,125.58126449998235,125.58126449998235,125.58126449998235,125.58126449998235,125.58126449998235,23,0,,,125.58126449998235,125.78304900001967,1000,125.78304900001967,1000,1000,1000,1000,0,num_3,0.47332440002355725,,26,14,2026-03-05_11h24.53.239,2026A_exp2,2022.2.4,59.944886677217596,
1000,1,0.0,0.0,1,0,32,32,63,,,,,126.28182749997359,126.93255319999298,126.93255319999298,127.43365119997179,45,315,127.43365119997179,127.43365119997179,127.43365119997179,127.43365119997179,127.43365119997179,127.43365119997179,127.43365119997179,127.43365119997179,127.43365119997179,127.78329639998265,127.78329639998265,127.78329639998265,127.78329639998265,127.78329639998265,127.78329639998265,127.78329639998265,127.78329639998265,127.78329639998265,22,0,,,127.78329639998265,127.9852582999738,1000,127.9852582999738,1000,1000,1000,1000,1,num_2,0.4315043999813497,,26,14,2026-03-05_11h24.53.239,2026A_exp2,2022.2.4,59.944886677217596,
1000,1,6.1,0.0,1,0,33,33,71,,,,,128.43390970001929,129.08457289997023,129.08457289997023,129.58575470000505,315,45,129.58575470000505,129.58575470000505,129.58575470000505,129.58575470000505,129.58575470000505,129.58575470000505,129.58575470000505,129.58575470000505,129.58575470000505,129.95215989998542,129.95215989998542,129.95215989998542,129.95215989998542,129.95215989998542,129.95215989998542,129.95215989998542,129.95215989998542,129.95215989998542,23,0,,,129.95215989998542,130.15405100001954,1000,130.15405100001954,1000,1000,1000,1000,0,num_3,0.44626050000078976,,26,14,2026-03-05_11h24.53.239,2026A_exp2,2022.2.4,59.944886677217596,
1,0,3.7,3.7,1,0,34,34,11,,,,,130.61935370002175,131.27007829997456,131.27007829997456,131.75462670001434,315,315,131.75462670001434,131.75462670001434,131.75462670001434,131.75462670001434,131.75462670001434,131.75462670001434,131.75462670001434,131.75462670001434,131.75462670001434,132.12105670000892,132.12105670000892,132.12105670000892,132.12105670000892,132.12105670000892,132.12105670000892,132.12105670000892,132.12105670000892,132.12105670000892,19,1,[0.0013086000108160079],[0.06679770001210272],132.12105670000892,132.32123290002346,3.7,132.32123290002346,0,3.7,1,0,1000,num_1,0.5833288000430912,,26,14,2026-03-05_11h24.53.239,2026A_exp2,2022.2.4,59.944886677217596,
1000,1,0.0,6.1,0,0,35,35,85,,,,,132.9216990999994,133.57262410002295,133.57262410002295,134.05691059998935,315,315,134.05691059998935,134.05691059998935,134.05691059998935,134.05691059998935,134.05691059998935,134.05691059998935,134.05691059998935,134.05691059998935,134.05691059998935,134.42339200002607,134.42339200002607,134.42339200002607,134.42339200002607,134.42339200002607,134.42339200002607,134.42339200002607,134.42339200002607,134.42339200002607,23,0,,,134.42339200002607,134.64444050000748,1000,134.64444050000748,1000,1000,1000,1000,1,num_2,0.051853899960406125,,26,14,2026-03-05_11h24.53.239,2026A_exp2,2022.2.4,59.944886677217596,
1000,1,0.0,0.0,0,0,36,36,33,,,,,134.72344219998922,135.37426720000803,135.37426720000803,135.87545709998813,45,45,135.87545709998813,135.87545709998813,135.87545709998813,135.87545709998813,135.87545709998813,135.87545709998813,135.87545709998813,135.87545709998813,135.87545709998813,136.24194879998686,136.24194879998686,136.24194879998686,136.24194879998686,136.24194879998686,136.24194879998686,136.24194879998686,136.24194879998686,136.24194879998686,23,0,,,136.24194879998686,136.44387770001777,1000,136.44387770001777,1000,1000,1000,1000,1,num_2,0.47712789999786764,,26,14,2026-03-05_11h24.53.239,2026A_exp2,2022.2.4,59.944886677217596,
1000,1,4.9,6.1,0,0,37,37,59,,,,,136.94241299998248,137.59304180002073,137.59304180002073,138.09427970001707,315,45,138.09427970001707,138.09427970001707,138.09427970001707,138.09427970001707,138.09427970001707,138.09427970001707,138.09427970001707,138.09427970001707,138.09427970001707,138.4606806000229,138.4606806000229,138.4606806000229,138.4606806000229,138.4606806000229,138.4606806000229,138.4606806000229,138.4606806000229,138.4606806000229,19,2,"[0.06668150000041351, 0.2669047999661416]","[0.10047279996797442, 0.3005445000017062]",138.4606806000229,138.6625318999868,1000,138.6625318999868,1000,1000,1000,1000,0,num_3,0.5862756000133231,,26,14,2026-03-05_11h24.53.239,2026A_exp2,2022.2.4,59.944886677217596,
1,0,0.0,4.9,0,0,38,38,9,,,,,139.27831800002605,139.92882039997494,139.92882039997494,140.41315420001047,315,45,140.41315420001047,140.41315420001047,140.41315420001047,140.41315420001047,140.41315420001047,140.41315420001047,140.41315420001047,140.41315420001047,140.41315420001047,140.7796639999724,140.7796639999724,140.7796639999724,140.7796639999724,140.7796639999724,140.7796639999724,140.7796639999724,140.7796639999724,140.7796639999724,23,0,,,140.7796639999724,140.97986939997645,0.0,140.97986939997645,0,0.0,0,1,1000,num_1,0.5803842000314035,,26,14,2026-03-05_11h24.53.239,2026A_exp2,2022.2.4,59.944886677217596,
1,0,0.0,4.9,0,0,39,39,48,,,,,141.580528600025,142.23114809999242,142.23114809999242,142.7155911999871,45,315,142.7155911999871,142.7155911999871,142.7155911999871,142.7155911999871,142.7155911999871,142.7155911999871,142.7155911999871,142.7155911999871,142.7155911999871,143.0819546999992,143.0819546999992,143.0819546999992,143.0819546999992,143.0819546999992,143.0819546999992,143.0819546999992,143.0819546999992,143.0819546999992,11,7,"[0.001205699983984232, 0.06686500000068918, 0.10018700000364333, 0.18306959996698424, 0.2167745999759063, 0.2838138999650255, 0.3504751999862492]","[0.05026039999211207, 0.08356910001020879, 0.16663140000309795, 0.20006149995606393, 0.2337849999894388, 0.30046880000736564, 0.3672089999890886]",143.0819546999992,143.28205709997565,0.0,143.28205709997565,1,0.0,0,0,1000,num_4,1.8064874000265263,,26,14,2026-03-05_11h24.53.239,2026A_exp2,2022.2.4,59.944886677217596,
1000,1,0.0,0.0,1,0,40,40,37,,,,,145.11732959997607,145.76797300000908,145.76797300000908,146.25251500000013,45,315,146.25251500000013,146.25251500000013,146.25251500000013,146.25251500000013,146.25251500000013,146.25251500000013,146.25251500000013,146.25251500000013,146.25251500000013,146.61872700002277,146.61872700002277,146.61872700002277,146.61872700002277,146.61872700002277,146.61872700002277,146.61872700002277,146.61872700002277,146.61872700002277,21,2,"[0.3007649999926798, 0.33395260001998395]","[0.3174242000095546, 0.3507046999875456]",146.61872700002277,146.82074880000437,1000,146.82074880000437,1000,1000,1000,1000,1,num_2,0.4917122999904677,,26,14,2026-03-05_11h24.53.239,2026A_exp2,2022.2.4,59.944886677217596,
0,0,4.9,4.9,0,0,41,41,88,,,,,147.3361281999969,147.98680930002593,147.98680930002593,148.4880290000001,315,45,148.4880290000001,148.4880290000001,148.4880290000001,148.4880290000001,148.4880290000001,148.4880290000001,148.4880290000001,148.4880290000001,148.4880290000001,148.85444540000753,148.85444540000753,148.85444540000753,148.85444540000753,148.85444540000753,148.85444540000753,148.85444540000753,148.85444540000753,148.85444540000753,6,1,[0.10040649998700246],[0.3673344000126235],148.85444540000753,149.05445019999752,4.9,149.05445019999752,1,4.9,1,1,1000,num_4,0.7623476999578997,,26,14,2026-03-05_11h24.53.239,2026A_exp2,2022.2.4,59.944886677217596,
1000,1,4.9,4.9,0,0,42,42,36,,,,,149.8386046999949,150.48926200001733,150.48926200001733,150.97365609998815,45,45,150.97365609998815,150.97365609998815,150.97365609998815,150.97365609998815,150.97365609998815,150.97365609998815,150.97365609998815,150.97365609998815,150.97365609998815,151.340269599983,151.340269599983,151.340269599983,151.340269599983,151.340269599983,151.340269599983,151.340269599983,151.340269599983,151.340269599983,2,2,"[0.0012041000300087035, 0.08344930002931505]","[0.033289199986029416, 0.36710809997748584]",151.340269599983,151.54241900000488,1000,151.54241900000488,1000,1000,1000,1000,0,num_3,0.9382440999615937,,26,14,2026-03-05_11h24.53.239,2026A_exp2,2022.2.4,59.944886677217596,
1,0,3.7,6.1,0,0,43,43,74,,,,,152.5082672999706,153.15868290001526,153.15868290001526,153.65980159997707,315,315,153.65980159997707,153.65980159997707,153.65980159997707,153.65980159997707,153.65980159997707,153.65980159997707,153.65980159997707,153.65980159997707,153.65980159997707,154.0094717000029,154.0094717000029,154.0094717000029,154.0094717000029,154.0094717000029,154.0094717000029,154.0094717000029,154.0094717000029,154.0094717000029,22,0,,,154.0094717000029,154.2097594999941,3.7,154.22629820002476,1,3.7,1,1,1000,num_4,0.7663597999489866,,26,14,2026-03-05_11h24.53.239,2026A_exp2,2022.2.4,59.944886677217596,
1000,1,3.7,0.0,1,0,44,44,54,,,,,155.0104004999739,155.6612169999862,155.6612169999862,156.14567220001481,315,315,156.14567220001481,156.14567220001481,156.14567220001481,156.14567220001481,156.14567220001481,156.14567220001481,156.14567220001481,156.14567220001481,156.14567220001481,156.511909199995,156.511909199995,156.511909199995,156.511909199995,156.511909199995,156.511909199995,156.511909199995,156.511909199995,156.511909199995,10,2,"[0.0012249000137671828, 0.21639389998745173]","[0.18368560000089929, 0.2504926999681629]",156.511909199995,156.71431870001834,1000,156.71431870001834,1000,1000,1000,1000,0,num_3,0.47843059996375814,,26,14,2026-03-05_11h24.53.239,2026A_exp2,2022.2.4,59.944886677217596,
1,0,0.0,0.0,1,0,45,45,68,,,,,157.2127606999711,157.8631559999776,157.8631559999776,158.3643784999731,315,45,158.3643784999731,158.3643784999731,158.3643784999731,158.3643784999731,158.3643784999731,158.3643784999731,158.3643784999731,158.3643784999731,158.3643784999731,158.7309408999863,158.7309408999863,158.7309408999863,158.7309408999863,158.7309408999863,158.7309408999863,158.7309408999863,158.7309408999863,158.7309408999863,6,2,"[0.033057000022381544, 0.1168906000093557]","[0.08355280000250787, 0.33394069998757914]",158.7309408999863,158.93107940000482,0.0,158.93107940000482,1,0.0,0,0,1000,num_4,0.8128025000332855,,26,14,2026-03-05_11h24.53.239,2026A_exp2,2022.2.4,59.944886677217596,
1000,1,0.0,0.0,1,0,46,46,72,,,,,159.7650966999936,160.4156044999836,160.4156044999836,160.90058810001938,45,45,160.90058810001938,160.90058810001938,160.90058810001938,160.90058810001938,160.90058810001938,160.90058810001938,160.90058810001938,160.90058810001938,160.90058810001938,161.26665220002178,161.26665220002178,161.26665220002178,161.26665220002178,161.26665220002178,161.26665220002178,161.26665220002178,161.26665220002178,161.26665220002178,23,0,,,161.26665220002178,161.46914270002162,1000,161.46914270002162,1000,1000,1000,1000,1,num_2,0.4357272999477573,,26,14,2026-03-05_11h24.53.239,2026A_exp2,2022.2.4,59.944886677217596,
0,0,0.0,6.1,1,0,47,47,84,,,,,161.9340998000116,162.58476150000934,162.58476150000934,163.08590110001387,315,45,163.08590110001387,163.08590110001387,163.08590110001387,163.08590110001387,163.08590110001387,163.08590110001387,163.08590110001387,163.08590110001387,163.08590110001387,163.4523143999977,163.4523143999977,163.4523143999977,163.4523143999977,163.4523143999977,163.4523143999977,163.4523143999977,163.4523143999977,163.4523143999977,0,1,[0.0012450999929569662],[0.36731080000754446],163.4523143999977,163.65242589998525,0.0,163.65242589998525,0,0.0,0,1,1000,num_1,0.6448125999886543,,26,14,2026-03-05_11h24.53.239,2026A_exp2,2022.2.4,59.944886677217596,
1,0,0.0,3.7,0,0,48,48,34,,,,,164.31977120001102,164.970516100002,164.970516100002,165.45495179999853,315,45,165.45495179999853,165.45495179999853,165.45495179999853,165.45495179999853,165.45495179999853,165.45495179999853,165.45495179999853,165.45495179999853,165.45495179999853,165.82135739998193,165.82135739998193,165.82135739998193,165.82135739998193,165.82135739998193,165.82135739998193,165.82135739998193,165.82135739998193,165.82135739998193,23,0,,,165.82135739998193,166.02145300002303,0.0,166.02145300002303,0,0.0,0,1,1000,num_1,1.8745249999919906,,26,14,2026-03-05_11h24.53.239,2026A_exp2,2022.2.4,59.944886677217596,
1000,1,0.0,0.0,1,0,49,49,27,,,,,167.92323860002216,168.57404610002413,168.57404610002413,169.05845620000036,45,45,169.05845620000036,169.05845620000036,169.05845620000036,169.05845620000036,169.05845620000036,169.05845620000036,169.05845620000036,169.05845620000036,169.05845620000036,169.425034600019,169.425034600019,169.425034600019,169.425034600019,169.425034600019,169.425034600019,169.425034600019,169.425034600019,169.425034600019,23,0,,,169.425034600019,169.62697779998416,1000,169.62697779998416,1000,1000,1000,1000,1,num_2,0.4531639000051655,,26,14,2026-03-05_11h24.53.239,2026A_exp2,2022.2.4,59.944886677217596,
1,0,0.0,0.0,1,0,50,50,56,,,,,170.10875229997328,170.7430254999781,170.7430254999781,171.24401989998296,45,45,171.24401989998296,171.24401989998296,171.24401989998296,171.24401989998296,171.24401989998296,171.24401989998296,171.24401989998296,171.24401989998296,171.24401989998296,171.61050989996875,171.61050989996875,171.61050989996875,171.61050989996875,171.61050989996875,171.61050989996875,171.61050989996875,171.61050989996875,171.61050989996875,23,0,,,171.61050989996875,171.81082770001376,0.0,171.81082770001376,1,0.0,0,0,1000,num_4,0.6142730000428855,,26,14,2026-03-05_11h24.53.239,2026A_exp2,2022.2.4,59.944886677217596,
1,0,0.0,6.1,1,0,51,51,39,,,,,172.4446234999923,173.0953605999821,173.0953605999821,173.5797727999743,45,45,173.5797727999743,173.5797727999743,173.5797727999743,173.5797727999743,173.5797727999743,173.5797727999743,173.5797727999743,173.5797727999743,173.5797727999743,173.9462112999754,173.9462112999754,173.9462112999754,173.9462112999754,173.9462112999754,173.9462112999754,173.9462112999754,173.9462112999754,173.9462112999754,23,0,,,173.9462112999754,174.14629589999095,6.1,174.14629589999095,1,6.1,1,1,1000,num_4,0.8228281000046991,,26,14,2026-03-05_11h24.53.239,2026A_exp2,2022.2.4,59.944886677217596,
1000,1,0.0,6.1,0,0,52,52,5,,,,,174.99706650001463,175.64773799997056,175.64773799997056,176.13232829998014,45,45,176.13232829998014,176.13232829998014,176.13232829998014,176.13232829998014,176.13232829998014,176.13232829998014,176.13232829998014,176.13232829998014,176.13232829998014,176.49866149999434,176.49866149999434,176.49866149999434,176.49866149999434,176.49866149999434,176.49866149999434,176.49866149999434,176.49866149999434,176.49866149999434,23,0,,,176.49866149999434,176.70058210002026,1000,176.70058210002026,1000,1000,1000,1000,1,num_2,0.5072766000521369,,26,14,2026-03-05_11h24.53.239,2026A_exp2,2022.2.4,59.944886677217596,
1000,1,4.9,4.9,1,0,53,53,67,,,,,177.2326956000179,177.8834777000011,177.8834777000011,178.38457180000842,45,45,178.38457180000842,178.38457180000842,178.38457180000842,178.38457180000842,178.38457180000842,178.38457180000842,178.38457180000842,178.38457180000842,178.38457180000842,178.7509407000034,178.7509407000034,178.7509407000034,178.7509407000034,178.7509407000034,178.7509407000034,178.7509407000034,178.7509407000034,178.7509407000034,23,0,,,178.7509407000034,178.9530725000077,1000,178.9530725000077,1000,1000,1000,1000,1,num_2,0.6866680999519303,,26,14,2026-03-05_11h24.53.239,2026A_exp2,2022.2.4,59.944886677217596,
1000,1,0.0,6.1,1,0,54,54,40,,,,,179.66845060000196,180.3192151999683,180.3192151999683,180.82036850001896,45,45,180.82036850001896,180.82036850001896,180.82036850001896,180.82036850001896,180.82036850001896,180.82036850001896,180.82036850001896,180.82036850001896,180.82036850001896,181.18662799999584,181.18662799999584,181.18662799999584,181.18662799999584,181.18662799999584,181.18662799999584,181.18662799999584,181.18662799999584,181.18662799999584,23,0,,,181.18662799999584,181.38891370000783,1000,181.38891370000783,1000,1000,1000,1000,1,num_2,0.4988700000103563,,26,14,2026-03-05_11h24.53.239,2026A_exp2,2022.2.4,59.944886677217596,
0,0,4.9,3.7,1,0,55,55,13,,,,,181.90403420000803,182.55482030002167,182.55482030002167,183.0558162999805,315,45,183.0558162999805,183.0558162999805,183.0558162999805,183.0558162999805,183.0558162999805,183.0558162999805,183.0558162999805,183.0558162999805,183.0558162999805,183.42218400002457,183.42218400002457,183.42218400002457,183.42218400002457,183.42218400002457,183.42218400002457,183.42218400002457,183.42218400002457,183.42218400002457,23,0,,,183.42218400002457,183.62249659997178,4.9,183.62249659997178,1,4.9,1,1,1000,num_4,0.7221419999841601,,26,14,2026-03-05_11h24.53.239,2026A_exp2,2022.2.4,59.944886677217596,
1,0,0.0,4.9,1,0,56,56,44,,,,,184.37308170000324,185.0239546999801,185.0239546999801,185.50832849997096,315,315,185.50832849997096,185.50832849997096,185.50832849997096,185.50832849997096,185.50832849997096,185.50832849997096,185.50832849997096,185.50832849997096,185.50832849997096,185.874766599969,185.874766599969,185.874766599969,185.874766599969,185.874766599969,185.874766599969,185.874766599969,185.874766599969,185.874766599969,23,0,,,185.874766599969,186.07494790002238,4.9,186.07494790002238,1,4.9,1,1,1000,num_4,0.7257625000202097,,26,14,2026-03-05_11h24.53.239,2026A_exp2,2022.2.4,59.944886677217596,
0,0,3.7,0.0,0,0,57,57,16,,,,,186.82568459998583,187.47622840001713,187.47622840001713,187.96079889999237,45,315,187.96079889999237,187.96079889999237,187.96079889999237,187.96079889999237,187.96079889999237,187.96079889999237,187.96079889999237,187.96079889999237,187.96079889999237,188.32730010000523,188.32730010000523,188.32730010000523,188.32730010000523,188.32730010000523,188.32730010000523,188.32730010000523,188.32730010000523,188.32730010000523,23,0,,,188.32730010000523,188.52741629997035,0.0,188.52741629997035,1,0.0,0,0,1000,num_4,0.6330936999875121,,26,14,2026-03-05_11h24.53.239,2026A_exp2,2022.2.4,59.944886677217596,
1000,1,4.9,6.1,0,0,58,58,35,,,,,189.1779110999778,189.8287813999923,189.8287813999923,190.31328589998884,45,315,190.31328589998884,190.31328589998884,190.31328589998884,190.31328589998884,190.31328589998884,190.31328589998884,190.31328589998884,190.31328589998884,190.31328589998884,190.67962780001108,190.67962780001108,190.67962780001108,190.67962780001108,190.67962780001108,190.67962780001108,190.67962780001108,190.67962780001108,190.67962780001108,23,0,,,190.67962780001108,190.8814304000116,1000,190.8814304000116,1000,1000,1000,1000,1,num_2,0.4705536999972537,,26,14,2026-03-05_11h24.53.239,2026A_exp2,2022.2.4,59.944886677217596,
1000,1,0.0,4.9,0,0,59,59,50,,,,,191.38020730001153,192.03084239998134,192.03084239998134,192.53206880000653,315,315,192.53206880000653,192.53206880000653,192.53206880000653,192.53206880000653,192.53206880000653,192.53206880000653,192.53206880000653,192.53206880000653,192.53206880000653,192.88166850002017,192.88166850002017,192.88166850002017,192.88166850002017,192.88166850002017,192.88166850002017,192.88166850002017,192.88166850002017,192.88166850002017,22,0,,,192.88166850002017,193.08186919998843,1000,193.09882840001956,1000,1000,1000,1000,1,num_2,0.733586699992884,,26,14,2026-03-05_11h24.53.239,2026A_exp2,2022.2.4,59.944886677217596,
1,0,0.0,0.0,1,0,60,60,24,,,,,193.84940539998934,194.50008349999553,194.50008349999553,194.9844213000033,315,45,194.9844213000033,194.9844213000033,194.9844213000033,194.9844213000033,194.9844213000033,194.9844213000033,194.9844213000033,194.9844213000033,194.9844213000033,195.35080090002157,195.35080090002157,195.35080090002157,195.35080090002157,195.35080090002157,195.35080090002157,195.35080090002157,195.35080090002157,195.35080090002157,1,1,[0.001247400010470301],[0.36697249999269843],195.35080090002157,195.55106189998332,0.0,195.55106189998332,1,0.0,0,0,1000,num_4,0.6896535999840125,,26,14,2026-03-05_11h24.53.239,2026A_exp2,2022.2.4,59.944886677217596,
1,0,0.0,0.0,0,0,61,61,64,,,,,196.26838239998324,196.91920020000543,196.91920020000543,197.40345619997242,315,45,197.40345619997242,197.40345619997242,197.40345619997242,197.40345619997242,197.40345619997242,197.40345619997242,197.40345619997242,197.40345619997242,197.40345619997242,197.76983609999297,197.76983609999297,197.76983609999297,197.76983609999297,197.76983609999297,197.76983609999297,197.76983609999297,197.76983609999297,197.76983609999297,0,1,[0.001303600030951202],[0.36719580000499263],197.76983609999297,197.97028690000298,0.0,197.97028690000298,0,0.0,0,1,1000,num_1,0.7261890000081621,,26,14,2026-03-05_11h24.53.239,2026A_exp2,2022.2.4,59.944886677217596,
1000,1,4.9,3.7,1,0,62,62,46,,,,,198.7210752000101,199.37166299996898,199.37166299996898,199.8560107999947,45,45,199.8560107999947,199.8560107999947,199.8560107999947,199.8560107999947,199.8560107999947,199.8560107999947,199.8560107999947,199.8560107999947,199.8560107999947,200.22249070002,200.22249070002,200.22249070002,200.22249070002,200.22249070002,200.22249070002,200.22249070002,200.22249070002,200.22249070002,0,1,[0.001189500035252422],[0.36725100001785904],200.22249070002,200.42460849997588,1000,200.42460849997588,1000,1000,1000,1000,1,num_2,1.0879528999794275,,26,14,2026-03-05_11h24.53.239,2026A_exp2,2022.2.4,59.944886677217596,
1,0,0.0,0.0,0,0,63,63,75,,,,,201.54023510002298,202.19102580001345,202.19102580001345,202.69230900000548,45,45,202.69230900000548,202.69230900000548,202.69230900000548,202.69230900000548,202.69230900000548,202.69230900000548,202.69230900000548,202.69230900000548,202.69230900000548,203.0584486000007,203.0584486000007,203.0584486000007,203.0584486000007,203.0584486000007,203.0584486000007,203.0584486000007,203.0584486000007,203.0584486000007,2,2,"[0.0012138999882154167, 0.06703899998683482]","[0.03350650001084432, 0.36682070000097156]",203.0584486000007,203.25872199999867,0.0,203.25872199999867,0,0.0,0,1,1000,num_1,0.7813042000052519,,26,14,2026-03-05_11h24.53.239,2026A_exp2,2022.2.4,59.944886677217596,
1,0,3.7,4.9,0,0,64,64,70,,,,,204.05942050000886,204.7102679000236,204.7102679000236,205.1942648999975,315,45,205.1942648999975,205.1942648999975,205.1942648999975,205.1942648999975,205.1942648999975,205.1942648999975,205.1942648999975,205.1942648999975,205.1942648999975,205.56121249997523,205.56121249997523,205.56121249997523,205.56121249997523,205.56121249997523,205.56121249997523,205.56121249997523,205.56121249997523,205.56121249997523,0,1,[0.0012792999623343349],[0.36700139997992665],205.56121249997523,205.76118249999126,3.7,205.76118249999126,1,3.7,1,1,1000,num_4,0.7595808999612927,,26,14,2026-03-05_11h24.53.239,2026A_exp2,2022.2.4,59.944886677217596,
1,0,0.0,6.1,0,0,65,65,3,,,,,206.54536029999144,207.1960856000078,207.1960856000078,207.6805532000144,315,315,207.6805532000144,207.6805532000144,207.6805532000144,207.6805532000144,207.6805532000144,207.6805532000144,207.6805532000144,207.6805532000144,207.6805532000144,208.04697969998233,208.04697969998233,208.04697969998233,208.04697969998233,208.04697969998233,208.04697969998233,208.04697969998233,208.04697969998233,208.04697969998233,5,4,"[0.001206899993121624, 0.1837956999661401, 0.2502817999920808, 0.28382349997991696]","[0.1338118999847211, 0.23377999995136634, 0.26723040000069886, 0.3671085999812931]",208.04697969998233,208.24700009997468,0.0,208.24700009997468,0,0.0,0,1,1000,num_1,0.6490552999894135,,26,14,2026-03-05_11h24.53.239,2026A_exp2,2022.2.4,59.944886677217596,
1,0,3.7,0.0,1,0,66,66,73,,,,,208.9143153000041,209.5651085000136,209.5651085000136,210.04957929998636,45,45,210.04957929998636,210.04957929998636,210.04957929998636,210.04957929998636,210.04957929998636,210.04957929998636,210.04957929998636,210.04957929998636,210.04957929998636,210.4158722999855,210.4158722999855,210.4158722999855,210.4158722999855,210.4158722999855,210.4158722999855,210.4158722999855,210.4158722999855,210.4158722999855,1,2,"[0.0012353999773040414, 0.33405219996348023]","[0.31726009998237714, 0.36730489996261895]",210.4158722999855,210.6160472999909,0.0,210.6160472999909,1,0.0,0,0,1000,num_4,0.7836125000030734,,26,14,2026-03-05_11h24.53.239,2026A_exp2,2022.2.4,59.944886677217596,
0,0,0.0,0.0,0,0,67,67,20,,,,,211.41681899997639,212.06763270002557,212.06763270002557,212.55209860001924,315,45,212.55209860001924,212.55209860001924,212.55209860001924,212.55209860001924,212.55209860001924,212.55209860001924,212.55209860001924,212.55209860001924,212.55209860001924,212.91852250002557,212.91852250002557,212.91852250002557,212.91852250002557,212.91852250002557,212.91852250002557,212.91852250002557,212.91852250002557,212.91852250002557,23,0,,,212.91852250002557,213.11856590001844,0.0,213.11856590001844,1,0.0,0,0,1000,num_4,0.7218296999926679,,26,14,2026-03-05_11h24.53.239,2026A_exp2,2022.2.4,59.944886677217596,
1,0,3.7,0.0,0,0,68,68,15,,,,,213.86930580000626,214.52007749996847,214.52007749996847,215.00452269997913,45,315,215.00452269997913,215.00452269997913,215.00452269997913,215.00452269997913,215.00452269997913,215.00452269997913,215.00452269997913,215.00452269997913,215.00452269997913,215.3707775999792,215.3707775999792,215.3707775999792,215.3707775999792,215.3707775999792,215.3707775999792,215.3707775999792,215.3707775999792,215.3707775999792,23,0,,,215.3707775999792,215.57102410000516,3.7,215.57102410000516,1,3.7,1,1,1000,num_4,1.1257375999703072,,26,14,2026-03-05_11h24.53.239,2026A_exp2,2022.2.4,59.944886677217596,
1000,1,0.0,3.7,0,0,69,69,18,,,,,216.72204560000682,217.37298059999011,217.37298059999011,217.85740729997633,315,315,217.85740729997633,217.85740729997633,217.85740729997633,217.85740729997633,217.85740729997633,217.85740729997633,217.85740729997633,217.85740729997633,217.85740729997633,218.2238098999951,218.2238098999951,218.2238098999951,218.2238098999951,218.2238098999951,218.2238098999951,218.2238098999951,218.2238098999951,218.2238098999951,2,2,"[0.0012912999955005944, 0.08326440001837909]","[0.05020970001351088, 0.3671440000180155]",218.2238098999951,218.4257097999798,1000,218.4257097999798,1000,1000,1000,1000,0,num_3,1.0468099000281654,,26,14,2026-03-05_11h24.53.239,2026A_exp2,2022.2.4,59.944886677217596,
1000,1,3.7,0.0,0,0,70,70,28,,,,,219.49145259999204,220.14236810000148,220.14236810000148,220.62668980000308,315,315,220.62668980000308,220.62668980000308,220.62668980000308,220.62668980000308,220.62668980000308,220.62668980000308,220.62668980000308,220.62668980000308,220.62668980000308,220.99331910000183,220.99331910000183,220.99331910000183,220.99331910000183,220.99331910000183,220.99331910000183,220.99331910000183,220.99331910000183,220.99331910000183,16,3,"[0.0012271999730728567, 0.11687949998304248, 0.16694369999459013]","[0.05025289999321103, 0.15031950001139194, 0.20021819998510182]",220.99331910000183,221.1949683999992,1000,221.1949683999992,1000,1000,1000,1000,0,num_3,0.4540028999908827,,26,14,2026-03-05_11h24.53.239,2026A_exp2,2022.2.4,59.944886677217596,
0,0,0.0,6.1,0,0,71,71,30,,,,,221.67711069999496,222.3278215000173,222.3278215000173,222.8289391999715,45,315,222.8289391999715,222.8289391999715,222.8289391999715,222.8289391999715,222.8289391999715,222.8289391999715,222.8289391999715,222.8289391999715,222.8289391999715,223.17870739998762,223.17870739998762,223.17870739998762,223.17870739998762,223.17870739998762,223.17870739998762,223.17870739998762,223.17870739998762,223.17870739998762,22,0,,,223.17870739998762,223.37893900001654,6.1,223.37893900001654,1,6.1,1,1,1000,num_4,0.8137702000094578,,26,14,2026-03-05_11h24.53.239,2026A_exp2,2022.2.4,59.944886677217596,
1,0,6.1,3.7,1,0,72,72,45,,,,,224.21309590002056,224.84699809999438,224.84699809999438,225.34806539997226,45,315,225.34806539997226,225.34806539997226,225.34806539997226,225.34806539997226,225.34806539997226,225.34806539997226,225.34806539997226,225.34806539997226,225.34806539997226,225.7145756999962,225.7145756999962,225.7145756999962,225.7145756999962,225.7145756999962,225.7145756999962,225.7145756999962,225.7145756999962,225.7145756999962,6,3,"[0.0012040999718010426, 0.31718509999336675, 0.3505661999806762]","[0.25055699999211356, 0.3338613999658264, 0.36734399996930733]",225.7145756999962,225.9148599000182,3.7,225.9148599000182,0,3.7,1,0,1000,num_1,0.6209982000291348,,26,14,2026-03-05_11h24.53.239,2026A_exp2,2022.2.4,59.944886677217596,
1000,1,0.0,3.7,1,0,73,73,7,,,,,226.5652944999747,227.2161344999913,227.2161344999913,227.70040959998732,315,315,227.70040959998732,227.70040959998732,227.70040959998732,227.70040959998732,227.70040959998732,227.70040959998732,227.70040959998732,227.70040959998732,227.70040959998732,228.0668220000225,228.0668220000225,228.0668220000225,228.0668220000225,228.0668220000225,228.0668220000225,228.0668220000225,228.0668220000225,228.0668220000225,0,1,[0.0011753999860957265],[0.36728469998342916],228.0668220000225,228.26913640002022,1000,228.26913640002022,1000,1000,1000,1000,1,num_2,0.8032488000462763,,26,14,2026-03-05_11h24.53.239,2026A_exp2,2022.2.4,59.944886677217596,
1,0,0.0,0.0,0,0,74,74,87,,,,,229.1017681999947,229.7519797999994,229.7519797999994,230.2531293000211,315,45,230.2531293000211,230.2531293000211,230.2531293000211,230.2531293000211,230.2531293000211,230.2531293000211,230.2531293000211,230.2531293000211,230.2531293000211,230.61954420001712,230.61954420001712,230.61954420001712,230.61954420001712,230.61954420001712,230.61954420001712,230.61954420001712,230.61954420001712,230.61954420001712,0,1,[0.001179100014269352],[0.36760170001070946],230.61954420001712,230.81969939998817,0.0,230.81969939998817,0,0.0,0,1,1000,num_1,0.6283977999701165,,26,14,2026-03-05_11h24.53.239,2026A_exp2,2022.2.4,59.944886677217596,
1000,1,6.1,3.7,0,0,75,75,43,,,,,231.47022080002353,232.12105120002525,232.12105120002525,232.62215680000372,45,315,232.62215680000372,232.62215680000372,232.62215680000372,232.62215680000372,232.62215680000372,232.62215680000372,232.62215680000372,232.62215680000372,232.62215680000372,232.98852020001505,232.98852020001505,232.98852020001505,232.98852020001505,232.98852020001505,232.98852020001505,232.98852020001505,232.98852020001505,232.98852020001505,22,1,[0.3335122000426054],[0.3501663000206463],232.98852020001505,233.1908752999734,1000,233.1908752999734,1000,1000,1000,1000,0,num_3,0.4335138000315055,,26,14,2026-03-05_11h24.53.239,2026A_exp2,2022.2.4,59.944886677217596,
1,0,4.9,0.0,0,0,76,76,14,,,,,233.6559698000201,234.30659729999024,234.30659729999024,234.80758720001904,45,45,234.80758720001904,234.80758720001904,234.80758720001904,234.80758720001904,234.80758720001904,234.80758720001904,234.80758720001904,234.80758720001904,234.80758720001904,235.15736439998727,235.15736439998727,235.15736439998727,235.15736439998727,235.15736439998727,235.15736439998727,235.15736439998727,235.15736439998727,235.15736439998727,22,0,,,235.15736439998727,235.35744150000392,4.9,235.35744150000392,1,4.9,1,1,1000,num_4,0.7146002999506891,,26,14,2026-03-05_11h24.53.239,2026A_exp2,2022.2.4,59.944886677217596,
1,0,6.1,0.0,1,0,77,77,53,,,,,236.09157950000372,236.74226079997607,236.74226079997607,237.22666490002302,315,315,237.22666490002302,237.22666490002302,237.22666490002302,237.22666490002302,237.22666490002302,237.22666490002302,237.22666490002302,237.22666490002302,237.22666490002302,237.5932685000007,237.5932685000007,237.5932685000007,237.5932685000007,237.5932685000007,237.5932685000007,237.5932685000007,237.5932685000007,237.5932685000007,0,1,[0.0011674999841488898],[0.36737120000179857],237.5932685000007,237.79326080001192,0.0,237.79326080001192,0,0.0,0,1,1000,num_1,0.7105540999909863,,26,14,2026-03-05_11h24.53.239,2026A_exp2,2022.2.4,59.944886677217596,
1,0,6.1,0.0,0,0,78,78,22,,,,,238.5272612000117,239.17796030000318,239.17796030000318,239.66237530001672,45,315,239.66237530001672,239.66237530001672,239.66237530001672,239.66237530001672,239.66237530001672,239.66237530001672,239.66237530001672,239.66237530001672,239.66237530001672,240.02890829998069,240.02890829998069,240.02890829998069,240.02890829998069,240.02890829998069,240.02890829998069,240.02890829998069,240.02890829998069,240.02890829998069,23,0,,,240.02890829998069,240.2291319000069,6.1,240.2291319000069,1,6.1,1,1,1000,num_4,1.8588599999784492,,26,14,2026-03-05_11h24.53.239,2026A_exp2,2022.2.4,59.944886677217596,
1,0,0.0,4.9,1,0,79,79,2,,,,,242.1141818999895,242.76500419998774,242.76500419998774,243.24952000001213,45,315,243.24952000001213,243.24952000001213,243.24952000001213,243.24952000001213,243.24952000001213,243.24952000001213,243.24952000001213,243.24952000001213,243.24952000001213,243.61566900002072,243.61566900002072,243.61566900002072,243.61566900002072,243.61566900002072,243.61566900002072,243.61566900002072,243.61566900002072,243.61566900002072,0,1,[0.0010352999670431018],[0.36750289995688945],243.61566900002072,243.81593749998137,4.9,243.81593749998137,0,4.9,1,0,1000,num_1,0.6806871999870054,,26,14,2026-03-05_11h24.53.239,2026A_exp2,2022.2.4,59.944886677217596,
1000,1,0.0,4.9,1,0,80,80,51,,,,,244.5165681000217,245.16734480002197,245.16734480002197,245.65171070001088,45,315,245.65171070001088,245.65171070001088,245.65171070001088,245.65171070001088,245.65171070001088,245.65171070001088,245.65171070001088,245.65171070001088,245.65171070001088,246.01818979997188,246.01818979997188,246.01818979997188,246.01818979997188,246.01818979997188,246.01818979997188,246.01818979997188,246.01818979997188,246.01818979997188,18,2,"[0.0012583999778144062, 0.083541999978479]","[0.06680209998739883, 0.1001966999610886]",246.01818979997188,246.22008290002123,1000,246.22008290002123,1000,1000,1000,1000,1,num_2,0.5003963999915868,,26,14,2026-03-05_11h24.53.239,2026A_exp2,2022.2.4,59.944886677217596,
1000,1,0.0,3.7,1,0,81,81,86,,,,,246.73568979999982,247.38619799999287,247.38619799999287,247.88741269998718,45,45,247.88741269998718,247.88741269998718,247.88741269998718,247.88741269998718,247.88741269998718,247.88741269998718,247.88741269998718,247.88741269998718,247.88741269998718,248.2536435999791,248.2536435999791,248.2536435999791,248.2536435999791,248.2536435999791,248.2536435999791,248.2536435999791,248.2536435999791,248.2536435999791,0,1,[0.0013145999982953072],[0.36731719999806955],248.2536435999791,248.45583079999778,1000,248.45583079999778,1000,1000,1000,1000,1,num_2,0.5518942999769934,,26,14,2026-03-05_11h24.53.239,2026A_exp2,2022.2.4,59.944886677217596,
1,0,0.0,0.0,0,0,82,82,31,,,,,249.03788339998573,249.68847860000096,249.68847860000096,250.1897684999858,315,315,250.1897684999858,250.1897684999858,250.1897684999858,250.1897684999858,250.1897684999858,250.1897684999858,250.1897684999858,250.1897684999858,250.1897684999858,250.55617330002133,250.55617330002133,250.55617330002133,250.55617330002133,250.55617330002133,250.55617330002133,250.55617330002133,250.55617330002133,250.55617330002133,0,1,[0.001250700035598129],[0.36705180001445115],250.55617330002133,250.75629109999863,0.0,250.75629109999863,1,0.0,0,0,1000,num_4,0.7479566999827512,,26,14,2026-03-05_11h24.53.239,2026A_exp2,2022.2.4,59.944886677217596,
0,0,6.1,0.0,0,0,83,83,65,,,,,251.52362079999875,252.15766259998782,252.15766259998782,252.6589011999895,45,45,252.6589011999895,252.6589011999895,252.6589011999895,252.6589011999895,252.6589011999895,252.6589011999895,252.6589011999895,252.6589011999895,252.6589011999895,253.02502200001618,253.02502200001618,253.02502200001618,253.02502200001618,253.02502200001618,253.02502200001618,253.02502200001618,253.02502200001618,253.02502200001618,0,1,[0.0009958000155165792],[0.36715469998307526],253.02502200001618,253.22537120000925,0.0,253.22537120000925,0,0.0,0,1,1000,num_1,0.6154543999582529,,26,14,2026-03-05_11h24.53.239,2026A_exp2,2022.2.4,59.944886677217596,
1,0,4.9,0.0,0,0,84,84,47,,,,,253.85926719999406,254.51021259999834,254.51021259999834,254.99428569996962,45,315,254.99428569996962,254.99428569996962,254.99428569996962,254.99428569996962,254.99428569996962,254.99428569996962,254.99428569996962,254.99428569996962,254.99428569996962,255.36090650002006,255.36090650002006,255.36090650002006,255.36090650002006,255.36090650002006,255.36090650002006,255.36090650002006,255.36090650002006,255.36090650002006,0,1,[0.0012376999948173761],[0.36695830000098795],255.36090650002006,255.56112749996828,4.9,255.56112749996828,1,4.9,1,1,1000,num_4,0.8073101000045426,,26,14,2026-03-05_11h24.53.239,2026A_exp2,2022.2.4,59.944886677217596,
1,0,0.0,0.0,1,0,85,85,66,,,,,256.39521649997914,257.0458613000228,257.0458613000228,257.53039059997536,315,315,257.53039059997536,257.53039059997536,257.53039059997536,257.53039059997536,257.53039059997536,257.53039059997536,257.53039059997536,257.53039059997536,257.53039059997536,257.8966913999757,257.8966913999757,257.8966913999757,257.8966913999757,257.8966913999757,257.8966913999757,257.8966913999757,257.8966913999757,257.8966913999757,3,1,[0.05021910002687946],[0.3673333000042476],257.8966913999757,258.09689939999953,0.0,258.09689939999953,1,0.0,0,0,1000,num_4,0.7515302999527194,,26,14,2026-03-05_11h24.53.239,2026A_exp2,2022.2.4,59.944886677217596,
1,0,0.0,3.7,1,0,86,86,83,,,,,258.8644603000139,259.51510540000163,259.51510540000163,260.01622380001936,45,315,260.01622380001936,260.01622380001936,260.01622380001936,260.01622380001936,260.01622380001936,260.01622380001936,260.01622380001936,260.01622380001936,260.01622380001936,260.3826461000135,260.3826461000135,260.3826461000135,260.3826461000135,260.3826461000135,260.3826461000135,260.3826461000135,260.3826461000135,260.3826461000135,0,1,[0.0012289999867789447],[0.36704560002544895],260.3826461000135,260.58272419997957,3.7,260.58272419997957,1,3.7,1,1,1000,num_4,0.5302299999748357,,26,14,2026-03-05_11h24.53.239,2026A_exp2,2022.2.4,59.944886677217596,
1000,1,4.9,3.7,0,0,87,87,26,,,,,261.13338959997054,261.78398539999034,261.78398539999034,262.268332800013,315,45,262.268332800013,262.268332800013,262.268332800013,262.268332800013,262.268332800013,262.268332800013,262.268332800013,262.268332800013,262.268332800013,262.634862100007,262.634862100007,262.634862100007,262.634862100007,262.634862100007,262.634862100007,262.634862100007,262.634862100007,262.634862100007,2,1,[0.0012181999627500772],[0.35046929999953136],262.634862100007,262.83668870001566,1000,262.83668870001566,1000,1000,1000,1000,0,num_3,0.6435015000170097,,26,14,2026-03-05_11h24.53.239,2026A_exp2,2022.2.4,59.944886677217596,
1,0,4.9,0.0,0,0,88,88,57,,,,,263.5024143999908,264.1529920999892,264.1529920999892,264.6542279999703,45,315,264.6542279999703,264.6542279999703,264.6542279999703,264.6542279999703,264.6542279999703,264.6542279999703,264.6542279999703,264.6542279999703,264.6542279999703,265.0038757000002,265.0038757000002,265.0038757000002,265.0038757000002,265.0038757000002,265.0038757000002,265.0038757000002,265.0038757000002,265.0038757000002,1,2,"[0.0012598999892361462, 0.08342589996755123]","[0.06683769996743649, 0.35233169997809455]",265.0038757000002,265.21006569999736,4.9,265.21006569999736,1,4.9,1,1,1000,num_4,0.6304649000521749,,26,14,2026-03-05_11h24.53.239,2026A_exp2,2022.2.4,59.944886677217596,
1,0,3.7,0.0,1,0,89,89,55,,,,,265.87150449998444,266.52199879998807,266.52199879998807,267.0065351999947,45,45,267.0065351999947,267.0065351999947,267.0065351999947,267.0065351999947,267.0065351999947,267.0065351999947,267.0065351999947,267.0065351999947,267.0065351999947,267.37300329998834,267.37300329998834,267.37300329998834,267.37300329998834,267.37300329998834,267.37300329998834,267.37300329998834,267.37300329998834,267.37300329998834,2,2,"[0.0012173000141046941, 0.31722750002518296]","[0.30047499999636784, 0.3671178999939002]",267.37300329998834,267.57318349997513,0.0,267.57318349997513,1,0.0,0,0,1000,num_4,0.5624655999708921,,26,14,2026-03-05_11h24.53.239,2026A_exp2,2022.2.4,59.944886677217596,
,,,,,,,,,,,,,,,,,,,,,,,,,,,,,,,,,,,,,,,,,,,,,,,,,,,,268.16636269999435,,,,,,,
