validity,detectorcomp,contrastCW,contrastCCW,precueCWorCCW,block_80trials.thisRepN,block_80trials.thisTrialN,block_80trials.thisN,block_80trials.thisIndex,etRecord.started,etRecord.stopped,text.started,text.stopped,text_4.started,text_4.stopped,text_6.started,text_6.stopped,oriCW,oriCCW,roi_2.started,grating_UR.started,grating_UL.started,grating_LR.started,grating_LL.started,noise_UR.started,noise_UL.started,noise_LR.started,noise_LL.started,roi_2.stopped,grating_UR.stopped,grating_UL.stopped,grating_LR.stopped,grating_LL.stopped,noise_UR.stopped,noise_UL.stopped,noise_LR.stopped,noise_LL.stopped,outframe,roi_2.numLooks,roi_2.timesOn,roi_2.timesOff,text_2.started,text_2.stopped,probedcontrast,key_resp.started,respdetect,relevantContrast,correctDetect,TorFdetect,respCWorCCW,key_resp.keys,key_resp.rt,feedback_display_.started,participantNo,blockNo,date,expName,psychopyVersion,frameRate,
1000,1,3.7,0.0,0,0,0,0,56,3.519997699186206e-05,3.519997699186206e-05,56.73696120001841,58.74023589998251,58.74023589998251,59.37341699999524,59.37341699999524,59.892528900003526,315,315,59.892528900003526,59.892528900003526,59.892528900003526,59.892528900003526,59.892528900003526,59.892528900003526,59.892528900003526,59.892528900003526,59.892528900003526,60.2411587999668,60.2411587999668,60.2411587999668,60.2411587999668,60.2411587999668,60.2411587999668,60.2411587999668,60.2411587999668,60.2411587999668,0,1,[0.00092299998505041],[0.36733359994832426],60.2411587999668,60.4480329999933,1000,60.4480329999933,1000,1000,1000,1000,1,num_2,1.912483100022655,,24,4,2026-03-04_15h28.57.382,2026A_exp2,2022.2.4,59.92735605698145,
1000,1,3.7,4.9,0,0,1,1,45,,,,,62.37684009998338,63.027248799975496,63.027248799975496,63.52846000000136,315,45,63.52846000000136,63.52846000000136,63.52846000000136,63.52846000000136,63.52846000000136,63.52846000000136,63.52846000000136,63.52846000000136,63.52846000000136,63.894702399964444,63.894702399964444,63.894702399964444,63.894702399964444,63.894702399964444,63.894702399964444,63.894702399964444,63.894702399964444,63.894702399964444,0,1,[0.0012212999863550067],[0.3670467999763787],63.894702399964444,64.09519660001388,1000,64.09519660001388,1000,1000,1000,1000,1,num_2,0.5692937999847345,,24,4,2026-03-04_15h28.57.382,2026A_exp2,2022.2.4,59.92735605698145,
1,0,6.1,0.0,1,0,2,2,70,,,,,64.69569289998617,65.34627849998651,65.34627849998651,65.84745709999697,45,45,65.84745709999697,65.84745709999697,65.84745709999697,65.84745709999697,65.84745709999697,65.84745709999697,65.84745709999697,65.84745709999697,65.84745709999697,66.19732169999043,66.19732169999043,66.19732169999043,66.19732169999043,66.19732169999043,66.19732169999043,66.19732169999043,66.19732169999043,66.19732169999043,0,1,[0.0012149999965913594],[0.34999499999685213],66.19732169999043,66.39742839999963,0.0,66.39742839999963,0,0.0,0,1,1000,num_1,1.1788996999966912,,24,4,2026-03-04_15h28.57.382,2026A_exp2,2022.2.4,59.92735605698145,
1,0,4.9,3.7,0,0,3,3,44,,,,,67.59898800001247,68.23422199999914,68.23422199999914,68.73358289996395,315,315,68.73358289996395,68.73358289996395,68.73358289996395,68.73358289996395,68.73358289996395,68.73358289996395,68.73358289996395,68.73358289996395,68.73358289996395,69.10026119998656,69.10026119998656,69.10026119998656,69.10026119998656,69.10026119998656,69.10026119998656,69.10026119998656,69.10026119998656,69.10026119998656,0,1,[0.0008012999896891415],[0.36782460001995787],69.10026119998656,69.3011307999841,4.9,69.3011307999841,1,4.9,1,1,1000,num_4,0.8357527999905869,,24,4,2026-03-04_15h28.57.382,2026A_exp2,2022.2.4,59.92735605698145,
1000,1,6.1,0.0,1,0,4,4,83,,,,,70.16781690000789,70.8017555999686,70.8017555999686,71.30267750000348,315,45,71.30267750000348,71.30267750000348,71.30267750000348,71.30267750000348,71.30267750000348,71.30267750000348,71.30267750000348,71.30267750000348,71.30267750000348,71.66904030001024,71.66904030001024,71.66904030001024,71.66904030001024,71.66904030001024,71.66904030001024,71.66904030001024,71.66904030001024,71.66904030001024,0,1,[0.0007359999581240118],[0.367011199996341],71.66904030001024,71.86929699999746,1000,71.86929699999746,1000,1000,1000,1000,0,num_3,0.6907341000041924,,24,4,2026-03-04_15h28.57.382,2026A_exp2,2022.2.4,59.92735605698145,
0,0,0.0,0.0,0,0,5,5,59,,,,,72.58671369997319,73.23747549997643,73.23747549997643,73.72164709999925,45,45,73.72164709999925,73.72164709999925,73.72164709999925,73.72164709999925,73.72164709999925,73.72164709999925,73.72164709999925,73.72164709999925,73.72164709999925,74.08816579997074,74.08816579997074,74.08816579997074,74.08816579997074,74.08816579997074,74.08816579997074,74.08816579997074,74.08816579997074,74.08816579997074,5,1,[0.08309360005659983],[0.3671452000271529],74.08816579997074,74.28839499998139,0.0,74.28839499998139,0,0.0,0,1,1000,num_1,1.1602987999795005,,24,4,2026-03-04_15h28.57.382,2026A_exp2,2022.2.4,59.92735605698145,
1,0,0.0,0.0,0,0,6,6,79,,,,,75.47291820001556,76.10755909996806,76.10755909996806,76.60804959997768,315,45,76.60804959997768,76.60804959997768,76.60804959997768,76.60804959997768,76.60804959997768,76.60804959997768,76.60804959997768,76.60804959997768,76.60804959997768,76.97445159999188,76.97445159999188,76.97445159999188,76.97445159999188,76.97445159999188,76.97445159999188,76.97445159999188,76.97445159999188,76.97445159999188,20,3,"[0.21646480000345036, 0.26760929997544736, 0.3001548000029288]","[0.2332204999984242, 0.2834407999762334, 0.3167026999872178]",76.97445159999188,77.17468260001624,0.0,77.17468260001624,0,0.0,0,1,1000,num_1,1.3058058999595232,,24,4,2026-03-04_15h28.57.382,2026A_exp2,2022.2.4,59.92735605698145,
1,0,3.7,6.1,0,0,7,7,52,,,,,78.51064389996463,79.15975819999585,79.15975819999585,79.66083920001984,45,45,79.66083920001984,79.66083920001984,79.66083920001984,79.66083920001984,79.66083920001984,79.66083920001984,79.66083920001984,79.66083920001984,79.66083920001984,80.02745599998161,80.02745599998161,80.02745599998161,80.02745599998161,80.02745599998161,80.02745599998161,80.02745599998161,80.02745599998161,80.02745599998161,15,1,[0.0007247999892570078],[0.1335925999446772],80.02745599998161,80.22754089999944,3.7,80.22754089999944,1,3.7,1,1,1000,num_4,0.8765024000313133,,24,4,2026-03-04_15h28.57.382,2026A_exp2,2022.2.4,59.92735605698145,
0,0,6.1,4.9,0,0,8,8,22,,,,,81.12852769996971,81.7626825000043,81.7626825000043,82.26368470001034,315,315,82.26368470001034,82.26368470001034,82.26368470001034,82.26368470001034,82.26368470001034,82.26368470001034,82.26368470001034,82.26368470001034,82.26368470001034,82.63017580000451,82.63017580000451,82.63017580000451,82.63017580000451,82.63017580000451,82.63017580000451,82.63017580000451,82.63017580000451,82.63017580000451,22,0,,,82.63017580000451,82.83040959999198,4.9,82.83040959999198,1,4.9,1,1,1000,num_4,0.6506295000435784,,24,4,2026-03-04_15h28.57.382,2026A_exp2,2022.2.4,59.92735605698145,
1000,1,0.0,0.0,1,0,9,9,1,,,,,83.49777610000456,84.14838069997495,84.14838069997495,84.63265320000937,45,45,84.63265320000937,84.63265320000937,84.63265320000937,84.63265320000937,84.63265320000937,84.63265320000937,84.63265320000937,84.63265320000937,84.63265320000937,84.99922130000778,84.99922130000778,84.99922130000778,84.99922130000778,84.99922130000778,84.99922130000778,84.99922130000778,84.99922130000778,84.99922130000778,21,1,[0.2817536999937147],[0.3151151000056416],84.99922130000778,85.20166209997842,1000,85.20166209997842,1000,1000,1000,1000,0,num_3,0.7585818999796174,,24,4,2026-03-04_15h28.57.382,2026A_exp2,2022.2.4,59.92735605698145,
1,0,0.0,0.0,0,0,10,10,55,,,,,85.98357209999813,86.63386090000859,86.63386090000859,87.13523279997753,45,315,87.13523279997753,87.13523279997753,87.13523279997753,87.13523279997753,87.13523279997753,87.13523279997753,87.13523279997753,87.13523279997753,87.13523279997753,87.48511259997031,87.48511259997031,87.48511259997031,87.48511259997031,87.48511259997031,87.48511259997031,87.48511259997031,87.48511259997031,87.48511259997031,22,0,,,87.48511259997031,87.6852407999686,0.0,87.6852407999686,0,0.0,0,1,1000,num_1,0.8914726999937557,,24,4,2026-03-04_15h28.57.382,2026A_exp2,2022.2.4,59.92735605698145,
1000,1,3.7,0.0,0,0,11,11,76,,,,,88.60275069996715,89.25348929996835,89.25348929996835,89.73784329998307,315,45,89.73784329998307,89.73784329998307,89.73784329998307,89.73784329998307,89.73784329998307,89.73784329998307,89.73784329998307,89.73784329998307,89.73784329998307,90.10428319999482,90.10428319999482,90.10428319999482,90.10428319999482,90.10428319999482,90.10428319999482,90.10428319999482,90.10428319999482,90.10428319999482,23,0,,,90.10428319999482,90.30672759999288,1000,90.30672759999288,1000,1000,1000,1000,0,num_3,0.9816125999786891,,24,4,2026-03-04_15h28.57.382,2026A_exp2,2022.2.4,59.92735605698145,
1,0,0.0,0.0,0,0,12,12,24,,,,,91.3054844000144,91.95618569996441,91.95618569996441,92.45738979999442,45,315,92.45738979999442,92.45738979999442,92.45738979999442,92.45738979999442,92.45738979999442,92.45738979999442,92.45738979999442,92.45738979999442,92.45738979999442,92.82382709998637,92.82382709998637,92.82382709998637,92.82382709998637,92.82382709998637,92.82382709998637,92.82382709998637,92.82382709998637,92.82382709998637,20,2,"[0.08355849998770282, 0.2170810999814421]","[0.10015710000880063, 0.2503277999931015]",92.82382709998637,93.02385990001494,0.0,93.02385990001494,0,0.0,0,1,1000,num_1,1.0967045999714173,,24,4,2026-03-04_15h28.57.382,2026A_exp2,2022.2.4,59.92735605698145,
1000,1,0.0,6.1,1,0,13,13,71,,,,,94.14177509996807,94.79221699998016,94.79221699998016,95.27667459996883,315,315,95.27667459996883,95.27667459996883,95.27667459996883,95.27667459996883,95.27667459996883,95.27667459996883,95.27667459996883,95.27667459996883,95.27667459996883,95.6432547000004,95.6432547000004,95.6432547000004,95.6432547000004,95.6432547000004,95.6432547000004,95.6432547000004,95.6432547000004,95.6432547000004,23,0,,,95.6432547000004,95.84519129997352,1000,95.84519129997352,1000,1000,1000,1000,1,num_2,0.7868007000070065,,24,4,2026-03-04_15h28.57.382,2026A_exp2,2022.2.4,59.92735605698145,
1,0,0.0,4.9,0,0,14,14,73,,,,,96.66100730001926,97.31230499997037,97.31230499997037,97.81275270000333,45,45,97.81275270000333,97.81275270000333,97.81275270000333,97.81275270000333,97.81275270000333,97.81275270000333,97.81275270000333,97.81275270000333,97.81275270000333,98.17912340001203,98.17912340001203,98.17912340001203,98.17912340001203,98.17912340001203,98.17912340001203,98.17912340001203,98.17912340001203,98.17912340001203,20,2,"[0.0012736000353470445, 0.06686900003114715]","[0.01734210003633052, 0.10019070003181696]",98.17912340001203,98.37933279998833,0.0,98.37933279998833,1,0.0,0,0,1000,num_4,0.9009706000215374,,24,4,2026-03-04_15h28.57.382,2026A_exp2,2022.2.4,59.92735605698145,
1000,1,0.0,3.7,1,0,15,15,13,,,,,99.29689339996548,99.94748560001608,99.94748560001608,100.43208439997397,315,45,100.43208439997397,100.43208439997397,100.43208439997397,100.43208439997397,100.43208439997397,100.43208439997397,100.43208439997397,100.43208439997397,100.43208439997397,100.79826110001886,100.79826110001886,100.79826110001886,100.79826110001886,100.79826110001886,100.79826110001886,100.79826110001886,100.79826110001886,100.79826110001886,23,0,,,100.79826110001886,101.00046959996689,1000,101.00046959996689,1000,1000,1000,1000,1,num_2,1.440948200004641,,24,4,2026-03-04_15h28.57.382,2026A_exp2,2022.2.4,59.92735605698145,
1000,1,0.0,0.0,0,0,16,16,7,,,,,102.46668979997048,103.11722859996371,103.11722859996371,103.61854900000617,45,45,103.61854900000617,103.61854900000617,103.61854900000617,103.61854900000617,103.61854900000617,103.61854900000617,103.61854900000617,103.61854900000617,103.61854900000617,103.98476680001477,103.98476680001477,103.98476680001477,103.98476680001477,103.98476680001477,103.98476680001477,103.98476680001477,103.98476680001477,103.98476680001477,0,1,[0.0012129999813623726],[0.36709969997173175],103.98476680001477,104.18733430001885,1000,104.18733430001885,1000,1000,1000,1000,0,num_3,1.588845299964305,,24,4,2026-03-04_15h28.57.382,2026A_exp2,2022.2.4,59.92735605698145,
1000,1,6.1,0.0,0,0,17,17,81,,,,,105.80339189997176,106.45396339998115,106.45396339998115,106.95474650000688,315,315,106.95474650000688,106.95474650000688,106.95474650000688,106.95474650000688,106.95474650000688,106.95474650000688,106.95474650000688,106.95474650000688,106.95474650000688,107.30493809998734,107.30493809998734,107.30493809998734,107.30493809998734,107.30493809998734,107.30493809998734,107.30493809998734,107.30493809998734,107.30493809998734,22,0,,,107.30493809998734,107.50522009999258,1000,107.50522009999258,1000,1000,1000,1000,0,num_3,0.8237234000116587,,24,4,2026-03-04_15h28.57.382,2026A_exp2,2022.2.4,59.92735605698145,
1,0,3.7,3.7,1,0,18,18,30,,,,,108.35590299998876,109.00646539998706,109.00646539998706,109.5078050000011,315,315,109.5078050000011,109.5078050000011,109.5078050000011,109.5078050000011,109.5078050000011,109.5078050000011,109.5078050000011,109.5078050000011,109.5078050000011,109.87426489999052,109.87426489999052,109.87426489999052,109.87426489999052,109.87426489999052,109.87426489999052,109.87426489999052,109.87426489999052,109.87426489999052,23,0,,,109.87426489999052,110.07435929996427,3.7,110.07435929996427,1,3.7,1,1,1000,num_4,0.8376392999780364,,24,4,2026-03-04_15h28.57.382,2026A_exp2,2022.2.4,59.92735605698145,
1,0,6.1,0.0,1,0,19,19,80,,,,,110.94173409999348,111.59252449998166,111.59252449998166,112.09361169999465,45,45,112.09361169999465,112.09361169999465,112.09361169999465,112.09361169999465,112.09361169999465,112.09361169999465,112.09361169999465,112.09361169999465,112.09361169999465,112.44342680001864,112.44342680001864,112.44342680001864,112.44342680001864,112.44342680001864,112.44342680001864,112.44342680001864,112.44342680001864,112.44342680001864,22,0,,,112.44342680001864,112.64472229999956,0.0,112.64472229999956,1,0.0,0,0,1000,num_4,1.6678384999977425,,24,4,2026-03-04_15h28.57.382,2026A_exp2,2022.2.4,59.92735605698145,
1000,1,6.1,6.1,1,0,20,20,4,,,,,114.32862469996326,114.97932470001979,114.97932470001979,115.46333130000858,315,45,115.46333130000858,115.46333130000858,115.46333130000858,115.46333130000858,115.46333130000858,115.46333130000858,115.46333130000858,115.46333130000858,115.46333130000858,115.83007119997637,115.83007119997637,115.83007119997637,115.83007119997637,115.83007119997637,115.83007119997637,115.83007119997637,115.83007119997637,115.83007119997637,23,0,,,115.83007119997637,116.03228230000241,1000,116.03228230000241,1000,1000,1000,1000,1,num_2,0.9367770999670029,,24,4,2026-03-04_15h28.57.382,2026A_exp2,2022.2.4,59.92735605698145,
1000,1,0.0,0.0,0,0,21,21,5,,,,,116.99809130001813,117.65625559998443,117.65625559998443,118.14963270002045,315,315,118.14963270002045,118.14963270002045,118.14963270002045,118.14963270002045,118.14963270002045,118.14963270002045,118.14963270002045,118.14963270002045,118.14963270002045,118.49946750001982,118.49946750001982,118.49946750001982,118.49946750001982,118.49946750001982,118.49946750001982,118.49946750001982,118.49946750001982,118.49946750001982,22,0,,,118.49946750001982,118.70231239998247,1000,118.70231239998247,1000,1000,1000,1000,0,num_3,0.5704019999830052,,24,4,2026-03-04_15h28.57.382,2026A_exp2,2022.2.4,59.92735605698145,
0,0,4.9,0.0,1,0,22,22,67,,,,,119.30016549996799,119.95067190000555,119.95067190000555,120.45206719997805,315,45,120.45206719997805,120.45206719997805,120.45206719997805,120.45206719997805,120.45206719997805,120.45206719997805,120.45206719997805,120.45206719997805,120.45206719997805,120.81831940001575,120.81831940001575,120.81831940001575,120.81831940001575,120.81831940001575,120.81831940001575,120.81831940001575,120.81831940001575,120.81831940001575,23,0,,,120.81831940001575,121.01848919998156,4.9,121.01848919998156,1,4.9,1,1,1000,num_4,0.7174967000028118,,24,4,2026-03-04_15h28.57.382,2026A_exp2,2022.2.4,59.92735605698145,
1000,1,4.9,0.0,1,0,23,23,10,,,,,121.75261989998398,122.40338139998494,122.40338139998494,122.89546359999804,315,315,122.89546359999804,122.89546359999804,122.89546359999804,122.89546359999804,122.89546359999804,122.89546359999804,122.89546359999804,122.89546359999804,122.89546359999804,123.25419999996666,123.25419999996666,123.25419999996666,123.25419999996666,123.25419999996666,123.25419999996666,123.25419999996666,123.25419999996666,123.25419999996666,23,0,,,123.25419999996666,123.47553830000106,1000,123.47553830000106,1000,1000,1000,1000,0,num_3,1.053478499990888,,24,4,2026-03-04_15h28.57.382,2026A_exp2,2022.2.4,59.92735605698145,
1000,1,6.1,6.1,0,0,24,24,16,,,,,124.55560179997701,125.20621669996763,125.20621669996763,125.70720940001775,315,315,125.70720940001775,125.70720940001775,125.70720940001775,125.70720940001775,125.70720940001775,125.70720940001775,125.70720940001775,125.70720940001775,125.70720940001775,126.05697320000036,126.05697320000036,126.05697320000036,126.05697320000036,126.05697320000036,126.05697320000036,126.05697320000036,126.05697320000036,126.05697320000036,22,0,,,126.05697320000036,126.25904279999668,1000,126.273935300007,1000,1000,1000,1000,0,num_3,0.614242399984505,,24,4,2026-03-04_15h28.57.382,2026A_exp2,2022.2.4,59.92735605698145,
1000,1,0.0,4.9,0,0,25,25,61,,,,,126.90792590001365,127.55836550000822,127.55836550000822,128.04295380000258,315,45,128.04295380000258,128.04295380000258,128.04295380000258,128.04295380000258,128.04295380000258,128.04295380000258,128.04295380000258,128.04295380000258,128.04295380000258,128.4093947999645,128.4093947999645,128.4093947999645,128.4093947999645,128.4093947999645,128.4093947999645,128.4093947999645,128.4093947999645,128.4093947999645,23,0,,,128.4093947999645,128.6114755999879,1000,128.6114755999879,1000,1000,1000,1000,1,num_2,0.7732740999781527,,24,4,2026-03-04_15h28.57.382,2026A_exp2,2022.2.4,59.92735605698145,
1000,1,0.0,0.0,0,0,26,26,15,,,,,129.41024040000048,130.04422999999952,130.04422999999952,130.54542669997318,45,315,130.54542669997318,130.54542669997318,130.54542669997318,130.54542669997318,130.54542669997318,130.54542669997318,130.54542669997318,130.54542669997318,130.54542669997318,130.91184899996733,130.91184899996733,130.91184899996733,130.91184899996733,130.91184899996733,130.91184899996733,130.91184899996733,130.91184899996733,130.91184899996733,23,0,,,130.91184899996733,131.11211300001014,1000,131.11211300001014,1000,1000,1000,1000,0,num_3,0.7127922999789007,,24,4,2026-03-04_15h28.57.382,2026A_exp2,2022.2.4,59.92735605698145,
1,0,3.7,4.9,1,0,27,27,20,,,,,131.84603489999427,132.4967697999673,132.4967697999673,132.99777319998248,315,315,132.99777319998248,132.99777319998248,132.99777319998248,132.99777319998248,132.99777319998248,132.99777319998248,132.99777319998248,132.99777319998248,132.99777319998248,133.36416890000692,133.36416890000692,133.36416890000692,133.36416890000692,133.36416890000692,133.36416890000692,133.36416890000692,133.36416890000692,133.36416890000692,23,0,,,133.36416890000692,133.56442870001774,4.9,133.56442870001774,1,4.9,1,1,1000,num_4,0.7160442000022158,,24,4,2026-03-04_15h28.57.382,2026A_exp2,2022.2.4,59.92735605698145,
1,0,6.1,0.0,1,0,28,28,89,,,,,134.2984324999852,134.94922559999395,134.94922559999395,135.43350919999648,315,315,135.43350919999648,135.43350919999648,135.43350919999648,135.43350919999648,135.43350919999648,135.43350919999648,135.43350919999648,135.43350919999648,135.43350919999648,135.8000960999634,135.8000960999634,135.8000960999634,135.8000960999634,135.8000960999634,135.8000960999634,135.8000960999634,135.8000960999634,135.8000960999634,23,0,,,135.8000960999634,136.00042210001266,0.0,136.00042210001266,0,0.0,0,1,1000,num_1,1.0161422000383027,,24,4,2026-03-04_15h28.57.382,2026A_exp2,2022.2.4,59.92735605698145,
1,0,0.0,3.7,1,0,29,29,14,,,,,137.03449739998905,137.68513449997408,137.68513449997408,138.16967059997842,315,45,138.16967059997842,138.16967059997842,138.16967059997842,138.16967059997842,138.16967059997842,138.16967059997842,138.16967059997842,138.16967059997842,138.16967059997842,138.53617269999813,138.53617269999813,138.53617269999813,138.53617269999813,138.53617269999813,138.53617269999813,138.53617269999813,138.53617269999813,138.53617269999813,23,0,,,138.53617269999813,138.73633699998027,3.7,138.73633699998027,1,3.7,1,1,1000,num_4,0.7288463999866508,,24,4,2026-03-04_15h28.57.382,2026A_exp2,2022.2.4,59.92735605698145,
1,0,0.0,0.0,0,0,30,30,88,,,,,139.48699259996647,140.13763680000557,140.13763680000557,140.62189329997636,45,315,140.62189329997636,140.62189329997636,140.62189329997636,140.62189329997636,140.62189329997636,140.62189329997636,140.62189329997636,140.62189329997636,140.62189329997636,140.98861619998934,140.98861619998934,140.98861619998934,140.98861619998934,140.98861619998934,140.98861619998934,140.98861619998934,140.98861619998934,140.98861619998934,23,0,,,140.98861619998934,141.1888528999989,0.0,141.1888528999989,0,0.0,0,1,1000,num_1,1.2990996000007726,,24,4,2026-03-04_15h28.57.382,2026A_exp2,2022.2.4,59.92735605698145,
1,0,4.9,3.7,1,0,31,31,27,,,,,142.50661839998793,143.1572593000019,143.1572593000019,143.64190159999998,45,45,143.64190159999998,143.64190159999998,143.64190159999998,143.64190159999998,143.64190159999998,143.64190159999998,143.64190159999998,143.64190159999998,143.64190159999998,144.0082776999916,144.0082776999916,144.0082776999916,144.0082776999916,144.0082776999916,144.0082776999916,144.0082776999916,144.0082776999916,144.0082776999916,23,0,,,144.0082776999916,144.2083779000095,3.7,144.2083779000095,1,3.7,1,1,1000,num_4,1.26369320001686,,24,4,2026-03-04_15h28.57.382,2026A_exp2,2022.2.4,59.92735605698145,
1,0,0.0,0.0,1,0,32,32,69,,,,,145.49296100001084,146.1438088999712,146.1438088999712,146.62810009997338,315,45,146.62810009997338,146.62810009997338,146.62810009997338,146.62810009997338,146.62810009997338,146.62810009997338,146.62810009997338,146.62810009997338,146.62810009997338,146.99450279999292,146.99450279999292,146.99450279999292,146.99450279999292,146.99450279999292,146.99450279999292,146.99450279999292,146.99450279999292,146.99450279999292,23,0,,,146.99450279999292,147.19472679996397,0.0,147.19472679996397,1,0.0,0,0,1000,num_4,1.5819695999962278,,24,4,2026-03-04_15h28.57.382,2026A_exp2,2022.2.4,59.92735605698145,
1000,1,0.0,4.9,0,0,33,33,60,,,,,148.79633380001178,149.44706779997796,149.44706779997796,149.93154819996562,45,315,149.93154819996562,149.93154819996562,149.93154819996562,149.93154819996562,149.93154819996562,149.93154819996562,149.93154819996562,149.93154819996562,149.93154819996562,150.29792939999606,150.29792939999606,150.29792939999606,150.29792939999606,150.29792939999606,150.29792939999606,150.29792939999606,150.29792939999606,150.29792939999606,23,0,,,150.29792939999606,150.5001432999852,1000,150.5001432999852,1000,1000,1000,1000,1,num_2,1.3250212999992073,,24,4,2026-03-04_15h28.57.382,2026A_exp2,2022.2.4,59.92735605698145,
1,0,0.0,6.1,0,0,34,34,0,,,,,151.84937309997622,152.50015199999325,152.50015199999325,153.00119209999684,45,315,153.00119209999684,153.00119209999684,153.00119209999684,153.00119209999684,153.00119209999684,153.00119209999684,153.00119209999684,153.00119209999684,153.00119209999684,153.36753759998828,153.36753759998828,153.36753759998828,153.36753759998828,153.36753759998828,153.36753759998828,153.36753759998828,153.36753759998828,153.36753759998828,23,0,,,153.36753759998828,153.5678983000107,0.0,153.5678983000107,1,0.0,0,0,1000,num_4,1.9684495000401512,,24,4,2026-03-04_15h28.57.382,2026A_exp2,2022.2.4,59.92735605698145,
1,0,6.1,0.0,0,0,35,35,82,,,,,155.5529953999794,156.2038132000016,156.2038132000016,156.7049467000179,45,45,156.7049467000179,156.7049467000179,156.7049467000179,156.7049467000179,156.7049467000179,156.7049467000179,156.7049467000179,156.7049467000179,156.7049467000179,157.05469879996963,157.05469879996963,157.05469879996963,157.05469879996963,157.05469879996963,157.05469879996963,157.05469879996963,157.05469879996963,157.05469879996963,22,0,,,157.05469879996963,157.25491489999695,6.1,157.25491489999695,1,6.1,1,1,1000,num_4,0.634182499954477,,24,4,2026-03-04_15h28.57.382,2026A_exp2,2022.2.4,59.92735605698145,
0,0,6.1,0.0,0,0,36,36,74,,,,,157.90536679996876,158.556012200017,158.556012200017,159.0404617000022,45,45,159.0404617000022,159.0404617000022,159.0404617000022,159.0404617000022,159.0404617000022,159.0404617000022,159.0404617000022,159.0404617000022,159.0404617000022,159.40722210000968,159.40722210000968,159.40722210000968,159.40722210000968,159.40722210000968,159.40722210000968,159.40722210000968,159.40722210000968,159.40722210000968,23,0,,,159.40722210000968,159.60725399997318,0.0,159.60725399997318,0,0.0,0,1,1000,num_1,1.689241599990055,,24,4,2026-03-04_15h28.57.382,2026A_exp2,2022.2.4,59.92735605698145,
1000,1,4.9,0.0,0,0,37,37,54,,,,,161.32563039998058,161.97599760000594,161.97599760000594,162.4605131999706,45,45,162.4605131999706,162.4605131999706,162.4605131999706,162.4605131999706,162.4605131999706,162.4605131999706,162.4605131999706,162.4605131999706,162.4605131999706,162.8272732999758,162.8272732999758,162.8272732999758,162.8272732999758,162.8272732999758,162.8272732999758,162.8272732999758,162.8272732999758,162.8272732999758,23,0,,,162.8272732999758,163.0271962999832,1000,163.0271962999832,1000,1000,1000,1000,0,num_3,1.2931044999859296,,24,4,2026-03-04_15h28.57.382,2026A_exp2,2022.2.4,59.92735605698145,
1000,1,0.0,6.1,1,0,38,38,43,,,,,164.3461840999662,164.9796110999887,164.9796110999887,165.48038329998963,45,45,165.48038329998963,165.48038329998963,165.48038329998963,165.48038329998963,165.48038329998963,165.48038329998963,165.48038329998963,165.48038329998963,165.48038329998963,165.8467353999731,165.8467353999731,165.8467353999731,165.8467353999731,165.8467353999731,165.8467353999731,165.8467353999731,165.8467353999731,165.8467353999731,23,0,,,165.8467353999731,166.048974299978,1000,166.048974299978,1000,1000,1000,1000,1,num_2,0.7675997000187635,,24,4,2026-03-04_15h28.57.382,2026A_exp2,2022.2.4,59.92735605698145,
1,0,0.0,4.9,0,0,39,39,3,,,,,166.84775539999828,167.49823189998278,167.49823189998278,167.99945940001635,315,315,167.99945940001635,167.99945940001635,167.99945940001635,167.99945940001635,167.99945940001635,167.99945940001635,167.99945940001635,167.99945940001635,167.99945940001635,168.3658319999813,168.3658319999813,168.3658319999813,168.3658319999813,168.3658319999813,168.3658319999813,168.3658319999813,168.3658319999813,168.3658319999813,23,0,,,168.3658319999813,168.5662011000095,0.0,168.5662011000095,0,0.0,0,1,1000,num_1,1.618879800022114,,24,4,2026-03-04_15h28.57.382,2026A_exp2,2022.2.4,59.92735605698145,
1,0,3.7,0.0,0,0,40,40,87,,,,,170.20107959996676,170.8350291000097,170.8350291000097,171.33608789998107,315,315,171.33608789998107,171.33608789998107,171.33608789998107,171.33608789998107,171.33608789998107,171.33608789998107,171.33608789998107,171.33608789998107,171.33608789998107,171.70264600001974,171.70264600001974,171.70264600001974,171.70264600001974,171.70264600001974,171.70264600001974,171.70264600001974,171.70264600001974,171.70264600001974,0,1,[0.001240600016899407],[0.3670720999944024],171.70264600001974,171.9028003999847,3.7,171.9028003999847,0,3.7,1,0,1000,num_1,0.8259686999954283,,24,4,2026-03-04_15h28.57.382,2026A_exp2,2022.2.4,59.92735605698145,
1,0,0.0,0.0,1,0,41,41,49,,,,,172.75355219998164,173.40425189997768,173.40425189997768,173.8888677000068,315,315,173.8888677000068,173.8888677000068,173.8888677000068,173.8888677000068,173.8888677000068,173.8888677000068,173.8888677000068,173.8888677000068,173.8888677000068,174.25514329998987,174.25514329998987,174.25514329998987,174.25514329998987,174.25514329998987,174.25514329998987,174.25514329998987,174.25514329998987,174.25514329998987,23,0,,,174.25514329998987,174.4554054000182,0.0,174.4554054000182,0,0.0,0,1,1000,num_1,0.8254762999713421,,24,4,2026-03-04_15h28.57.382,2026A_exp2,2022.2.4,59.92735605698145,
0,0,3.7,0.0,0,0,42,42,62,,,,,175.30602010001894,175.94017999997595,175.94017999997595,176.44119340000907,315,315,176.44119340000907,176.44119340000907,176.44119340000907,176.44119340000907,176.44119340000907,176.44119340000907,176.44119340000907,176.44119340000907,176.44119340000907,176.8076868999633,176.8076868999633,176.8076868999633,176.8076868999633,176.8076868999633,176.8076868999633,176.8076868999633,176.8076868999633,176.8076868999633,23,0,,,176.8076868999633,177.0080195000046,0.0,177.0080195000046,0,0.0,0,1,1000,num_1,3.384805000037886,,24,4,2026-03-04_15h28.57.382,2026A_exp2,2022.2.4,59.92735605698145,
1000,1,3.7,0.0,1,0,43,43,19,,,,,180.41114089998882,181.0619690999738,181.0619690999738,181.54644960002042,45,315,181.54644960002042,181.54644960002042,181.54644960002042,181.54644960002042,181.54644960002042,181.54644960002042,181.54644960002042,181.54644960002042,181.54644960002042,181.91285179997794,181.91285179997794,181.91285179997794,181.91285179997794,181.91285179997794,181.91285179997794,181.91285179997794,181.91285179997794,181.91285179997794,23,0,,,181.91285179997794,182.115389899991,1000,182.115389899991,1000,1000,1000,1000,0,num_3,1.1174160999944434,,24,4,2026-03-04_15h28.57.382,2026A_exp2,2022.2.4,59.92735605698145,
1000,1,0.0,0.0,1,0,44,44,85,,,,,183.264291999978,183.91474460001336,183.91474460001336,184.41599419998238,45,315,184.41599419998238,184.41599419998238,184.41599419998238,184.41599419998238,184.41599419998238,184.41599419998238,184.41599419998238,184.41599419998238,184.41599419998238,184.78224500000942,184.78224500000942,184.78224500000942,184.78224500000942,184.78224500000942,184.78224500000942,184.78224500000942,184.78224500000942,184.78224500000942,23,0,,,184.78224500000942,184.98474899999565,1000,184.98474899999565,1000,1000,1000,1000,0,num_3,1.3607077000197023,,24,4,2026-03-04_15h28.57.382,2026A_exp2,2022.2.4,59.92735605698145,
1000,1,0.0,0.0,0,0,45,45,86,,,,,186.36722590000136,187.01802010001848,187.01802010001848,187.5190961000044,315,315,187.5190961000044,187.5190961000044,187.5190961000044,187.5190961000044,187.5190961000044,187.5190961000044,187.5190961000044,187.5190961000044,187.5190961000044,187.86866520001786,187.86866520001786,187.86866520001786,187.86866520001786,187.86866520001786,187.86866520001786,187.86866520001786,187.86866520001786,187.86866520001786,22,0,,,187.86866520001786,188.07130010001129,1000,188.07130010001129,1000,1000,1000,1000,0,num_3,1.2099700999679044,,24,4,2026-03-04_15h28.57.382,2026A_exp2,2022.2.4,59.92735605698145,
1000,1,6.1,0.0,1,0,46,46,25,,,,,189.3034974000184,189.9541471999837,189.9541471999837,190.4548783999635,315,315,190.4548783999635,190.4548783999635,190.4548783999635,190.4548783999635,190.4548783999635,190.4548783999635,190.4548783999635,190.4548783999635,190.4548783999635,190.80503659998067,190.80503659998067,190.80503659998067,190.80503659998067,190.80503659998067,190.80503659998067,190.80503659998067,190.80503659998067,190.80503659998067,22,0,,,190.80503659998067,191.00741010002093,1000,191.00741010002093,1000,1000,1000,1000,0,num_3,0.665015900041908,,24,4,2026-03-04_15h28.57.382,2026A_exp2,2022.2.4,59.92735605698145,
1000,1,3.7,6.1,1,0,47,47,58,,,,,191.68921240000054,192.33980670000892,192.33980670000892,192.8409955999814,315,45,192.8409955999814,192.8409955999814,192.8409955999814,192.8409955999814,192.8409955999814,192.8409955999814,192.8409955999814,192.8409955999814,192.8409955999814,193.1907812000136,193.1907812000136,193.1907812000136,193.1907812000136,193.1907812000136,193.1907812000136,193.1907812000136,193.1907812000136,193.1907812000136,22,0,,,193.1907812000136,193.39302819996374,1000,193.39302819996374,1000,1000,1000,1000,1,num_2,0.5758383999927901,,24,4,2026-03-04_15h28.57.382,2026A_exp2,2022.2.4,59.92735605698145,
1000,1,0.0,0.0,0,0,48,48,17,,,,,193.99171849997947,194.642172199965,194.642172199965,195.14337659999728,45,45,195.14337659999728,195.14337659999728,195.14337659999728,195.14337659999728,195.14337659999728,195.14337659999728,195.14337659999728,195.14337659999728,195.14337659999728,195.49320389999775,195.49320389999775,195.49320389999775,195.49320389999775,195.49320389999775,195.49320389999775,195.49320389999775,195.49320389999775,195.49320389999775,0,1,[0.0012122000334784389],[0.3501323999953456],195.49320389999775,195.69494650000706,1000,195.70999170001596,1000,1000,1000,1000,0,num_3,0.8504742999793962,,24,4,2026-03-04_15h28.57.382,2026A_exp2,2022.2.4,59.92735605698145,
0,0,4.9,3.7,0,0,49,49,28,,,,,196.57770309998887,197.22811879997607,197.22811879997607,197.72916779998923,45,45,197.72916779998923,197.72916779998923,197.72916779998923,197.72916779998923,197.72916779998923,197.72916779998923,197.72916779998923,197.72916779998923,197.72916779998923,198.07902090001153,198.07902090001153,198.07902090001153,198.07902090001153,198.07902090001153,198.07902090001153,198.07902090001153,198.07902090001153,198.07902090001153,0,1,[0.0012024000170640647],[0.3505350000341423],198.07902090001153,198.27919640002074,3.7,198.27919640002074,1,3.7,1,1,1000,num_4,0.7210967999999411,,24,4,2026-03-04_15h28.57.382,2026A_exp2,2022.2.4,59.92735605698145,
1000,1,3.7,3.7,0,0,50,50,72,,,,,199.03007619996788,199.66392469999846,199.66392469999846,200.16496839997126,315,45,200.16496839997126,200.16496839997126,200.16496839997126,200.16496839997126,200.16496839997126,200.16496839997126,200.16496839997126,200.16496839997126,200.16496839997126,200.53133520000847,200.53133520000847,200.53133520000847,200.53133520000847,200.53133520000847,200.53133520000847,200.53133520000847,200.53133520000847,200.53133520000847,0,1,[0.0012115000281482935],[0.3690420999773778],200.53133520000847,200.73185779998312,1000,200.73185779998312,1000,1000,1000,1000,1,num_2,0.9255206999951042,,24,4,2026-03-04_15h28.57.382,2026A_exp2,2022.2.4,59.92735605698145,
1,0,0.0,6.1,1,0,51,51,33,,,,,201.68259240000043,202.33328779996373,202.33328779996373,202.8341685999767,45,315,202.8341685999767,202.8341685999767,202.8341685999767,202.8341685999767,202.8341685999767,202.8341685999767,202.8341685999767,202.8341685999767,202.8341685999767,203.18405149999307,203.18405149999307,203.18405149999307,203.18405149999307,203.18405149999307,203.18405149999307,203.18405149999307,203.18405149999307,203.18405149999307,6,3,"[0.0012665999820455909, 0.11679100000765175, 0.18346859997836873]","[0.049985499994363636, 0.16675769997527823, 0.35030579997692257]",203.18405149999307,203.38437099999283,6.1,203.40102739998838,1,6.1,1,1,1000,num_4,0.7441602000035346,,24,4,2026-03-04_15h28.57.382,2026A_exp2,2022.2.4,59.92735605698145,
1,0,0.0,6.1,1,0,52,52,31,,,,,204.16833369998494,204.8190533000161,204.8190533000161,205.30350179999368,45,45,205.30350179999368,205.30350179999368,205.30350179999368,205.30350179999368,205.30350179999368,205.30350179999368,205.30350179999368,205.30350179999368,205.30350179999368,205.66983859997708,205.66983859997708,205.66983859997708,205.66983859997708,205.66983859997708,205.66983859997708,205.66983859997708,205.66983859997708,205.66983859997708,0,1,[0.0012205999810248613],[0.36731329996837303],205.66983859997708,205.87005309999222,6.1,205.87005309999222,1,6.1,1,1,1000,num_4,0.5787341999821365,,24,4,2026-03-04_15h28.57.382,2026A_exp2,2022.2.4,59.92735605698145,
1,0,0.0,4.9,1,0,53,53,37,,,,,206.4706695000059,207.1213816999807,207.1213816999807,207.60585469997022,45,45,207.60585469997022,207.60585469997022,207.60585469997022,207.60585469997022,207.60585469997022,207.60585469997022,207.60585469997022,207.60585469997022,207.60585469997022,207.97228430001996,207.97228430001996,207.97228430001996,207.97228430001996,207.97228430001996,207.97228430001996,207.97228430001996,207.97228430001996,207.97228430001996,21,2,"[0.017419699986930937, 0.0669130000169389]","[0.0335522000095807, 0.0835044999839738]",207.97228430001996,208.17240999999922,4.9,208.17240999999922,1,4.9,1,1,1000,num_4,0.5884061999968253,,24,4,2026-03-04_15h28.57.382,2026A_exp2,2022.2.4,59.92735605698145,
1,0,6.1,6.1,1,0,54,54,23,,,,,208.7896342999884,209.42368259996874,209.42368259996874,209.9246862999862,315,315,209.9246862999862,209.9246862999862,209.9246862999862,209.9246862999862,209.9246862999862,209.9246862999862,209.9246862999862,209.9246862999862,209.9246862999862,210.29123470000923,210.29123470000923,210.29123470000923,210.29123470000923,210.29123470000923,210.29123470000923,210.29123470000923,210.29123470000923,210.29123470000923,0,1,[0.0012874000240117311],[0.3671306999749504],210.29123470000923,210.49147589999484,6.1,210.49147589999484,1,6.1,1,1,1000,num_4,0.5806261000107042,,24,4,2026-03-04_15h28.57.382,2026A_exp2,2022.2.4,59.92735605698145,
1000,1,6.1,0.0,1,0,55,55,29,,,,,211.09193519997643,211.72600799996872,211.72600799996872,212.22706619999371,315,45,212.22706619999371,212.22706619999371,212.22706619999371,212.22706619999371,212.22706619999371,212.22706619999371,212.22706619999371,212.22706619999371,212.22706619999371,212.5936086999718,212.5936086999718,212.5936086999718,212.5936086999718,212.5936086999718,212.5936086999718,212.5936086999718,212.5936086999718,212.5936086999718,16,2,"[0.2335826000198722, 0.35038620000705123]","[0.31697789998725057, 0.3669936999795027]",212.5936086999718,212.7955334999715,1000,212.7955334999715,1000,1000,1000,1000,0,num_3,0.7333331000409089,,24,4,2026-03-04_15h28.57.382,2026A_exp2,2022.2.4,59.92735605698145,
1000,1,3.7,6.1,1,0,56,56,48,,,,,213.54460769996513,214.19518009998137,214.19518009998137,214.69624059996568,315,315,214.69624059996568,214.69624059996568,214.69624059996568,214.69624059996568,214.69624059996568,214.69624059996568,214.69624059996568,214.69624059996568,214.69624059996568,215.0460649000015,215.0460649000015,215.0460649000015,215.0460649000015,215.0460649000015,215.0460649000015,215.0460649000015,215.0460649000015,215.0460649000015,0,1,[0.0012105999630875885],[0.3502229999867268],215.0460649000015,215.24784419999924,1000,215.24784419999924,1000,1000,1000,1000,1,num_2,0.9361294999835081,,24,4,2026-03-04_15h28.57.382,2026A_exp2,2022.2.4,59.92735605698145,
1,0,0.0,6.1,1,0,57,57,36,,,,,216.21376810001675,216.86441799998283,216.86441799998283,217.36544069997035,45,45,217.36544069997035,217.36544069997035,217.36544069997035,217.36544069997035,217.36544069997035,217.36544069997035,217.36544069997035,217.36544069997035,217.36544069997035,217.71527109999442,217.71527109999442,217.71527109999442,217.71527109999442,217.71527109999442,217.71527109999442,217.71527109999442,217.71527109999442,217.71527109999442,0,1,[0.001192099996842444],[0.35069859999930486],217.71527109999442,217.9155533000012,6.1,217.9322382999817,1,6.1,1,1,1000,num_4,0.6523099999758415,,24,4,2026-03-04_15h28.57.382,2026A_exp2,2022.2.4,59.92735605698145,
1,0,4.9,0.0,1,0,58,58,65,,,,,218.6161049999646,219.2669304999872,219.2669304999872,219.75131829996826,315,315,219.75131829996826,219.75131829996826,219.75131829996826,219.75131829996826,219.75131829996826,219.75131829996826,219.75131829996826,219.75131829996826,219.75131829996826,220.11768019996816,220.11768019996816,220.11768019996816,220.11768019996816,220.11768019996816,220.11768019996816,220.11768019996816,220.11768019996816,220.11768019996816,23,0,,,220.11768019996816,220.31791609997163,0.0,220.31791609997163,0,0.0,0,1,1000,num_1,1.0432424999889918,,24,4,2026-03-04_15h28.57.382,2026A_exp2,2022.2.4,59.92735605698145,
1000,1,0.0,0.0,1,0,59,59,9,,,,,221.38545269996393,222.01956819999032,222.01956819999032,222.52077930001542,45,315,222.52077930001542,222.52077930001542,222.52077930001542,222.52077930001542,222.52077930001542,222.52077930001542,222.52077930001542,222.52077930001542,222.52077930001542,222.88705600000685,222.88705600000685,222.88705600000685,222.88705600000685,222.88705600000685,222.88705600000685,222.88705600000685,222.88705600000685,222.88705600000685,23,0,,,222.88705600000685,223.0873544999631,1000,223.0873544999631,1000,1000,1000,1000,0,num_3,0.7297141999588348,,24,4,2026-03-04_15h28.57.382,2026A_exp2,2022.2.4,59.92735605698145,
1000,1,4.9,3.7,0,0,60,60,40,,,,,223.83796089998214,224.4886850999901,224.4886850999901,224.98976550000953,315,45,224.98976550000953,224.98976550000953,224.98976550000953,224.98976550000953,224.98976550000953,224.98976550000953,224.98976550000953,224.98976550000953,224.98976550000953,225.35628050001105,225.35628050001105,225.35628050001105,225.35628050001105,225.35628050001105,225.35628050001105,225.35628050001105,225.35628050001105,225.35628050001105,0,1,[0.001255400013178587],[0.36715190001996234],225.35628050001105,225.55635440000333,1000,225.55635440000333,1000,1000,1000,1000,1,num_2,0.7643888000166044,,24,4,2026-03-04_15h28.57.382,2026A_exp2,2022.2.4,59.92735605698145,
1000,1,6.1,3.7,0,0,61,61,75,,,,,226.34052329999395,226.99122680001892,226.99122680001892,227.49229520000517,315,315,227.49229520000517,227.49229520000517,227.49229520000517,227.49229520000517,227.49229520000517,227.49229520000517,227.49229520000517,227.49229520000517,227.49229520000517,227.8586388999829,227.8586388999829,227.8586388999829,227.8586388999829,227.8586388999829,227.8586388999829,227.8586388999829,227.8586388999829,227.8586388999829,0,1,[0.0012485000188462436],[0.36700830003246665],227.8586388999829,228.0608654000098,1000,228.0608654000098,1000,1000,1000,1000,0,num_3,0.5637847000034526,,24,4,2026-03-04_15h28.57.382,2026A_exp2,2022.2.4,59.92735605698145,
1,0,6.1,3.7,1,0,62,62,51,,,,,228.64276740001515,229.29359660000773,229.29359660000773,229.7946954999934,315,45,229.7946954999934,229.7946954999934,229.7946954999934,229.7946954999934,229.7946954999934,229.7946954999934,229.7946954999934,229.7946954999934,229.7946954999934,230.144521899987,230.144521899987,230.144521899987,230.144521899987,230.144521899987,230.144521899987,230.144521899987,230.144521899987,230.144521899987,0,1,[0.0012165000080130994],[0.3505242000101134],230.144521899987,230.34453279996524,3.7,230.36127629998373,1,3.7,1,1,1000,num_4,0.7911697999807075,,24,4,2026-03-04_15h28.57.382,2026A_exp2,2022.2.4,59.92735605698145,
1000,1,6.1,6.1,1,0,63,63,8,,,,,231.17911359999562,231.81304789998103,231.81304789998103,232.31365199998254,315,45,232.31365199998254,232.31365199998254,232.31365199998254,232.31365199998254,232.31365199998254,232.31365199998254,232.31365199998254,232.31365199998254,232.31365199998254,232.68016940000234,232.68016940000234,232.68016940000234,232.68016940000234,232.68016940000234,232.68016940000234,232.68016940000234,232.68016940000234,232.68016940000234,0,1,[0.00161650002701208],[0.36683070001890883],232.68016940000234,232.8832670999691,1000,232.8832670999691,1000,1000,1000,1000,0,num_3,1.4613644000492059,,24,4,2026-03-04_15h28.57.382,2026A_exp2,2022.2.4,59.92735605698145,
1,0,6.1,0.0,0,0,64,64,21,,,,,234.36521560000256,235.01597810001113,235.01597810001113,235.51698859996395,315,315,235.51698859996395,235.51698859996395,235.51698859996395,235.51698859996395,235.51698859996395,235.51698859996395,235.51698859996395,235.51698859996395,235.51698859996395,235.8834627000033,235.8834627000033,235.8834627000033,235.8834627000033,235.8834627000033,235.8834627000033,235.8834627000033,235.8834627000033,235.8834627000033,23,0,,,235.8834627000033,236.08370040002046,6.1,236.08370040002046,1,6.1,1,1,1000,num_4,0.69339020003099,,24,4,2026-03-04_15h28.57.382,2026A_exp2,2022.2.4,59.92735605698145,
1,0,0.0,0.0,1,0,65,65,39,,,,,236.80092000000877,237.45178249996388,237.45178249996388,237.93605119996937,45,45,237.93605119996937,237.93605119996937,237.93605119996937,237.93605119996937,237.93605119996937,237.93605119996937,237.93605119996937,237.93605119996937,237.93605119996937,238.30248269997537,238.30248269997537,238.30248269997537,238.30248269997537,238.30248269997537,238.30248269997537,238.30248269997537,238.30248269997537,238.30248269997537,10,5,"[0.0012384000001475215, 0.11696920002577826, 0.18395350000355393, 0.3007075000205077, 0.3673428000183776]","[0.10014540003612638, 0.16714200004935265, 0.21724430000176653, 0.3171588000259362, 0.3673482000012882]",238.30248269997537,238.50281989999348,0.0,238.50281989999348,0,0.0,0,1,1000,num_1,1.0252976999618113,,24,4,2026-03-04_15h28.57.382,2026A_exp2,2022.2.4,59.92735605698145,
1,0,0.0,0.0,1,0,66,66,42,,,,,239.55376219999744,240.20442580000963,240.20442580000963,240.68895979999797,315,45,240.68895979999797,240.68895979999797,240.68895979999797,240.68895979999797,240.68895979999797,240.68895979999797,240.68895979999797,240.68895979999797,240.68895979999797,241.05534119997174,241.05534119997174,241.05534119997174,241.05534119997174,241.05534119997174,241.05534119997174,241.05534119997174,241.05534119997174,241.05534119997174,1,2,"[0.001436999998986721, 0.08355099998880178]","[0.06683770002564415, 0.36753849999513477]",241.05534119997174,241.25537259998964,0.0,241.25537259998964,0,0.0,0,1,1000,num_1,0.7206847000052221,,24,4,2026-03-04_15h28.57.382,2026A_exp2,2022.2.4,59.92735605698145,
1000,1,4.9,0.0,0,0,67,67,41,,,,,242.00629910000134,242.65693619998638,242.65693619998638,243.14123910001945,45,45,243.14123910001945,243.14123910001945,243.14123910001945,243.14123910001945,243.14123910001945,243.14123910001945,243.14123910001945,243.14123910001945,243.14123910001945,243.5078293000115,243.5078293000115,243.5078293000115,243.5078293000115,243.5078293000115,243.5078293000115,243.5078293000115,243.5078293000115,243.5078293000115,21,2,"[0.033544300007633865, 0.1170261999941431]","[0.050343899987638, 0.13379669998539612]",243.5078293000115,243.71011049998924,1000,243.71011049998924,1000,1000,1000,1000,0,num_3,0.6661785999895073,,24,4,2026-03-04_15h28.57.382,2026A_exp2,2022.2.4,59.92735605698145,
1000,1,0.0,3.7,1,0,68,68,84,,,,,244.39202739996836,245.0425539999851,245.0425539999851,245.5437834999757,45,315,245.5437834999757,245.5437834999757,245.5437834999757,245.5437834999757,245.5437834999757,245.5437834999757,245.5437834999757,245.5437834999757,245.5437834999757,245.9102017999976,245.9102017999976,245.9102017999976,245.9102017999976,245.9102017999976,245.9102017999976,245.9102017999976,245.9102017999976,245.9102017999976,16,2,"[0.0012913000537082553, 0.10030099999858066]","[0.0833455000538379, 0.11687830003211275]",245.9102017999976,246.11205060000066,1000,246.11205060000066,1000,1000,1000,1000,0,num_3,1.3760769999935292,,24,4,2026-03-04_15h28.57.382,2026A_exp2,2022.2.4,59.92735605698145,
1000,1,3.7,3.7,0,0,69,69,63,,,,,247.51179540000157,248.16243660001783,248.16243660001783,248.66366750001907,45,315,248.66366750001907,248.66366750001907,248.66366750001907,248.66366750001907,248.66366750001907,248.66366750001907,248.66366750001907,248.66366750001907,248.66366750001907,249.02999589999672,249.02999589999672,249.02999589999672,249.02999589999672,249.02999589999672,249.02999589999672,249.02999589999672,249.02999589999672,249.02999589999672,16,2,"[0.0013135000481270254, 0.06691970000974834]","[0.05020900000818074, 0.13348000001860783]",249.02999589999672,249.23182459996315,1000,249.23182459996315,1000,1000,1000,1000,0,num_3,0.5925830000196584,,24,4,2026-03-04_15h28.57.382,2026A_exp2,2022.2.4,59.92735605698145,
1000,1,4.9,0.0,1,0,70,70,77,,,,,249.84732359996997,250.49806279997574,250.49806279997574,250.99921149999136,45,315,250.99921149999136,250.99921149999136,250.99921149999136,250.99921149999136,250.99921149999136,250.99921149999136,250.99921149999136,250.99921149999136,250.99921149999136,251.3488663000171,251.3488663000171,251.3488663000171,251.3488663000171,251.3488663000171,251.3488663000171,251.3488663000171,251.3488663000171,251.3488663000171,22,0,,,251.3488663000171,251.55086239997763,1000,251.55086239997763,1000,1000,1000,1000,0,num_3,1.0812234000186436,,24,4,2026-03-04_15h28.57.382,2026A_exp2,2022.2.4,59.92735605698145,
1,0,6.1,4.9,1,0,71,71,11,,,,,252.65013119997457,253.30093560001114,253.30093560001114,253.8020503000007,45,315,253.8020503000007,253.8020503000007,253.8020503000007,253.8020503000007,253.8020503000007,253.8020503000007,253.8020503000007,253.8020503000007,253.8020503000007,254.16842399997404,254.16842399997404,254.16842399997404,254.16842399997404,254.16842399997404,254.16842399997404,254.16842399997404,254.16842399997404,254.16842399997404,20,3,"[0.15044479997595772, 0.2172652999870479, 0.3173310999991372]","[0.1672506000031717, 0.2338478000019677, 0.33398950000992045]",254.16842399997404,254.36863370001083,4.9,254.36863370001083,1,4.9,1,1,1000,num_4,0.7201115000061691,,24,4,2026-03-04_15h28.57.382,2026A_exp2,2022.2.4,59.92735605698145,
1000,1,0.0,3.7,0,0,72,72,46,,,,,255.11927500000456,255.7700526000117,255.7700526000117,256.2544182999991,45,315,256.2544182999991,256.2544182999991,256.2544182999991,256.2544182999991,256.2544182999991,256.2544182999991,256.2544182999991,256.2544182999991,256.2544182999991,256.6209614999825,256.6209614999825,256.6209614999825,256.6209614999825,256.6209614999825,256.6209614999825,256.6209614999825,256.6209614999825,256.6209614999825,9,6,"[0.0012501999735832214, 0.10038919997168705, 0.16708029998699203, 0.21713899995665997, 0.2839559999993071, 0.3669727999949828]","[0.08367949997773394, 0.1337420999770984, 0.18377189995953813, 0.23388619994511828, 0.3508665999979712, 0.3669755999580957]",256.6209614999825,256.84460010001203,1000,256.84460010001203,1000,1000,1000,1000,0,num_3,1.0441463000024669,,24,4,2026-03-04_15h28.57.382,2026A_exp2,2022.2.4,59.92735605698145,
0,0,0.0,3.7,0,0,73,73,34,,,,,257.9054442999768,258.5561076999875,258.5561076999875,259.0573373999796,45,45,259.0573373999796,259.0573373999796,259.0573373999796,259.0573373999796,259.0573373999796,259.0573373999796,259.0573373999796,259.0573373999796,259.0573373999796,259.42367639997974,259.42367639997974,259.42367639997974,259.42367639997974,259.42367639997974,259.42367639997974,259.42367639997974,259.42367639997974,259.42367639997974,23,0,,,259.42367639997974,259.62392849999014,3.7,259.62392849999014,1,3.7,1,1,1000,num_4,0.8246604999876581,,24,4,2026-03-04_15h28.57.382,2026A_exp2,2022.2.4,59.92735605698145,
1000,1,0.0,4.9,1,0,74,74,66,,,,,260.4746325999731,261.125387499982,261.125387499982,261.6098558999947,315,315,261.6098558999947,261.6098558999947,261.6098558999947,261.6098558999947,261.6098558999947,261.6098558999947,261.6098558999947,261.6098558999947,261.6098558999947,261.9760652999976,261.9760652999976,261.9760652999976,261.9760652999976,261.9760652999976,261.9760652999976,261.9760652999976,261.9760652999976,261.9760652999976,23,0,,,261.9760652999976,262.17812210001284,1000,262.17812210001284,1000,1000,1000,1000,1,num_2,0.8062159999972209,,24,4,2026-03-04_15h28.57.382,2026A_exp2,2022.2.4,59.92735605698145,
1,0,4.9,0.0,0,0,75,75,53,,,,,263.0105715999962,263.6613453999744,263.6613453999744,264.16237989999354,315,45,264.16237989999354,264.16237989999354,264.16237989999354,264.16237989999354,264.16237989999354,264.16237989999354,264.16237989999354,264.16237989999354,264.16237989999354,264.5288230999722,264.5288230999722,264.5288230999722,264.5288230999722,264.5288230999722,264.5288230999722,264.5288230999722,264.5288230999722,264.5288230999722,23,0,,,264.5288230999722,264.72882829996524,4.9,264.72882829996524,1,4.9,1,1,1000,num_4,0.7593378000310622,,24,4,2026-03-04_15h28.57.382,2026A_exp2,2022.2.4,59.92735605698145,
1000,1,4.9,4.9,1,0,76,76,68,,,,,265.51308840001,266.1636859999853,266.1636859999853,266.6481791000115,315,315,266.6481791000115,266.6481791000115,266.6481791000115,266.6481791000115,266.6481791000115,266.6481791000115,266.6481791000115,266.6481791000115,266.6481791000115,267.0146323000081,267.0146323000081,267.0146323000081,267.0146323000081,267.0146323000081,267.0146323000081,267.0146323000081,267.0146323000081,267.0146323000081,23,0,,,267.0146323000081,267.21676179999486,1000,267.21676179999486,1000,1000,1000,1000,1,num_2,0.9041110000107437,,24,4,2026-03-04_15h28.57.382,2026A_exp2,2022.2.4,59.92735605698145,
1,0,3.7,0.0,1,0,77,77,12,,,,,268.14900159998797,268.799574500008,268.799574500008,269.30088850000175,315,315,269.30088850000175,269.30088850000175,269.30088850000175,269.30088850000175,269.30088850000175,269.30088850000175,269.30088850000175,269.30088850000175,269.30088850000175,269.667292499973,269.667292499973,269.667292499973,269.667292499973,269.667292499973,269.667292499973,269.667292499973,269.667292499973,269.667292499973,23,0,,,269.667292499973,269.8673305999837,0.0,269.8673305999837,0,0.0,0,1,1000,num_1,1.1575312999775633,,24,4,2026-03-04_15h28.57.382,2026A_exp2,2022.2.4,59.92735605698145,
1000,1,3.7,0.0,1,0,78,78,38,,,,,271.0522390999831,271.7026513000019,271.7026513000019,272.1869745000149,45,45,272.1869745000149,272.1869745000149,272.1869745000149,272.1869745000149,272.1869745000149,272.1869745000149,272.1869745000149,272.1869745000149,272.1869745000149,272.5535223999759,272.5535223999759,272.5535223999759,272.5535223999759,272.5535223999759,272.5535223999759,272.5535223999759,272.5535223999759,272.5535223999759,6,4,"[0.05033569998340681, 0.08374949998687953, 0.20064980001188815, 0.3338703999761492]","[0.06688100000610575, 0.183509900001809, 0.3171860000002198, 0.36729989998275414]",272.5535223999759,272.7553750000079,1000,272.7553750000079,1000,1000,1000,1000,0,num_3,0.7009411999606527,,24,4,2026-03-04_15h28.57.382,2026A_exp2,2022.2.4,59.92735605698145,
1,0,6.1,4.9,1,0,79,79,64,,,,,273.4878306000028,274.1384251000127,274.1384251000127,274.63939309999114,45,45,274.63939309999114,274.63939309999114,274.63939309999114,274.63939309999114,274.63939309999114,274.63939309999114,274.63939309999114,274.63939309999114,274.63939309999114,274.98928400001023,274.98928400001023,274.98928400001023,274.98928400001023,274.98928400001023,274.98928400001023,274.98928400001023,274.98928400001023,274.98928400001023,17,2,"[0.0012163999490439892, 0.10021009994670749]","[0.06685369997285306, 0.116907799965702]",274.98928400001023,275.1894220999675,4.9,275.20601919997716,1,4.9,1,1,1000,num_4,0.6432210000348277,,24,4,2026-03-04_15h28.57.382,2026A_exp2,2022.2.4,59.92735605698145,
0,0,0.0,0.0,1,0,80,80,2,,,,,275.87339939997764,276.5241771999863,276.5241771999863,277.00838909996673,45,45,277.00838909996673,277.00838909996673,277.00838909996673,277.00838909996673,277.00838909996673,277.00838909996673,277.00838909996673,277.00838909996673,277.00838909996673,277.3750563999638,277.3750563999638,277.3750563999638,277.3750563999638,277.3750563999638,277.3750563999638,277.3750563999638,277.3750563999638,277.3750563999638,23,0,,,277.3750563999638,277.5751295000082,0.0,277.5751295000082,0,0.0,0,1,1000,num_1,0.8899534000083804,,24,4,2026-03-04_15h28.57.382,2026A_exp2,2022.2.4,59.92735605698145,
1000,1,0.0,4.9,0,0,81,81,26,,,,,278.49263990001054,279.1432683999883,279.1432683999883,279.62773589999415,315,45,279.62773589999415,279.62773589999415,279.62773589999415,279.62773589999415,279.62773589999415,279.62773589999415,279.62773589999415,279.62773589999415,279.62773589999415,279.9942500999896,279.9942500999896,279.9942500999896,279.9942500999896,279.9942500999896,279.9942500999896,279.9942500999896,279.9942500999896,279.9942500999896,0,1,[0.001220500038471073],[0.36719330004416406],279.9942500999896,280.1944773999858,1000,280.1944773999858,1000,1000,1000,1000,1,num_2,1.1024226000299677,,24,4,2026-03-04_15h28.57.382,2026A_exp2,2022.2.4,59.92735605698145,
1000,1,0.0,4.9,0,0,82,82,6,,,,,281.31250399997225,281.9629433999653,281.9629433999653,282.46403089998057,315,45,282.46403089998057,282.46403089998057,282.46403089998057,282.46403089998057,282.46403089998057,282.46403089998057,282.46403089998057,282.46403089998057,282.46403089998057,282.8303675999632,282.8303675999632,282.8303675999632,282.8303675999632,282.8303675999632,282.8303675999632,282.8303675999632,282.8303675999632,282.8303675999632,10,1,[0.16699190001236275],[0.36713799997232854],282.8303675999632,283.0322269999888,1000,283.0322269999888,1000,1000,1000,1000,1,num_2,0.7930814999854192,,24,4,2026-03-04_15h28.57.382,2026A_exp2,2022.2.4,59.92735605698145,
1,0,3.7,4.9,1,0,83,83,18,,,,,283.84806930000195,284.49873910000315,284.49873910000315,284.9999410000164,45,315,284.9999410000164,284.9999410000164,284.9999410000164,284.9999410000164,284.9999410000164,284.9999410000164,284.9999410000164,284.9999410000164,284.9999410000164,285.3495454000076,285.3495454000076,285.3495454000076,285.3495454000076,285.3495454000076,285.3495454000076,285.3495454000076,285.3495454000076,285.3495454000076,11,2,"[0.0012212000438012183, 0.2168999999994412]","[0.15025270002661273, 0.25024590000975877]",285.3495454000076,285.5497685999726,4.9,285.5666124999989,1,4.9,1,1,1000,num_4,1.6179669999983162,,24,4,2026-03-04_15h28.57.382,2026A_exp2,2022.2.4,59.92735605698145,
1,0,0.0,3.7,1,0,84,84,32,,,,,287.20132260001265,287.85214629996335,287.85214629996335,288.353270099964,45,45,288.353270099964,288.353270099964,288.353270099964,288.353270099964,288.353270099964,288.353270099964,288.353270099964,288.353270099964,288.353270099964,288.70297009998467,288.70297009998467,288.70297009998467,288.70297009998467,288.70297009998467,288.70297009998467,288.70297009998467,288.70297009998467,288.70297009998467,22,0,,,288.70297009998467,288.9031746999826,3.7,288.91982189996634,0,3.7,1,0,1000,num_1,0.9684360999963246,,24,4,2026-03-04_15h28.57.382,2026A_exp2,2022.2.4,59.92735605698145,
1000,1,0.0,0.0,1,0,85,85,78,,,,,289.92073229997186,290.55481729999883,290.55481729999883,291.05587280000327,45,315,291.05587280000327,291.05587280000327,291.05587280000327,291.05587280000327,291.05587280000327,291.05587280000327,291.05587280000327,291.05587280000327,291.05587280000327,291.4224004999851,291.4224004999851,291.4224004999851,291.4224004999851,291.4224004999851,291.4224004999851,291.4224004999851,291.4224004999851,291.4224004999851,23,0,,,291.4224004999851,291.62438569997903,1000,291.62438569997903,1000,1000,1000,1000,0,num_3,1.3516473000054248,,24,4,2026-03-04_15h28.57.382,2026A_exp2,2022.2.4,59.92735605698145,
1000,1,6.1,0.0,1,0,86,86,57,,,,,293.0073677999899,293.657928599976,293.657928599976,294.15906069998164,45,45,294.15906069998164,294.15906069998164,294.15906069998164,294.15906069998164,294.15906069998164,294.15906069998164,294.15906069998164,294.15906069998164,294.15906069998164,294.5254330000025,294.5254330000025,294.5254330000025,294.5254330000025,294.5254330000025,294.5254330000025,294.5254330000025,294.5254330000025,294.5254330000025,23,0,,,294.5254330000025,294.72728629998164,1000,294.72728629998164,1000,1000,1000,1000,0,num_3,0.47343710000859573,,24,4,2026-03-04_15h28.57.382,2026A_exp2,2022.2.4,59.92735605698145,
1,0,6.1,0.0,0,0,87,87,47,,,,,295.2263251999975,295.87687099998584,295.87687099998584,296.3613469999982,315,45,296.3613469999982,296.3613469999982,296.3613469999982,296.3613469999982,296.3613469999982,296.3613469999982,296.3613469999982,296.3613469999982,296.3613469999982,296.7276197000174,296.7276197000174,296.7276197000174,296.7276197000174,296.7276197000174,296.7276197000174,296.7276197000174,296.7276197000174,296.7276197000174,23,0,,,296.7276197000174,296.9279010000173,6.1,296.9279010000173,1,6.1,1,1,1000,num_4,0.616048600000795,,24,4,2026-03-04_15h28.57.382,2026A_exp2,2022.2.4,59.92735605698145,
1,0,0.0,3.7,1,0,88,88,35,,,,,297.5618412999902,298.2124642999843,298.2124642999843,298.6969602999743,45,45,298.6969602999743,298.6969602999743,298.6969602999743,298.6969602999743,298.6969602999743,298.6969602999743,298.6969602999743,298.6969602999743,298.6969602999743,299.0631525000208,299.0631525000208,299.0631525000208,299.0631525000208,299.0631525000208,299.0631525000208,299.0631525000208,299.0631525000208,299.0631525000208,23,0,,,299.0631525000208,299.2635716999648,3.7,299.2635716999648,1,3.7,1,1,1000,num_4,0.6969850999885239,,24,4,2026-03-04_15h28.57.382,2026A_exp2,2022.2.4,59.92735605698145,
1,0,0.0,6.1,1,0,89,89,50,,,,,299.98078529996565,300.6315833000117,300.6315833000117,301.1159305999754,45,315,301.1159305999754,301.1159305999754,301.1159305999754,301.1159305999754,301.1159305999754,301.1159305999754,301.1159305999754,301.1159305999754,301.1159305999754,301.4824201000156,301.4824201000156,301.4824201000156,301.4824201000156,301.4824201000156,301.4824201000156,301.4824201000156,301.4824201000156,301.4824201000156,3,3,"[0.0012000000569969416, 0.06700370000908151, 0.11709420004626736]","[0.03373150003608316, 0.10043920000316575, 0.367373300017789]",301.4824201000156,301.6826583999791,6.1,301.6826583999791,1,6.1,1,1,1000,num_4,0.5654570999904536,,24,4,2026-03-04_15h28.57.382,2026A_exp2,2022.2.4,59.92735605698145,
,,,,,,,,,,,,,,,,,,,,,,,,,,,,,,,,,,,,,,,,,,,,,,,,,,,,302.2717590999673,,,,,,,
