validity,detectorcomp,contrastCW,contrastCCW,precueCWorCCW,block_80trials.thisRepN,block_80trials.thisTrialN,block_80trials.thisN,block_80trials.thisIndex,etRecord.started,etRecord.stopped,text.started,text.stopped,text_4.started,text_4.stopped,text_6.started,text_6.stopped,oriCW,oriCCW,roi_2.started,grating_UR.started,grating_UL.started,grating_LR.started,grating_LL.started,noise_UR.started,noise_UL.started,noise_LR.started,noise_LL.started,roi_2.stopped,grating_UR.stopped,grating_UL.stopped,grating_LR.stopped,grating_LL.stopped,noise_UR.stopped,noise_UL.stopped,noise_LR.stopped,noise_LL.stopped,outframe,roi_2.numLooks,roi_2.timesOn,roi_2.timesOff,text_2.started,text_2.stopped,probedcontrast,key_resp.started,respdetect,relevantContrast,correctDetect,TorFdetect,respCWorCCW,key_resp.keys,key_resp.rt,feedback_display_.started,participantNo,blockNo,date,expName,psychopyVersion,frameRate,
1000,1,6.1,6.1,0,0,0,0,74,5.389982834458351e-05,5.389982834458351e-05,48.04934750008397,50.05291089997627,50.05291089997627,50.685697300126776,50.685697300126776,51.20700990012847,315,45,51.20700990012847,51.20700990012847,51.20700990012847,51.20700990012847,51.20700990012847,51.20700990012847,51.20700990012847,51.20700990012847,51.20700990012847,51.55318440007977,51.55318440007977,51.55318440007977,51.55318440007977,51.55318440007977,51.55318440007977,51.55318440007977,51.55318440007977,51.55318440007977,0,1,[0.0009171999990940094],[0.36726829991675913],51.55318440007977,51.76097990013659,1000,51.76097990013659,1000,1000,1000,1000,0,num_3,0.5097845999989659,,31,16,2026-03-12_14h41.39.496,2026A_exp2,2022.2.4,59.94211989490536,
1000,1,3.7,3.7,0,0,1,1,16,,,,,52.287509500049055,52.937950500054285,52.937950500054285,53.42238130001351,315,45,53.42238130001351,53.42238130001351,53.42238130001351,53.42238130001351,53.42238130001351,53.42238130001351,53.42238130001351,53.42238130001351,53.42238130001351,53.78888060012832,53.78888060012832,53.78888060012832,53.78888060012832,53.78888060012832,53.78888060012832,53.78888060012832,53.78888060012832,53.78888060012832,0,1,[0.0012234000023454428],[0.3670738998334855],53.78888060012832,53.990641199983656,1000,53.990641199983656,1000,1000,1000,1000,0,num_3,0.41553979995660484,,31,16,2026-03-12_14h41.39.496,2026A_exp2,2022.2.4,59.94211989490536,
1000,1,0.0,0.0,0,0,2,2,41,,,,,54.42276410013437,55.07710970006883,55.07710970006883,55.59024820011109,45,45,55.59024820011109,55.59024820011109,55.59024820011109,55.59024820011109,55.59024820011109,55.59024820011109,55.59024820011109,55.59024820011109,55.59024820011109,55.94111190014519,55.94111190014519,55.94111190014519,55.94111190014519,55.94111190014519,55.94111190014519,55.94111190014519,55.94111190014519,55.94111190014519,0,1,[0.004171699983999133],[0.3648747999686748],55.94111190014519,56.14299349999055,1000,56.14299349999055,1000,1000,1000,1000,0,num_3,0.41585469990968704,,31,16,2026-03-12_14h41.39.496,2026A_exp2,2022.2.4,59.94211989490536,
1,0,6.1,0.0,1,0,3,3,54,,,,,56.57502230000682,57.22557800007053,57.22557800007053,57.72665460011922,45,315,57.72665460011922,57.72665460011922,57.72665460011922,57.72665460011922,57.72665460011922,57.72665460011922,57.72665460011922,57.72665460011922,57.72665460011922,58.09302220004611,58.09302220004611,58.09302220004611,58.09302220004611,58.09302220004611,58.09302220004611,58.09302220004611,58.09302220004611,58.09302220004611,0,1,[0.0012330000754445791],[0.36667570006102324],58.09302220004611,58.2932671001181,0.0,58.2932671001181,0,0.0,0,1,1000,num_1,0.9216289999894798,,31,16,2026-03-12_14h41.39.496,2026A_exp2,2022.2.4,59.94211989490536,
1000,1,4.9,0.0,1,0,4,4,28,,,,,59.244324600091204,59.894798800116405,59.894798800116405,60.39582600002177,315,315,60.39582600002177,60.39582600002177,60.39582600002177,60.39582600002177,60.39582600002177,60.39582600002177,60.39582600002177,60.39582600002177,60.39582600002177,60.76255280012265,60.76255280012265,60.76255280012265,60.76255280012265,60.76255280012265,60.76255280012265,60.76255280012265,60.76255280012265,60.76255280012265,0,1,[0.0007951001171022654],[0.36715280008502305],60.76255280012265,60.962476999964565,1000,60.962476999964565,1000,1000,1000,1000,0,num_3,0.3971905999351293,,31,16,2026-03-12_14h41.39.496,2026A_exp2,2022.2.4,59.94211989490536,
1000,1,6.1,0.0,1,0,5,5,79,,,,,61.3820291000884,62.03897550003603,62.03897550003603,62.53141890000552,315,45,62.53141890000552,62.53141890000552,62.53141890000552,62.53141890000552,62.53141890000552,62.53141890000552,62.53141890000552,62.53141890000552,62.53141890000552,62.89786530006677,62.89786530006677,62.89786530006677,62.89786530006677,62.89786530006677,62.89786530006677,62.89786530006677,62.89786530006677,62.89786530006677,0,1,[0.0013512999285012484],[0.36707179993391037],62.89786530006677,63.09997450001538,1000,63.09997450001538,1000,1000,1000,1000,0,num_3,0.3543945997953415,,31,16,2026-03-12_14h41.39.496,2026A_exp2,2022.2.4,59.94211989490536,
1,0,4.9,0.0,1,0,6,6,15,,,,,63.48202980007045,64.13248710008338,64.13248710008338,64.64369520009495,315,45,64.64369520009495,64.64369520009495,64.64369520009495,64.64369520009495,64.64369520009495,64.64369520009495,64.64369520009495,64.64369520009495,64.64369520009495,65.00000969995745,65.00000969995745,65.00000969995745,65.00000969995745,65.00000969995745,65.00000969995745,65.00000969995745,65.00000969995745,65.00000969995745,0,1,[0.0033821999095380306],[0.36493189982138574],65.00000969995745,65.20022570015863,0.0,65.20022570015863,0,0.0,0,1,1000,num_1,0.6391758001409471,,31,16,2026-03-12_14h41.39.496,2026A_exp2,2022.2.4,59.94211989490536,
1000,1,4.9,6.1,1,0,7,7,18,,,,,65.86743400013074,66.51802109996788,66.51802109996788,67.00258710002527,315,315,67.00258710002527,67.00258710002527,67.00258710002527,67.00258710002527,67.00258710002527,67.00258710002527,67.00258710002527,67.00258710002527,67.00258710002527,67.36911490000784,67.36911490000784,67.36911490000784,67.36911490000784,67.36911490000784,67.36911490000784,67.36911490000784,67.36911490000784,67.36911490000784,0,1,[0.0012558000162243843],[0.3670467999763787],67.36911490000784,67.57145030004904,1000,67.57145030004904,1000,1000,1000,1000,1,num_2,1.0352487999480218,,31,16,2026-03-12_14h41.39.496,2026A_exp2,2022.2.4,59.94211989490536,
1000,1,4.9,4.9,1,0,8,8,60,,,,,68.63725490006618,69.2711931001395,69.2711931001395,69.77213810011744,315,315,69.77213810011744,69.77213810011744,69.77213810011744,69.77213810011744,69.77213810011744,69.77213810011744,69.77213810011744,69.77213810011744,69.77213810011744,70.13853560015559,70.13853560015559,70.13853560015559,70.13853560015559,70.13853560015559,70.13853560015559,70.13853560015559,70.13853560015559,70.13853560015559,0,1,[0.0012596999295055866],[0.3670411000493914],70.13853560015559,70.34037839993834,1000,70.34037839993834,1000,1000,1000,1000,1,num_2,0.4098732001148164,,31,16,2026-03-12_14h41.39.496,2026A_exp2,2022.2.4,59.94211989490536,
1000,1,0.0,4.9,0,0,9,9,27,,,,,70.77233730000444,71.42322370014153,71.42322370014153,71.9241567000281,45,45,71.9241567000281,71.9241567000281,71.9241567000281,71.9241567000281,71.9241567000281,71.9241567000281,71.9241567000281,71.9241567000281,71.9241567000281,72.29090410005301,72.29090410005301,72.29090410005301,72.29090410005301,72.29090410005301,72.29090410005301,72.29090410005301,72.29090410005301,72.29090410005301,0,1,[0.0012415999080985785],[0.36703439988195896],72.29090410005301,72.4932355999481,1000,72.4932355999481,1000,1000,1000,1000,1,num_2,0.3376543999183923,,31,16,2026-03-12_14h41.39.496,2026A_exp2,2022.2.4,59.94211989490536,
1000,1,4.9,0.0,0,0,10,10,78,,,,,72.85790830012411,73.50840730010532,73.50840730010532,74.00957640004344,315,45,74.00957640004344,74.00957640004344,74.00957640004344,74.00957640004344,74.00957640004344,74.00957640004344,74.00957640004344,74.00957640004344,74.00957640004344,74.35945550003089,74.35945550003089,74.35945550003089,74.35945550003089,74.35945550003089,74.35945550003089,74.35945550003089,74.35945550003089,74.35945550003089,0,1,[0.0012250998988747597],[0.3505233998876065],74.35945550003089,74.56182760000229,1000,74.56182760000229,1000,1000,1000,1000,0,num_3,0.3890664998907596,,31,16,2026-03-12_14h41.39.496,2026A_exp2,2022.2.4,59.94211989490536,
1000,1,6.1,6.1,0,0,11,11,56,,,,,74.9765835001599,75.62736300006509,75.62736300006509,76.12829799996689,45,315,76.12829799996689,76.12829799996689,76.12829799996689,76.12829799996689,76.12829799996689,76.12829799996689,76.12829799996689,76.12829799996689,76.12829799996689,76.49496150016785,76.49496150016785,76.49496150016785,76.49496150016785,76.49496150016785,76.49496150016785,76.49496150016785,76.49496150016785,76.49496150016785,0,1,[0.0012113999109715223],[0.36699589993804693],76.49496150016785,76.69682630011812,1000,76.69682630011812,1000,1000,1000,1000,0,num_3,0.3819204999599606,,31,16,2026-03-12_14h41.39.496,2026A_exp2,2022.2.4,59.94211989490536,
1000,1,0.0,4.9,1,0,12,12,73,,,,,77.09547380008735,77.74618980009109,77.74618980009109,78.24720300012268,315,315,78.24720300012268,78.24720300012268,78.24720300012268,78.24720300012268,78.24720300012268,78.24720300012268,78.24720300012268,78.24720300012268,78.24720300012268,78.61368419998325,78.61368419998325,78.61368419998325,78.61368419998325,78.61368419998325,78.61368419998325,78.61368419998325,78.61368419998325,78.61368419998325,0,1,[0.0007102000527083874],[0.36752780014649034],78.61368419998325,78.81555710011162,1000,78.81555710011162,1000,1000,1000,1000,1,num_2,0.3272530999965966,,31,16,2026-03-12_14h41.39.496,2026A_exp2,2022.2.4,59.94211989490536,
1000,1,4.9,4.9,1,0,13,13,85,,,,,79.16432250011712,79.8149204000365,79.8149204000365,80.29946959996596,315,45,80.29946959996596,80.29946959996596,80.29946959996596,80.29946959996596,80.29946959996596,80.29946959996596,80.29946959996596,80.29946959996596,80.29946959996596,80.66580360010266,80.66580360010266,80.66580360010266,80.66580360010266,80.66580360010266,80.66580360010266,80.66580360010266,80.66580360010266,80.66580360010266,0,1,[0.001208599889650941],[0.36733239982277155],80.66580360010266,80.86819910001941,1000,80.86819910001941,1000,1000,1000,1000,0,num_3,0.7070682998746634,,31,16,2026-03-12_14h41.39.496,2026A_exp2,2022.2.4,59.94211989490536,
1,0,0.0,0.0,1,0,14,14,53,,,,,81.59990940010175,82.25061680004,82.25061680004,82.75180440000258,45,315,82.75180440000258,82.75180440000258,82.75180440000258,82.75180440000258,82.75180440000258,82.75180440000258,82.75180440000258,82.75180440000258,82.75180440000258,83.11818050011061,83.11818050011061,83.11818050011061,83.11818050011061,83.11818050011061,83.11818050011061,83.11818050011061,83.11818050011061,83.11818050011061,2,2,"[0.0012521999888122082, 0.33362170006148517]","[0.3004345998633653, 0.36709619988687336]",83.11818050011061,83.31832229997963,0.0,83.31832229997963,0,0.0,0,1,1000,num_1,0.6643960000947118,,31,16,2026-03-12_14h41.39.496,2026A_exp2,2022.2.4,59.94211989490536,
0,0,0.0,0.0,0,0,15,15,69,,,,,84.00252400012687,84.65302660013549,84.65302660013549,85.13745880010538,45,315,85.13745880010538,85.13745880010538,85.13745880010538,85.13745880010538,85.13745880010538,85.13745880010538,85.13745880010538,85.13745880010538,85.13745880010538,85.50392970000394,85.50392970000394,85.50392970000394,85.50392970000394,85.50392970000394,85.50392970000394,85.50392970000394,85.50392970000394,85.50392970000394,0,1,[0.0012384001165628433],[0.36702010012231767],85.50392970000394,85.7041051001288,0.0,85.7041051001288,0,0.0,0,1,1000,num_1,0.3500895998440683,,31,16,2026-03-12_14h41.39.496,2026A_exp2,2022.2.4,59.94211989490536,
1,0,3.7,6.1,1,0,16,16,6,,,,,86.07104320009239,86.7216452001594,86.7216452001594,87.22278090007603,45,45,87.22278090007603,87.22278090007603,87.22278090007603,87.22278090007603,87.22278090007603,87.22278090007603,87.22278090007603,87.22278090007603,87.22278090007603,87.57282240013592,87.57282240013592,87.57282240013592,87.57282240013592,87.57282240013592,87.57282240013592,87.57282240013592,87.57282240013592,87.57282240013592,0,1,[0.001563600031659007],[0.3547246002126485],87.57282240013592,87.77667640009895,6.1,87.77667640009895,1,6.1,1,1,1000,num_4,0.6704723001457751,,31,16,2026-03-12_14h41.39.496,2026A_exp2,2022.2.4,59.94211989490536,
0,0,3.7,6.1,1,0,17,17,17,,,,,88.47335190000013,89.1241725999862,89.1241725999862,89.60865080007352,45,315,89.60865080007352,89.60865080007352,89.60865080007352,89.60865080007352,89.60865080007352,89.60865080007352,89.60865080007352,89.60865080007352,89.60865080007352,89.9750195001252,89.9750195001252,89.9750195001252,89.9750195001252,89.9750195001252,89.9750195001252,89.9750195001252,89.9750195001252,89.9750195001252,2,2,"[0.017535199876874685, 0.11707529984414577]","[0.10017769993282855, 0.36713859997689724]",89.9750195001252,90.17506070015952,3.7,90.17506070015952,1,3.7,1,1,1000,num_4,1.0883790999650955,,31,16,2026-03-12_14h41.39.496,2026A_exp2,2022.2.4,59.94211989490536,
1,0,0.0,0.0,0,0,18,18,66,,,,,91.29286250006407,91.94367039995268,91.94367039995268,92.4448357000947,45,315,92.4448357000947,92.4448357000947,92.4448357000947,92.4448357000947,92.4448357000947,92.4448357000947,92.4448357000947,92.4448357000947,92.4448357000947,92.81124530010857,92.81124530010857,92.81124530010857,92.81124530010857,92.81124530010857,92.81124530010857,92.81124530010857,92.81124530010857,92.81124530010857,23,0,,,92.81124530010857,93.01135400007479,0.0,93.01135400007479,0,0.0,0,1,1000,num_1,0.45892799994908273,,31,16,2026-03-12_14h41.39.496,2026A_exp2,2022.2.4,59.94211989490536,
1000,1,3.7,0.0,1,0,19,19,21,,,,,93.49508340004832,94.14596879994497,94.14596879994497,94.63040100014769,315,315,94.63040100014769,94.63040100014769,94.63040100014769,94.63040100014769,94.63040100014769,94.63040100014769,94.63040100014769,94.63040100014769,94.63040100014769,94.99659970006905,94.99659970006905,94.99659970006905,94.99659970006905,94.99659970006905,94.99659970006905,94.99659970006905,94.99659970006905,94.99659970006905,0,1,[0.0008481000550091267],[0.36738869990222156],94.99659970006905,95.1987141999416,1000,95.1987141999416,1000,1000,1000,1000,0,num_3,0.5759663998614997,,31,16,2026-03-12_14h41.39.496,2026A_exp2,2022.2.4,59.94211989490536,
1000,1,0.0,0.0,1,0,20,20,42,,,,,95.79752190015279,96.44806750002317,96.44806750002317,96.94929839996621,45,45,96.94929839996621,96.94929839996621,96.94929839996621,96.94929839996621,96.94929839996621,96.94929839996621,96.94929839996621,96.94929839996621,96.94929839996621,97.31555099994875,97.31555099994875,97.31555099994875,97.31555099994875,97.31555099994875,97.31555099994875,97.31555099994875,97.31555099994875,97.31555099994875,4,1,[0.06683819997124374],[0.36682789982296526],97.31555099994875,97.51748459995724,1000,97.51748459995724,1000,1000,1000,1000,0,num_3,0.944819200085476,,31,16,2026-03-12_14h41.39.496,2026A_exp2,2022.2.4,59.94211989490536,
0,0,0.0,0.0,0,0,21,21,67,,,,,98.48356069996953,99.1342271999456,99.1342271999456,99.61864370014518,45,45,99.61864370014518,99.61864370014518,99.61864370014518,99.61864370014518,99.61864370014518,99.61864370014518,99.61864370014518,99.61864370014518,99.61864370014518,99.98492730013095,99.98492730013095,99.98492730013095,99.98492730013095,99.98492730013095,99.98492730013095,99.98492730013095,99.98492730013095,99.98492730013095,0,1,[0.0011159998830407858],[0.36738660000264645],99.98492730013095,100.18528710003011,0.0,100.18528710003011,0,0.0,0,1,1000,num_1,0.6221742001362145,,31,16,2026-03-12_14h41.39.496,2026A_exp2,2022.2.4,59.94211989490536,
1,0,0.0,0.0,0,0,22,22,0,,,,,100.83567860000767,101.48649769998156,101.48649769998156,101.98772520013154,315,45,101.98772520013154,101.98772520013154,101.98772520013154,101.98772520013154,101.98772520013154,101.98772520013154,101.98772520013154,101.98772520013154,101.98772520013154,102.33734069997445,102.33734069997445,102.33734069997445,102.33734069997445,102.33734069997445,102.33734069997445,102.33734069997445,102.33734069997445,102.33734069997445,22,0,,,102.33734069997445,102.53766210004687,0.0,102.53766210004687,0,0.0,0,1,1000,num_1,0.6207818000111729,,31,16,2026-03-12_14h41.39.496,2026A_exp2,2022.2.4,59.94211989490536,
1000,1,6.1,4.9,1,0,23,23,76,,,,,103.18809140007943,103.8389161999803,103.8389161999803,104.32333740009926,45,45,104.32333740009926,104.32333740009926,104.32333740009926,104.32333740009926,104.32333740009926,104.32333740009926,104.32333740009926,104.32333740009926,104.32333740009926,104.68958629993722,104.68958629993722,104.68958629993722,104.68958629993722,104.68958629993722,104.68958629993722,104.68958629993722,104.68958629993722,104.68958629993722,23,0,,,104.68958629993722,104.89205350005068,1000,104.89205350005068,1000,1000,1000,1000,0,num_3,0.45879609999246895,,31,16,2026-03-12_14h41.39.496,2026A_exp2,2022.2.4,59.94211989490536,
1000,1,6.1,4.9,0,0,24,24,77,,,,,105.3736376001034,106.0243894001469,106.0243894001469,106.52564200013876,315,45,106.52564200013876,106.52564200013876,106.52564200013876,106.52564200013876,106.52564200013876,106.52564200013876,106.52564200013876,106.52564200013876,106.52564200013876,106.89184820000082,106.89184820000082,106.89184820000082,106.89184820000082,106.89184820000082,106.89184820000082,106.89184820000082,106.89184820000082,106.89184820000082,23,0,,,106.89184820000082,107.09456150000915,1000,107.09456150000915,1000,1000,1000,1000,0,num_3,0.4406163999810815,,31,16,2026-03-12_14h41.39.496,2026A_exp2,2022.2.4,59.94211989490536,
1000,1,0.0,0.0,1,0,25,25,71,,,,,107.55922359996475,108.20990610006265,108.20990610006265,108.71107820002362,315,45,108.71107820002362,108.71107820002362,108.71107820002362,108.71107820002362,108.71107820002362,108.71107820002362,108.71107820002362,108.71107820002362,108.71107820002362,109.07742989994586,109.07742989994586,109.07742989994586,109.07742989994586,109.07742989994586,109.07742989994586,109.07742989994586,109.07742989994586,109.07742989994586,23,0,,,109.07742989994586,109.2792110000737,1000,109.2792110000737,1000,1000,1000,1000,0,num_3,0.45643030013889074,,31,16,2026-03-12_14h41.39.496,2026A_exp2,2022.2.4,59.94211989490536,
1,0,0.0,3.7,0,0,26,26,2,,,,,109.76135120005347,110.41212200000882,110.41212200000882,110.91340159997344,45,315,110.91340159997344,110.91340159997344,110.91340159997344,110.91340159997344,110.91340159997344,110.91340159997344,110.91340159997344,110.91340159997344,110.91340159997344,111.2630129000172,111.2630129000172,111.2630129000172,111.2630129000172,111.2630129000172,111.2630129000172,111.2630129000172,111.2630129000172,111.2630129000172,21,1,[0.31734319985844195],[0.33403309993445873],111.2630129000172,111.46324710012414,0.0,111.46324710012414,0,0.0,0,1,1000,num_1,0.7672291998751462,,31,16,2026-03-12_14h41.39.496,2026A_exp2,2022.2.4,59.94211989490536,
1000,1,0.0,6.1,1,0,27,27,3,,,,,112.24721019994467,112.89789160015061,112.89789160015061,113.39922080002725,315,45,113.39922080002725,113.39922080002725,113.39922080002725,113.39922080002725,113.39922080002725,113.39922080002725,113.39922080002725,113.39922080002725,113.39922080002725,113.74880319996737,113.74880319996737,113.74880319996737,113.74880319996737,113.74880319996737,113.74880319996737,113.74880319996737,113.74880319996737,113.74880319996737,22,0,,,113.74880319996737,113.95099289994687,1000,113.95099289994687,1000,1000,1000,1000,1,num_2,0.5432053001131862,,31,16,2026-03-12_14h41.39.496,2026A_exp2,2022.2.4,59.94211989490536,
1000,1,0.0,0.0,1,0,28,28,39,,,,,114.51627649995498,115.16691570007242,115.16691570007242,115.66803780011833,315,45,115.66803780011833,115.66803780011833,115.66803780011833,115.66803780011833,115.66803780011833,115.66803780011833,115.66803780011833,115.66803780011833,115.66803780011833,116.03442030004226,116.03442030004226,116.03442030004226,116.03442030004226,116.03442030004226,116.03442030004226,116.03442030004226,116.03442030004226,116.03442030004226,0,1,[0.0012270999141037464],[0.36711769993416965],116.03442030004226,116.23624160001054,1000,116.23624160001054,1000,1000,1000,1000,1,num_2,0.8099487000145018,,31,16,2026-03-12_14h41.39.496,2026A_exp2,2022.2.4,59.94211989490536,
1000,1,3.7,0.0,1,0,29,29,33,,,,,117.06851630005985,117.7194869001396,117.7194869001396,118.22045310004614,45,315,118.22045310004614,118.22045310004614,118.22045310004614,118.22045310004614,118.22045310004614,118.22045310004614,118.22045310004614,118.22045310004614,118.22045310004614,118.58705940004438,118.58705940004438,118.58705940004438,118.58705940004438,118.58705940004438,118.58705940004438,118.58705940004438,118.58705940004438,118.58705940004438,14,4,"[0.001238199882209301, 0.050249199848622084, 0.2503787998575717, 0.3008902999572456]","[0.033655199920758605, 0.06698989984579384, 0.26718979980796576, 0.36646989989094436]",118.58705940004438,118.78915320010856,1000,118.78915320010856,1000,1000,1000,1000,0,num_3,0.4016576998401433,,31,16,2026-03-12_14h41.39.496,2026A_exp2,2022.2.4,59.94211989490536,
1000,1,3.7,3.7,1,0,30,30,46,,,,,119.22091020015068,119.87144930008799,119.87144930008799,120.37240660004318,315,315,120.37240660004318,120.37240660004318,120.37240660004318,120.37240660004318,120.37240660004318,120.37240660004318,120.37240660004318,120.37240660004318,120.37240660004318,120.73912520008162,120.73912520008162,120.73912520008162,120.73912520008162,120.73912520008162,120.73912520008162,120.73912520008162,120.73912520008162,120.73912520008162,22,1,[0.13378000003285706],[0.15036780014634132],120.73912520008162,120.93927219999023,1000,120.93927219999023,1000,1000,1000,1000,0,num_3,0.41921259998343885,,31,16,2026-03-12_14h41.39.496,2026A_exp2,2022.2.4,59.94211989490536,
1,0,3.7,4.9,0,0,31,31,31,,,,,121.38990200008266,122.04045730014332,122.04045730014332,122.54170679999515,45,45,122.54170679999515,122.54170679999515,122.54170679999515,122.54170679999515,122.54170679999515,122.54170679999515,122.54170679999515,122.54170679999515,122.54170679999515,122.89129980001599,122.89129980001599,122.89129980001599,122.89129980001599,122.89129980001599,122.89129980001599,122.89129980001599,122.89129980001599,122.89129980001599,0,1,[0.0012620999477803707],[0.3505866997875273],122.89129980001599,123.09158869995736,3.7,123.09158869995736,0,3.7,1,0,1000,num_1,0.787118999985978,,31,16,2026-03-12_14h41.39.496,2026A_exp2,2022.2.4,59.94211989490536,
1000,1,3.7,6.1,0,0,32,32,81,,,,,123.90885940007865,124.55964000010863,124.55964000010863,125.04406390013173,315,45,125.04406390013173,125.04406390013173,125.04406390013173,125.04406390013173,125.04406390013173,125.04406390013173,125.04406390013173,125.04406390013173,125.04406390013173,125.41044000000693,125.41044000000693,125.41044000000693,125.41044000000693,125.41044000000693,125.41044000000693,125.41044000000693,125.41044000000693,125.41044000000693,23,0,,,125.41044000000693,125.61095240013674,1000,125.61095240013674,1000,1000,1000,1000,0,num_3,0.4681170000694692,,31,16,2026-03-12_14h41.39.496,2026A_exp2,2022.2.4,59.94211989490536,
1000,1,4.9,0.0,0,0,33,33,20,,,,,126.09441890008748,126.74498099996708,126.74498099996708,127.24626719998196,315,315,127.24626719998196,127.24626719998196,127.24626719998196,127.24626719998196,127.24626719998196,127.24626719998196,127.24626719998196,127.24626719998196,127.24626719998196,127.61237720004283,127.61237720004283,127.61237720004283,127.61237720004283,127.61237720004283,127.61237720004283,127.61237720004283,127.61237720004283,127.61237720004283,13,1,[0.21715859998948872],[0.3671373000834137],127.61237720004283,127.81443200004287,1000,127.81443200004287,1000,1000,1000,1000,0,num_3,0.52813889994286,,31,16,2026-03-12_14h41.39.496,2026A_exp2,2022.2.4,59.94211989490536,
1000,1,0.0,6.1,0,0,34,34,83,,,,,128.36330840014853,129.01415370008908,129.01415370008908,129.51518470002338,45,315,129.51518470002338,129.51518470002338,129.51518470002338,129.51518470002338,129.51518470002338,129.51518470002338,129.51518470002338,129.51518470002338,129.51518470002338,129.88163720001467,129.88163720001467,129.88163720001467,129.88163720001467,129.88163720001467,129.88163720001467,129.88163720001467,129.88163720001467,129.88163720001467,22,1,[0.21695980010554194],[0.2332801001612097],129.88163720001467,130.08391420007683,1000,130.08391420007683,1000,1000,1000,1000,1,num_2,0.3867013000417501,,31,16,2026-03-12_14h41.39.496,2026A_exp2,2022.2.4,59.94211989490536,
1000,1,4.9,3.7,1,0,35,35,14,,,,,130.4987835001666,131.14937420003116,131.14937420003116,131.65054300008342,45,315,131.65054300008342,131.65054300008342,131.65054300008342,131.65054300008342,131.65054300008342,131.65054300008342,131.65054300008342,131.65054300008342,131.65054300008342,132.01710240007378,132.01710240007378,132.01710240007378,132.01710240007378,132.01710240007378,132.01710240007378,132.01710240007378,132.01710240007378,132.01710240007378,23,0,,,132.01710240007378,132.2192997999955,1000,132.2192997999955,1000,1000,1000,1000,0,num_3,0.4269510998856276,,31,16,2026-03-12_14h41.39.496,2026A_exp2,2022.2.4,59.94211989490536,
1000,1,6.1,3.7,0,0,36,36,61,,,,,132.66790210013278,133.31823530001566,133.31823530001566,133.81936240009964,45,45,133.81936240009964,133.81936240009964,133.81936240009964,133.81936240009964,133.81936240009964,133.81936240009964,133.81936240009964,133.81936240009964,133.81936240009964,134.1857861999888,134.1857861999888,134.1857861999888,134.1857861999888,134.1857861999888,134.1857861999888,134.1857861999888,134.1857861999888,134.1857861999888,0,1,[0.0012119000311940908],[0.3672102000564337],134.1857861999888,134.3880000000354,1000,134.3880000000354,1000,1000,1000,1000,0,num_3,0.41837369999848306,,31,16,2026-03-12_14h41.39.496,2026A_exp2,2022.2.4,59.94211989490536,
1000,1,0.0,0.0,1,0,37,37,62,,,,,134.83646140014753,135.48723530001007,135.48723530001007,135.9881760000717,315,45,135.9881760000717,135.9881760000717,135.9881760000717,135.9881760000717,135.9881760000717,135.9881760000717,135.9881760000717,135.9881760000717,135.9881760000717,136.35473260004073,136.35473260004073,136.35473260004073,136.35473260004073,136.35473260004073,136.35473260004073,136.35473260004073,136.35473260004073,136.35473260004073,0,1,[0.0012127000372856855],[0.36727800010703504],136.35473260004073,136.55672880006023,1000,136.55672880006023,1000,1000,1000,1000,1,num_2,0.5067858998663723,,31,16,2026-03-12_14h41.39.496,2026A_exp2,2022.2.4,59.94211989490536,
1000,1,0.0,0.0,1,0,38,38,70,,,,,137.0888076000847,137.73940040008165,137.73940040008165,138.24045110004954,45,315,138.24045110004954,138.24045110004954,138.24045110004954,138.24045110004954,138.24045110004954,138.24045110004954,138.24045110004954,138.24045110004954,138.24045110004954,138.60686699999496,138.60686699999496,138.60686699999496,138.60686699999496,138.60686699999496,138.60686699999496,138.60686699999496,138.60686699999496,138.60686699999496,23,0,,,138.60686699999496,138.80941969994456,1000,138.80941969994456,1000,1000,1000,1000,0,num_3,0.5811099000275135,,31,16,2026-03-12_14h41.39.496,2026A_exp2,2022.2.4,59.94211989490536,
1,0,6.1,0.0,0,0,39,39,24,,,,,139.40767700015567,140.0584154999815,140.0584154999815,140.55958070000634,315,315,140.55958070000634,140.55958070000634,140.55958070000634,140.55958070000634,140.55958070000634,140.55958070000634,140.55958070000634,140.55958070000634,140.55958070000634,140.92594650015235,140.92594650015235,140.92594650015235,140.92594650015235,140.92594650015235,140.92594650015235,140.92594650015235,140.92594650015235,140.92594650015235,12,4,"[0.08361490000970662, 0.21704469993710518, 0.2503839998971671, 0.3671895998995751]","[0.13375169993378222, 0.23382389987818897, 0.350603099912405, 0.3671955999452621]",140.92594650015235,141.12632180005312,6.1,141.12632180005312,1,6.1,1,1,1000,num_4,0.7676778000313789,,31,16,2026-03-12_14h41.39.496,2026A_exp2,2022.2.4,59.94211989490536,
1,0,0.0,0.0,0,0,40,40,29,,,,,141.9102014999371,142.5608796000015,142.5608796000015,143.04568969993852,45,315,143.04568969993852,143.04568969993852,143.04568969993852,143.04568969993852,143.04568969993852,143.04568969993852,143.04568969993852,143.04568969993852,143.04568969993852,143.411501100054,143.411501100054,143.411501100054,143.411501100054,143.411501100054,143.411501100054,143.411501100054,143.411501100054,143.411501100054,6,4,"[0.0012143999338150024, 0.13365869992412627, 0.23388749989680946, 0.33385669998824596]","[0.11701189982704818, 0.2172280999366194, 0.30059289978817105, 0.3504144998732954]",143.411501100054,143.61200179997832,0.0,143.61200179997832,0,0.0,0,1,1000,num_1,0.8115223001223058,,31,16,2026-03-12_14h41.39.496,2026A_exp2,2022.2.4,59.94211989490536,
1000,1,0.0,3.7,1,0,41,41,75,,,,,144.44615920004435,145.0967665000353,145.0967665000353,145.58112200000323,315,315,145.58112200000323,145.58112200000323,145.58112200000323,145.58112200000323,145.58112200000323,145.58112200000323,145.58112200000323,145.58112200000323,145.58112200000323,145.9476739000529,145.9476739000529,145.9476739000529,145.9476739000529,145.9476739000529,145.9476739000529,145.9476739000529,145.9476739000529,145.9476739000529,0,1,[0.001004599966108799],[0.36729810014367104],145.9476739000529,146.14956649998203,1000,146.14956649998203,1000,1000,1000,1000,1,num_2,0.6008691999595612,,31,16,2026-03-12_14h41.39.496,2026A_exp2,2022.2.4,59.94211989490536,
1,0,0.0,4.9,1,0,42,42,36,,,,,146.78167960001156,147.44189180014655,147.44189180014655,147.9335543999914,45,45,147.9335543999914,147.9335543999914,147.9335543999914,147.9335543999914,147.9335543999914,147.9335543999914,147.9335543999914,147.9335543999914,147.9335543999914,148.28318540006876,148.28318540006876,148.28318540006876,148.28318540006876,148.28318540006876,148.28318540006876,148.28318540006876,148.28318540006876,148.28318540006876,14,2,"[0.13345619989559054, 0.21685960004106164]","[0.15034929988905787, 0.33367699990049005]",148.28318540006876,148.48345470009372,4.9,148.48345470009372,1,4.9,1,1,1000,num_4,0.7627216000109911,,31,16,2026-03-12_14h41.39.496,2026A_exp2,2022.2.4,59.94211989490536,
1,0,0.0,3.7,0,0,43,43,22,,,,,149.26750469999388,149.91821520007215,149.91821520007215,150.40238720015623,315,45,150.40238720015623,150.40238720015623,150.40238720015623,150.40238720015623,150.40238720015623,150.40238720015623,150.40238720015623,150.40238720015623,150.40238720015623,150.7689626000356,150.7689626000356,150.7689626000356,150.7689626000356,150.7689626000356,150.7689626000356,150.7689626000356,150.7689626000356,150.7689626000356,15,2,"[0.0007319001015275717, 0.26682260003872216]","[0.016975800041109324, 0.36712089995853603]",150.7689626000356,150.96926259994507,0.0,150.96926259994507,0,0.0,0,1,1000,num_1,0.5413069999776781,,31,16,2026-03-12_14h41.39.496,2026A_exp2,2022.2.4,59.94211989490536,
1000,1,0.0,4.9,0,0,44,44,9,,,,,151.53685210016556,152.18726329994388,152.18726329994388,152.6882569999434,315,315,152.6882569999434,152.6882569999434,152.6882569999434,152.6882569999434,152.6882569999434,152.6882569999434,152.6882569999434,152.6882569999434,152.6882569999434,153.05494539998472,153.05494539998472,153.05494539998472,153.05494539998472,153.05494539998472,153.05494539998472,153.05494539998472,153.05494539998472,153.05494539998472,0,1,[0.0012354000937193632],[0.36707270005717874],153.05494539998472,153.25667369994335,1000,153.25667369994335,1000,1000,1000,1000,1,num_2,1.0382395000196993,,31,16,2026-03-12_14h41.39.496,2026A_exp2,2022.2.4,59.94211989490536,
1,0,6.1,6.1,0,0,45,45,51,,,,,154.32268159999512,154.97336920001544,154.97336920001544,155.47443990013562,315,315,155.47443990013562,155.47443990013562,155.47443990013562,155.47443990013562,155.47443990013562,155.47443990013562,155.47443990013562,155.47443990013562,155.47443990013562,155.84064670000225,155.84064670000225,155.84064670000225,155.84064670000225,155.84064670000225,155.84064670000225,155.84064670000225,155.84064670000225,155.84064670000225,7,5,"[0.05025459988974035, 0.08355369977653027, 0.15040189982391894, 0.20026829978451133, 0.2337706999387592]","[0.06682259985245764, 0.1335867999587208, 0.18359559983946383, 0.21696879994124174, 0.3668872998096049]",155.84064670000225,156.04098000004888,6.1,156.04098000004888,1,6.1,1,1,1000,num_4,1.1494732000865042,,31,16,2026-03-12_14h41.39.496,2026A_exp2,2022.2.4,59.94211989490536,
1,0,0.0,3.7,1,0,46,46,25,,,,,157.20875640003942,157.85956320003606,157.85956320003606,158.36071610008366,45,45,158.36071610008366,158.36071610008366,158.36071610008366,158.36071610008366,158.36071610008366,158.36071610008366,158.36071610008366,158.36071610008366,158.36071610008366,158.71037130011246,158.71037130011246,158.71037130011246,158.71037130011246,158.71037130011246,158.71037130011246,158.71037130011246,158.71037130011246,158.71037130011246,13,3,"[0.0011996000539511442, 0.06665430008433759, 0.3337626999709755]","[0.0502922001760453, 0.13349390006624162, 0.3504061000421643]",158.71037130011246,158.91054990002885,3.7,158.91054990002885,1,3.7,1,1,1000,num_4,0.671770199900493,,31,16,2026-03-12_14h41.39.496,2026A_exp2,2022.2.4,59.94211989490536,
1000,1,0.0,3.7,1,0,47,47,43,,,,,159.6111632999964,160.26190180005506,160.26190180005506,160.7464517999906,45,315,160.7464517999906,160.7464517999906,160.7464517999906,160.7464517999906,160.7464517999906,160.7464517999906,160.7464517999906,160.7464517999906,160.7464517999906,161.11282959999517,161.11282959999517,161.11282959999517,161.11282959999517,161.11282959999517,161.11282959999517,161.11282959999517,161.11282959999517,161.11282959999517,23,0,,,161.11282959999517,161.31490759993903,1000,161.31490759993903,1000,1000,1000,1000,1,num_2,0.5723829998169094,,31,16,2026-03-12_14h41.39.496,2026A_exp2,2022.2.4,59.94211989490536,
1000,1,0.0,0.0,0,0,48,48,47,,,,,161.9136316999793,162.56425589998253,162.56425589998253,163.06546339998022,45,45,163.06546339998022,163.06546339998022,163.06546339998022,163.06546339998022,163.06546339998022,163.06546339998022,163.06546339998022,163.06546339998022,163.06546339998022,163.4317131000571,163.4317131000571,163.4317131000571,163.4317131000571,163.4317131000571,163.4317131000571,163.4317131000571,163.4317131000571,163.4317131000571,0,1,[0.0012806998565793037],[0.3669590000063181],163.4317131000571,163.63392980000935,1000,163.63392980000935,1000,1000,1000,1000,0,num_3,0.8363680001348257,,31,16,2026-03-12_14h41.39.496,2026A_exp2,2022.2.4,59.94211989490536,
1000,1,6.1,0.0,0,0,49,49,68,,,,,164.49942330014892,165.1502147000283,165.1502147000283,165.65108310012147,315,45,165.65108310012147,165.65108310012147,165.65108310012147,165.65108310012147,165.65108310012147,165.65108310012147,165.65108310012147,165.65108310012147,165.65108310012147,166.0177436999511,166.0177436999511,166.0177436999511,166.0177436999511,166.0177436999511,166.0177436999511,166.0177436999511,166.0177436999511,166.0177436999511,23,0,,,166.0177436999511,166.21940449997783,1000,166.21940449997783,1000,1000,1000,1000,0,num_3,0.37086199992336333,,31,16,2026-03-12_14h41.39.496,2026A_exp2,2022.2.4,59.94211989490536,
1,0,4.9,0.0,1,0,50,50,48,,,,,166.61830650013871,167.2706420000177,167.2706420000177,167.76998959993944,315,315,167.76998959993944,167.76998959993944,167.76998959993944,167.76998959993944,167.76998959993944,167.76998959993944,167.76998959993944,167.76998959993944,167.76998959993944,168.13655920000747,168.13655920000747,168.13655920000747,168.13655920000747,168.13655920000747,168.13655920000747,168.13655920000747,168.13655920000747,168.13655920000747,23,0,,,168.13655920000747,168.3367678001523,0.0,168.3367678001523,0,0.0,0,1,1000,num_1,0.6545140000525862,,31,16,2026-03-12_14h41.39.496,2026A_exp2,2022.2.4,59.94211989490536,
1,0,3.7,4.9,0,0,51,51,84,,,,,169.02064140001312,169.6714731999673,169.6714731999673,170.1557476001326,45,45,170.1557476001326,170.1557476001326,170.1557476001326,170.1557476001326,170.1557476001326,170.1557476001326,170.1557476001326,170.1557476001326,170.1557476001326,170.52225350006483,170.52225350006483,170.52225350006483,170.52225350006483,170.52225350006483,170.52225350006483,170.52225350006483,170.52225350006483,170.52225350006483,12,1,[0.19972579996101558],[0.366844599833712],170.52225350006483,170.72238030005246,3.7,170.72238030005246,1,3.7,1,1,1000,num_4,0.8600808000192046,,31,16,2026-03-12_14h41.39.496,2026A_exp2,2022.2.4,59.94211989490536,
1,0,0.0,0.0,0,0,52,52,19,,,,,171.6068822001107,172.26726939994842,172.26726939994842,172.7418200999964,45,45,172.7418200999964,172.7418200999964,172.7418200999964,172.7418200999964,172.7418200999964,172.7418200999964,172.7418200999964,172.7418200999964,172.7418200999964,173.10816620010883,173.10816620010883,173.10816620010883,173.10816620010883,173.10816620010883,173.10816620010883,173.10816620010883,173.10816620010883,173.10816620010883,21,2,"[0.04958810005337, 0.09987580007873476]","[0.06610250007361174, 0.1166473999619484]",173.10816620010883,173.3082189001143,0.0,173.3082189001143,0,0.0,0,1,1000,num_1,0.44997920002788305,,31,16,2026-03-12_14h41.39.496,2026A_exp2,2022.2.4,59.94211989490536,
1,0,3.7,0.0,1,0,53,53,59,,,,,173.77533860015683,174.4262920001056,174.4262920001056,174.9105899001006,315,315,174.9105899001006,174.9105899001006,174.9105899001006,174.9105899001006,174.9105899001006,174.9105899001006,174.9105899001006,174.9105899001006,174.9105899001006,175.27702200016938,175.27702200016938,175.27702200016938,175.27702200016938,175.27702200016938,175.27702200016938,175.27702200016938,175.27702200016938,175.27702200016938,23,0,,,175.27702200016938,175.47720400011167,0.0,175.47720400011167,0,0.0,0,1,1000,num_1,0.5368800000287592,,31,16,2026-03-12_14h41.39.496,2026A_exp2,2022.2.4,59.94211989490536,
1000,1,4.9,4.9,0,0,54,54,34,,,,,176.0446536000818,176.69504100014456,176.69504100014456,177.17952829995193,45,315,177.17952829995193,177.17952829995193,177.17952829995193,177.17952829995193,177.17952829995193,177.17952829995193,177.17952829995193,177.17952829995193,177.17952829995193,177.54594540013932,177.54594540013932,177.54594540013932,177.54594540013932,177.54594540013932,177.54594540013932,177.54594540013932,177.54594540013932,177.54594540013932,20,1,[0.33389930007979274],[0.367223700042814],177.54594540013932,177.74799240007997,1000,177.74799240007997,1000,1000,1000,1000,0,num_3,0.41850579995661974,,31,16,2026-03-12_14h41.39.496,2026A_exp2,2022.2.4,59.94211989490536,
1,0,0.0,3.7,1,0,55,55,12,,,,,178.1965147999581,178.84715549997054,178.84715549997054,179.3484591001179,45,45,179.3484591001179,179.3484591001179,179.3484591001179,179.3484591001179,179.3484591001179,179.3484591001179,179.3484591001179,179.3484591001179,179.3484591001179,179.71478229993954,179.71478229993954,179.71478229993954,179.71478229993954,179.71478229993954,179.71478229993954,179.71478229993954,179.71478229993954,179.71478229993954,22,1,[0.3670274999458343],[0.367033600108698],179.71478229993954,179.91500580008142,3.7,179.91500580008142,1,3.7,1,1,1000,num_4,0.8352527001406997,,31,16,2026-03-12_14h41.39.496,2026A_exp2,2022.2.4,59.94211989490536,
1,0,6.1,6.1,1,0,56,56,89,,,,,180.78285349998623,181.43306599999778,181.43306599999778,181.93428230006248,315,45,181.93428230006248,181.93428230006248,181.93428230006248,181.93428230006248,181.93428230006248,181.93428230006248,181.93428230006248,181.93428230006248,181.93428230006248,182.30067170015536,182.30067170015536,182.30067170015536,182.30067170015536,182.30067170015536,182.30067170015536,182.30067170015536,182.30067170015536,182.30067170015536,0,1,[0.0012951998505741358],[0.36720529990270734],182.30067170015536,182.50116200000048,6.1,182.50116200000048,1,6.1,1,1,1000,num_4,0.5381122000981122,,31,16,2026-03-12_14h41.39.496,2026A_exp2,2022.2.4,59.94211989490536,
1000,1,6.1,0.0,0,0,57,57,80,,,,,183.06815820001066,183.71864430001006,183.71864430001006,184.20308990008198,315,315,184.20308990008198,184.20308990008198,184.20308990008198,184.20308990008198,184.20308990008198,184.20308990008198,184.20308990008198,184.20308990008198,184.20308990008198,184.56967460014857,184.56967460014857,184.56967460014857,184.56967460014857,184.56967460014857,184.56967460014857,184.56967460014857,184.56967460014857,184.56967460014857,0,1,[0.0013441001065075397],[0.3671006001532078],184.56967460014857,184.77170319994912,1000,184.77170319994912,1000,1000,1000,1000,0,num_3,0.3945325999520719,,31,16,2026-03-12_14h41.39.496,2026A_exp2,2022.2.4,59.94211989490536,
1000,1,6.1,0.0,0,0,58,58,8,,,,,185.18684530002065,185.8377002000343,185.8377002000343,186.33825250016525,315,45,186.33825250016525,186.33825250016525,186.33825250016525,186.33825250016525,186.33825250016525,186.33825250016525,186.33825250016525,186.33825250016525,186.33825250016525,186.70512349996716,186.70512349996716,186.70512349996716,186.70512349996716,186.70512349996716,186.70512349996716,186.70512349996716,186.70512349996716,186.70512349996716,5,3,"[0.01685589994303882, 0.20043789991177619, 0.2503362998832017]","[0.1836590999737382, 0.21696979994885623, 0.36726729990914464]",186.70512349996716,186.905294300057,1000,186.905294300057,1000,1000,1000,1000,0,num_3,0.43021140014752746,,31,16,2026-03-12_14h41.39.496,2026A_exp2,2022.2.4,59.94211989490536,
1,0,0.0,3.7,0,0,59,59,1,,,,,187.35573439998552,188.0063396000769,188.0063396000769,188.50752880005166,45,315,188.50752880005166,188.50752880005166,188.50752880005166,188.50752880005166,188.50752880005166,188.50752880005166,188.50752880005166,188.50752880005166,188.50752880005166,188.873952700058,188.873952700058,188.873952700058,188.873952700058,188.873952700058,188.873952700058,188.873952700058,188.873952700058,188.873952700058,23,0,,,188.873952700058,189.07411670009606,0.0,189.07411670009606,1,0.0,0,0,1000,num_4,1.100638700183481,,31,16,2026-03-12_14h41.39.496,2026A_exp2,2022.2.4,59.94211989490536,
1,0,0.0,4.9,1,0,60,60,65,,,,,190.1918196999468,190.84385409997776,190.84385409997776,191.33577980007976,45,45,191.33577980007976,191.33577980007976,191.33577980007976,191.33577980007976,191.33577980007976,191.33577980007976,191.33577980007976,191.33577980007976,191.33577980007976,191.69334610016085,191.69334610016085,191.69334610016085,191.69334610016085,191.69334610016085,191.69334610016085,191.69334610016085,191.69334610016085,191.69334610016085,23,0,,,191.69334610016085,191.89946070010774,4.9,191.89946070010774,1,4.9,1,1,1000,num_4,0.7145847999490798,,31,16,2026-03-12_14h41.39.496,2026A_exp2,2022.2.4,59.94211989490536,
1,0,0.0,0.0,1,0,61,61,82,,,,,192.64466570015065,193.29495520005003,193.29495520005003,193.77948949998245,45,45,193.77948949998245,193.77948949998245,193.77948949998245,193.77948949998245,193.77948949998245,193.77948949998245,193.77948949998245,193.77948949998245,193.77948949998245,194.14575799996965,194.14575799996965,194.14575799996965,194.14575799996965,194.14575799996965,194.14575799996965,194.14575799996965,194.14575799996965,194.14575799996965,16,2,"[0.200282400008291, 0.2837472001556307]","[0.21690430003218353, 0.3670148001983762]",194.14575799996965,194.34611260006204,0.0,194.34611260006204,0,0.0,0,1,1000,num_1,0.5647549000568688,,31,16,2026-03-12_14h41.39.496,2026A_exp2,2022.2.4,59.94211989490536,
1,0,0.0,6.1,0,0,62,62,57,,,,,194.9299103000667,195.5805820999667,195.5805820999667,196.08165389997885,315,45,196.08165389997885,196.08165389997885,196.08165389997885,196.08165389997885,196.08165389997885,196.08165389997885,196.08165389997885,196.08165389997885,196.08165389997885,196.43140280013904,196.43140280013904,196.43140280013904,196.43140280013904,196.43140280013904,196.43140280013904,196.43140280013904,196.43140280013904,196.43140280013904,4,1,[0.0669885000679642],[0.3503477999474853],196.43140280013904,196.63177460012957,0.0,196.63177460012957,0,0.0,0,1,1000,num_1,0.7754911000374705,,31,16,2026-03-12_14h41.39.496,2026A_exp2,2022.2.4,59.94211989490536,
1000,1,3.7,0.0,0,0,63,63,37,,,,,197.43281839997508,198.09261539997533,198.09261539997533,198.56750699994154,45,315,198.56750699994154,198.56750699994154,198.56750699994154,198.56750699994154,198.56750699994154,198.56750699994154,198.56750699994154,198.56750699994154,198.56750699994154,198.93386410013773,198.93386410013773,198.93386410013773,198.93386410013773,198.93386410013773,198.93386410013773,198.93386410013773,198.93386410013773,198.93386410013773,20,3,"[0.017412199871614575, 0.10013309982605278, 0.13348919991403818]","[0.033535199938341975, 0.116674899822101, 0.15008369996212423]",198.93386410013773,199.13414330012165,1000,199.13414330012165,1000,1000,1000,1000,0,num_3,0.38423630013130605,,31,16,2026-03-12_14h41.39.496,2026A_exp2,2022.2.4,59.94211989490536,
1000,1,4.9,4.9,1,0,64,64,26,,,,,199.53461700002663,200.18515040003695,200.18515040003695,200.68626580014825,45,45,200.68626580014825,200.68626580014825,200.68626580014825,200.68626580014825,200.68626580014825,200.68626580014825,200.68626580014825,200.68626580014825,200.68626580014825,201.03609029995278,201.03609029995278,201.03609029995278,201.03609029995278,201.03609029995278,201.03609029995278,201.03609029995278,201.03609029995278,201.03609029995278,17,4,"[0.08360390015877783, 0.1501523000188172, 0.26711380016058683, 0.33385609998367727]","[0.10018800012767315, 0.18366330000571907, 0.2837916000280529, 0.3505343000870198]",201.03609029995278,201.23812490003183,1000,201.2530013001524,1000,1000,1000,1000,1,num_2,0.6101361999753863,,31,16,2026-03-12_14h41.39.496,2026A_exp2,2022.2.4,59.94211989490536,
1,0,4.9,0.0,0,0,65,65,23,,,,,201.88683219999075,202.53760659997351,202.53760659997351,203.03866289998405,45,45,203.03866289998405,203.03866289998405,203.03866289998405,203.03866289998405,203.03866289998405,203.03866289998405,203.03866289998405,203.03866289998405,203.03866289998405,203.40515420003794,203.40515420003794,203.40515420003794,203.40515420003794,203.40515420003794,203.40515420003794,203.40515420003794,203.40515420003794,203.40515420003794,7,1,[0.11694340012036264],[0.3670403000432998],203.40515420003794,203.60562090016901,4.9,203.60562090016901,1,4.9,1,1,1000,num_4,0.6886857999488711,,31,16,2026-03-12_14h41.39.496,2026A_exp2,2022.2.4,59.94211989490536,
1,0,0.0,6.1,0,0,66,66,72,,,,,204.32243370008655,204.97335480013862,204.97335480013862,205.4578217000235,45,45,205.4578217000235,205.4578217000235,205.4578217000235,205.4578217000235,205.4578217000235,205.4578217000235,205.4578217000235,205.4578217000235,205.4578217000235,205.82406020001508,205.82406020001508,205.82406020001508,205.82406020001508,205.82406020001508,205.82406020001508,205.82406020001508,205.82406020001508,205.82406020001508,7,4,"[0.0014237998984754086, 0.050247599836438894, 0.24989349977113307, 0.3503774998243898]","[0.03354559978470206, 0.20036499993875623, 0.3003499999176711, 0.3671899999026209]",205.82406020001508,206.02436599996872,0.0,206.02436599996872,0,0.0,0,1,1000,num_1,0.9348489998374134,,31,16,2026-03-12_14h41.39.496,2026A_exp2,2022.2.4,59.94211989490536,
1000,1,0.0,3.7,0,0,67,67,32,,,,,206.97522040014155,207.62789710005745,207.62789710005745,208.12717929994687,315,45,208.12717929994687,208.12717929994687,208.12717929994687,208.12717929994687,208.12717929994687,208.12717929994687,208.12717929994687,208.12717929994687,208.12717929994687,208.4769317000173,208.4769317000173,208.4769317000173,208.4769317000173,208.4769317000173,208.4769317000173,208.4769317000173,208.4769317000173,208.4769317000173,20,1,[0.0837650999892503],[0.11720959981903434],208.4769317000173,208.67872290010564,1000,208.67872290010564,1000,1000,1000,1000,1,num_2,0.5038381998892874,,31,16,2026-03-12_14h41.39.496,2026A_exp2,2022.2.4,59.94211989490536,
1,0,6.1,6.1,0,0,68,68,11,,,,,209.21082719997503,209.84587990003638,209.84587990003638,210.34629340004176,315,315,210.34629340004176,210.34629340004176,210.34629340004176,210.34629340004176,210.34629340004176,210.34629340004176,210.34629340004176,210.34629340004176,210.34629340004176,210.71223750011995,210.71223750011995,210.71223750011995,210.71223750011995,210.71223750011995,210.71223750011995,210.71223750011995,210.71223750011995,210.71223750011995,22,1,[0.3644335998687893],[0.36443810001946986],210.71223750011995,210.91288370010443,6.1,210.91288370010443,1,6.1,1,1,1000,num_4,1.2454613998997957,,31,16,2026-03-12_14h41.39.496,2026A_exp2,2022.2.4,59.94211989490536,
1000,1,4.9,0.0,1,0,69,69,7,,,,,212.18038909998722,212.83139940002002,212.83139940002002,213.3155005001463,45,45,213.3155005001463,213.3155005001463,213.3155005001463,213.3155005001463,213.3155005001463,213.3155005001463,213.3155005001463,213.3155005001463,213.3155005001463,213.68191200005822,213.68191200005822,213.68191200005822,213.68191200005822,213.68191200005822,213.68191200005822,213.68191200005822,213.68191200005822,213.68191200005822,20,2,"[0.26702520018443465, 0.36708850017748773]","[0.300353400176391, 0.367096200119704]",213.68191200005822,213.88393909996375,1000,213.88393909996375,1000,1000,1000,1000,0,num_3,0.41921889991499484,,31,16,2026-03-12_14h41.39.496,2026A_exp2,2022.2.4,59.94211989490536,
1,0,0.0,4.9,0,0,70,70,35,,,,,214.33259010012262,214.98341300012544,214.98341300012544,215.48441440006718,315,315,215.48441440006718,215.48441440006718,215.48441440006718,215.48441440006718,215.48441440006718,215.48441440006718,215.48441440006718,215.48441440006718,215.48441440006718,215.8509214001242,215.8509214001242,215.8509214001242,215.8509214001242,215.8509214001242,215.8509214001242,215.8509214001242,215.8509214001242,215.8509214001242,17,3,"[0.23343940009362996, 0.28357780002988875, 0.3168381000868976]","[0.25021500000730157, 0.30012280005030334, 0.3668295000679791]",215.8509214001242,216.05108230002224,0.0,216.05108230002224,0,0.0,0,1,1000,num_1,0.6604083001147956,,31,16,2026-03-12_14h41.39.496,2026A_exp2,2022.2.4,59.94211989490536,
1000,1,6.1,6.1,0,0,71,71,50,,,,,216.73496469995007,217.38577709998935,217.38577709998935,217.870221799938,315,315,217.870221799938,217.870221799938,217.870221799938,217.870221799938,217.870221799938,217.870221799938,217.870221799938,217.870221799938,217.870221799938,218.23651090008207,218.23651090008207,218.23651090008207,218.23651090008207,218.23651090008207,218.23651090008207,218.23651090008207,218.23651090008207,218.23651090008207,23,0,,,218.23651090008207,218.43901820015162,1000,218.43901820015162,1000,1000,1000,1000,0,num_3,0.5190810998901725,,31,16,2026-03-12_14h41.39.496,2026A_exp2,2022.2.4,59.94211989490536,
1,0,4.9,0.0,0,0,72,72,87,,,,,218.98736140015535,219.63803909998387,219.63803909998387,220.1390998000279,45,45,220.1390998000279,220.1390998000279,220.1390998000279,220.1390998000279,220.1390998000279,220.1390998000279,220.1390998000279,220.1390998000279,220.1390998000279,220.50515990005806,220.50515990005806,220.50515990005806,220.50515990005806,220.50515990005806,220.50515990005806,220.50515990005806,220.50515990005806,220.50515990005806,23,0,,,220.50515990005806,220.7056929001119,4.9,220.7056929001119,1,4.9,1,1,1000,num_4,0.5738214000593871,,31,16,2026-03-12_14h41.39.496,2026A_exp2,2022.2.4,59.94211989490536,
1000,1,6.1,0.0,0,0,73,73,58,,,,,221.30622220016085,221.9569864999503,221.9569864999503,222.44145010015927,45,315,222.44145010015927,222.44145010015927,222.44145010015927,222.44145010015927,222.44145010015927,222.44145010015927,222.44145010015927,222.44145010015927,222.44145010015927,222.80784650007263,222.80784650007263,222.80784650007263,222.80784650007263,222.80784650007263,222.80784650007263,222.80784650007263,222.80784650007263,222.80784650007263,23,0,,,222.80784650007263,223.0100130001083,1000,223.0100130001083,1000,1000,1000,1000,0,num_3,0.516412700060755,,31,16,2026-03-12_14h41.39.496,2026A_exp2,2022.2.4,59.94211989490536,
1000,1,6.1,3.7,1,0,74,74,45,,,,,223.54196060006507,224.19257050007582,224.19257050007582,224.69373110006563,45,315,224.69373110006563,224.69373110006563,224.69373110006563,224.69373110006563,224.69373110006563,224.69373110006563,224.69373110006563,224.69373110006563,224.69373110006563,225.05991049995646,225.05991049995646,225.05991049995646,225.05991049995646,225.05991049995646,225.05991049995646,225.05991049995646,225.05991049995646,225.05991049995646,23,0,,,225.05991049995646,225.26207130006514,1000,225.26207130006514,1000,1000,1000,1000,0,num_3,0.5284860001411289,,31,16,2026-03-12_14h41.39.496,2026A_exp2,2022.2.4,59.94211989490536,
1000,1,6.1,0.0,1,0,75,75,52,,,,,225.81100090011023,226.46148400008678,226.46148400008678,226.94605210004374,315,45,226.94605210004374,226.94605210004374,226.94605210004374,226.94605210004374,226.94605210004374,226.94605210004374,226.94605210004374,226.94605210004374,226.94605210004374,227.31236710003577,227.31236710003577,227.31236710003577,227.31236710003577,227.31236710003577,227.31236710003577,227.31236710003577,227.31236710003577,227.31236710003577,23,0,,,227.31236710003577,227.5142181001138,1000,227.5142181001138,1000,1000,1000,1000,0,num_3,0.4208943999838084,,31,16,2026-03-12_14h41.39.496,2026A_exp2,2022.2.4,59.94211989490536,
1,0,0.0,3.7,1,0,76,76,10,,,,,227.96316600008868,228.61353079997934,228.61353079997934,229.11482949997298,45,45,229.11482949997298,229.11482949997298,229.11482949997298,229.11482949997298,229.11482949997298,229.11482949997298,229.11482949997298,229.11482949997298,229.11482949997298,229.48111749999225,229.48111749999225,229.48111749999225,229.48111749999225,229.48111749999225,229.48111749999225,229.48111749999225,229.48111749999225,229.48111749999225,23,0,,,229.48111749999225,229.68139469996095,3.7,229.68139469996095,1,3.7,1,1,1000,num_4,0.6377002999652177,,31,16,2026-03-12_14h41.39.496,2026A_exp2,2022.2.4,59.94211989490536,
1000,1,3.7,0.0,1,0,77,77,44,,,,,230.34858500002883,230.99938050005585,230.99938050005585,231.48382270010188,315,315,231.48382270010188,231.48382270010188,231.48382270010188,231.48382270010188,231.48382270010188,231.48382270010188,231.48382270010188,231.48382270010188,231.48382270010188,231.8502027001232,231.8502027001232,231.8502027001232,231.8502027001232,231.8502027001232,231.8502027001232,231.8502027001232,231.8502027001232,231.8502027001232,22,1,[0.3505462999455631],[0.36710770009085536],231.8502027001232,232.05206959997304,1000,232.05206959997304,1000,1000,1000,1000,0,num_3,1.2347038998268545,,31,16,2026-03-12_14h41.39.496,2026A_exp2,2022.2.4,59.94211989490536,
0,0,3.7,3.7,0,0,78,78,63,,,,,233.31833230005577,233.96907640015706,233.96907640015706,234.47018070006743,45,45,234.47018070006743,234.47018070006743,234.47018070006743,234.47018070006743,234.47018070006743,234.47018070006743,234.47018070006743,234.47018070006743,234.47018070006743,234.8198116000276,234.8198116000276,234.8198116000276,234.8198116000276,234.8198116000276,234.8198116000276,234.8198116000276,234.8198116000276,234.8198116000276,18,3,"[0.2503807002212852, 0.30047590006142855, 0.33390010008588433]","[0.2670253000687808, 0.3172824000939727, 0.35052950005047023]",234.8198116000276,235.0200935001485,3.7,235.0200935001485,0,3.7,1,0,1000,num_1,0.6910734998527914,,31,16,2026-03-12_14h41.39.496,2026A_exp2,2022.2.4,59.94211989490536,
1,0,6.1,0.0,1,0,79,79,38,,,,,235.73733030003496,236.38807790004648,236.38807790004648,236.87253749999218,315,315,236.87253749999218,236.87253749999218,236.87253749999218,236.87253749999218,236.87253749999218,236.87253749999218,236.87253749999218,236.87253749999218,236.87253749999218,237.23896240000613,237.23896240000613,237.23896240000613,237.23896240000613,237.23896240000613,237.23896240000613,237.23896240000613,237.23896240000613,237.23896240000613,19,3,"[0.23382680001668632, 0.31713089998811483, 0.35037500015459955]","[0.25029460014775395, 0.3336440999992192, 0.3671244999859482]",237.23896240000613,237.4391851001419,0.0,237.4391851001419,0,0.0,0,1,1000,num_1,0.5434719000477344,,31,16,2026-03-12_14h41.39.496,2026A_exp2,2022.2.4,59.94211989490536,
1000,1,3.7,4.9,0,0,80,80,13,,,,,238.00623559998348,238.65705280005932,238.65705280005932,239.1414765000809,45,315,239.1414765000809,239.1414765000809,239.1414765000809,239.1414765000809,239.1414765000809,239.1414765000809,239.1414765000809,239.1414765000809,239.1414765000809,239.50795849994756,239.50795849994756,239.50795849994756,239.50795849994756,239.50795849994756,239.50795849994756,239.50795849994756,239.50795849994756,239.50795849994756,23,0,,,239.50795849994756,239.71003259997815,1000,239.71003259997815,1000,1000,1000,1000,0,num_3,0.5603590998798609,,31,16,2026-03-12_14h41.39.496,2026A_exp2,2022.2.4,59.94211989490536,
1000,1,0.0,0.0,1,0,81,81,40,,,,,240.29197180015035,240.94241539994255,240.94241539994255,241.44376860000193,315,315,241.44376860000193,241.44376860000193,241.44376860000193,241.44376860000193,241.44376860000193,241.44376860000193,241.44376860000193,241.44376860000193,241.44376860000193,241.81013670004904,241.81013670004904,241.81013670004904,241.81013670004904,241.81013670004904,241.81013670004904,241.81013670004904,241.81013670004904,241.81013670004904,23,0,,,241.81013670004904,242.01286599994637,1000,242.01286599994637,1000,1000,1000,1000,1,num_2,0.6336021001916379,,31,16,2026-03-12_14h41.39.496,2026A_exp2,2022.2.4,59.94211989490536,
1,0,6.1,3.7,0,0,82,82,86,,,,,242.67784529994242,243.32840150012635,243.32840150012635,243.82935549994,45,315,243.82935549994,243.82935549994,243.82935549994,243.82935549994,243.82935549994,243.82935549994,243.82935549994,243.82935549994,243.82935549994,244.19593590009026,244.19593590009026,244.19593590009026,244.19593590009026,244.19593590009026,244.19593590009026,244.19593590009026,244.19593590009026,244.19593590009026,23,0,,,244.19593590009026,244.3960722000338,6.1,244.3960722000338,1,6.1,1,1,1000,num_4,1.0271308000665158,,31,16,2026-03-12_14h41.39.496,2026A_exp2,2022.2.4,59.94211989490536,
0,0,0.0,0.0,0,0,83,83,4,,,,,245.44698570016772,246.0980224001687,246.0980224001687,246.58212799998,315,315,246.58212799998,246.58212799998,246.58212799998,246.58212799998,246.58212799998,246.58212799998,246.58212799998,246.58212799998,246.58212799998,246.94855860015377,246.94855860015377,246.94855860015377,246.94855860015377,246.94855860015377,246.94855860015377,246.94855860015377,246.94855860015377,246.94855860015377,23,0,,,246.94855860015377,247.1489586001262,0.0,247.1489586001262,0,0.0,0,1,1000,num_1,0.7464666001033038,,31,16,2026-03-12_14h41.39.496,2026A_exp2,2022.2.4,59.94211989490536,
1,0,3.7,6.1,0,0,84,84,55,,,,,247.9161102999933,248.5668188999407,248.5668188999407,249.05134540004656,45,45,249.05134540004656,249.05134540004656,249.05134540004656,249.05134540004656,249.05134540004656,249.05134540004656,249.05134540004656,249.05134540004656,249.05134540004656,249.41778749995865,249.41778749995865,249.41778749995865,249.41778749995865,249.41778749995865,249.41778749995865,249.41778749995865,249.41778749995865,249.41778749995865,23,0,,,249.41778749995865,249.61793840001337,3.7,249.61793840001337,1,3.7,1,1,1000,num_4,1.0375765999779105,,31,16,2026-03-12_14h41.39.496,2026A_exp2,2022.2.4,59.94211989490536,
1,0,0.0,0.0,0,0,85,85,49,,,,,250.68552429997362,251.33630429999903,251.33630429999903,251.82072019996122,315,315,251.82072019996122,251.82072019996122,251.82072019996122,251.82072019996122,251.82072019996122,251.82072019996122,251.82072019996122,251.82072019996122,251.82072019996122,252.18721250002272,252.18721250002272,252.18721250002272,252.18721250002272,252.18721250002272,252.18721250002272,252.18721250002272,252.18721250002272,252.18721250002272,23,0,,,252.18721250002272,252.387397200102,0.0,252.387397200102,0,0.0,0,1,1000,num_1,0.7800630000419915,,31,16,2026-03-12_14h41.39.496,2026A_exp2,2022.2.4,59.94211989490536,
1,0,3.7,3.7,1,0,86,86,64,,,,,253.18803069996648,253.83879150007851,253.83879150007851,254.32319590006955,45,315,254.32319590006955,254.32319590006955,254.32319590006955,254.32319590006955,254.32319590006955,254.32319590006955,254.32319590006955,254.32319590006955,254.32319590006955,254.68970730016008,254.68970730016008,254.68970730016008,254.68970730016008,254.68970730016008,254.68970730016008,254.68970730016008,254.68970730016008,254.68970730016008,23,0,,,254.68970730016008,254.8898015001323,3.7,254.8898015001323,1,3.7,1,1,1000,num_4,0.5651571000926197,,31,16,2026-03-12_14h41.39.496,2026A_exp2,2022.2.4,59.94211989490536,
1000,1,3.7,3.7,1,0,87,87,88,,,,,255.47480930015445,256.124349599937,256.124349599937,256.6256590001285,45,315,256.6256590001285,256.6256590001285,256.6256590001285,256.6256590001285,256.6256590001285,256.6256590001285,256.6256590001285,256.6256590001285,256.6256590001285,256.99203320010565,256.99203320010565,256.99203320010565,256.99203320010565,256.99203320010565,256.99203320010565,256.99203320010565,256.99203320010565,256.99203320010565,23,0,,,256.99203320010565,257.19430960016325,1000,257.19430960016325,1000,1000,1000,1000,0,num_3,0.8600341998971999,,31,16,2026-03-12_14h41.39.496,2026A_exp2,2022.2.4,59.94211989490536,
1000,1,0.0,0.0,0,0,88,88,5,,,,,258.0763181000948,258.7270460999571,258.7270460999571,259.22807539999485,45,45,259.22807539999485,259.22807539999485,259.22807539999485,259.22807539999485,259.22807539999485,259.22807539999485,259.22807539999485,259.22807539999485,259.22807539999485,259.59461349993944,259.59461349993944,259.59461349993944,259.59461349993944,259.59461349993944,259.59461349993944,259.59461349993944,259.59461349993944,259.59461349993944,23,0,,,259.59461349993944,259.7948863999918,1000,259.7948863999918,1000,1000,1000,1000,0,num_3,0.4836509998422116,,31,16,2026-03-12_14h41.39.496,2026A_exp2,2022.2.4,59.94211989490536,
1,0,6.1,4.9,0,0,89,89,30,,,,,260.2955839999486,260.94608390005305,260.94608390005305,261.44708910002373,315,45,261.44708910002373,261.44708910002373,261.44708910002373,261.44708910002373,261.44708910002373,261.44708910002373,261.44708910002373,261.44708910002373,261.44708910002373,261.81347710010596,261.81347710010596,261.81347710010596,261.81347710010596,261.81347710010596,261.81347710010596,261.81347710010596,261.81347710010596,261.81347710010596,23,0,,,261.81347710010596,262.0180420000106,6.1,262.0180420000106,1,6.1,1,1,1000,num_4,0.5642595000099391,,31,16,2026-03-12_14h41.39.496,2026A_exp2,2022.2.4,59.94211989490536,
,,,,,,,,,,,,,,,,,,,,,,,,,,,,,,,,,,,,,,,,,,,,,,,,,,,,262.624902700074,,,,,,,
