validity,detectorcomp,contrastCW,contrastCCW,precueCWorCCW,block_80trials.thisRepN,block_80trials.thisTrialN,block_80trials.thisN,block_80trials.thisIndex,etRecord.started,etRecord.stopped,text.started,text.stopped,text_4.started,text_4.stopped,text_6.started,text_6.stopped,oriCW,oriCCW,roi_2.started,grating_UR.started,grating_UL.started,grating_LR.started,grating_LL.started,noise_UR.started,noise_UL.started,noise_LR.started,noise_LL.started,roi_2.stopped,grating_UR.stopped,grating_UL.stopped,grating_LR.stopped,grating_LL.stopped,noise_UR.stopped,noise_UL.stopped,noise_LR.stopped,noise_LL.stopped,outframe,roi_2.numLooks,roi_2.timesOn,roi_2.timesOff,text_2.started,text_2.stopped,probedcontrast,key_resp.started,respdetect,relevantContrast,correctDetect,TorFdetect,respCWorCCW,key_resp.keys,key_resp.rt,feedback_display_.started,participantNo,blockNo,date,expName,psychopyVersion,frameRate,
1,0,0.0,6.1,0,0,0,0,82,4.009995609521866e-05,4.009995609521866e-05,114.01334680011496,116.03683570004068,116.03683570004068,116.65550219989382,116.65550219989382,117.17448320006952,315,45,117.17448320006952,117.17448320006952,117.17448320006952,117.17448320006952,117.17448320006952,117.17448320006952,117.17448320006952,117.17448320006952,117.17448320006952,117.52092860010453,117.52092860010453,117.52092860010453,117.52092860010453,117.52092860010453,117.52092860010453,117.52092860010453,117.52092860010453,117.52092860010453,23,0,,,117.52092860010453,117.72154950001277,0.0,117.72154950001277,0,0.0,0,1,1000,num_1,0.7407343999948353,,30,1,2026-03-12_10h18.10.011,2026A_exp2,2022.2.4,59.94377275962529,
1000,1,0.0,4.9,1,0,1,1,78,,,,,118.4886163000483,119.1392759999726,119.1392759999726,119.64026300003752,45,315,119.64026300003752,119.64026300003752,119.64026300003752,119.64026300003752,119.64026300003752,119.64026300003752,119.64026300003752,119.64026300003752,119.64026300003752,120.00677140010521,120.00677140010521,120.00677140010521,120.00677140010521,120.00677140010521,120.00677140010521,120.00677140010521,120.00677140010521,120.00677140010521,23,0,,,120.00677140010521,120.21295509999618,1000,120.21295509999618,1000,1000,1000,1000,1,num_2,1.009018799988553,,30,1,2026-03-12_10h18.10.011,2026A_exp2,2022.2.4,59.94377275962529,
1000,1,0.0,0.0,1,0,2,2,56,,,,,121.2410812000744,121.89167300006375,121.89167300006375,122.39287610002793,315,45,122.39287610002793,122.39287610002793,122.39287610002793,122.39287610002793,122.39287610002793,122.39287610002793,122.39287610002793,122.39287610002793,122.39287610002793,122.74282600008883,122.74282600008883,122.74282600008883,122.74282600008883,122.74282600008883,122.74282600008883,122.74282600008883,122.74282600008883,122.74282600008883,22,0,,,122.74282600008883,122.94535940000787,1000,122.94535940000787,1000,1000,1000,1000,1,num_2,1.2772226999513805,,30,1,2026-03-12_10h18.10.011,2026A_exp2,2022.2.4,59.94377275962529,
1,0,6.1,3.7,0,0,3,3,31,,,,,124.24447740009055,124.89502920000814,124.89502920000814,125.37942870007828,45,315,125.37942870007828,125.37942870007828,125.37942870007828,125.37942870007828,125.37942870007828,125.37942870007828,125.37942870007828,125.37942870007828,125.37942870007828,125.74577379995026,125.74577379995026,125.74577379995026,125.74577379995026,125.74577379995026,125.74577379995026,125.74577379995026,125.74577379995026,125.74577379995026,23,0,,,125.74577379995026,125.94594249990769,6.1,125.94594249990769,0,6.1,1,0,1000,num_1,0.723127800039947,,30,1,2026-03-12_10h18.10.011,2026A_exp2,2022.2.4,59.94377275962529,
1000,1,4.9,0.0,0,0,4,4,50,,,,,126.6966407999862,127.34753979998641,127.34753979998641,127.83189220004715,45,45,127.83189220004715,127.83189220004715,127.83189220004715,127.83189220004715,127.83189220004715,127.83189220004715,127.83189220004715,127.83189220004715,127.83189220004715,128.19823949993588,128.19823949993588,128.19823949993588,128.19823949993588,128.19823949993588,128.19823949993588,128.19823949993588,128.19823949993588,128.19823949993588,23,0,,,128.19823949993588,128.40088100009598,1000,128.40088100009598,1000,1000,1000,1000,1,num_2,0.9893223997205496,,30,1,2026-03-12_10h18.10.011,2026A_exp2,2022.2.4,59.94377275962529,
1000,1,0.0,0.0,0,0,5,5,72,,,,,129.41600299999118,130.06661750003695,130.06661750003695,130.56790819996968,45,315,130.56790819996968,130.56790819996968,130.56790819996968,130.56790819996968,130.56790819996968,130.56790819996968,130.56790819996968,130.56790819996968,130.56790819996968,130.93428010004573,130.93428010004573,130.93428010004573,130.93428010004573,130.93428010004573,130.93428010004573,130.93428010004573,130.93428010004573,130.93428010004573,23,0,,,130.93428010004573,131.136978500057,1000,131.136978500057,1000,1000,1000,1000,0,num_3,0.9246857997495681,,30,1,2026-03-12_10h18.10.011,2026A_exp2,2022.2.4,59.94377275962529,
1000,1,0.0,6.1,1,0,6,6,69,,,,,132.08553849998862,132.7360813000705,132.7360813000705,133.2371960999444,45,315,133.2371960999444,133.2371960999444,133.2371960999444,133.2371960999444,133.2371960999444,133.2371960999444,133.2371960999444,133.2371960999444,133.2371960999444,133.58700819988735,133.58700819988735,133.58700819988735,133.58700819988735,133.58700819988735,133.58700819988735,133.58700819988735,133.58700819988735,133.58700819988735,22,0,,,133.58700819988735,133.78969260002486,1000,133.78969260002486,1000,1000,1000,1000,1,num_2,1.0959178998600692,,30,1,2026-03-12_10h18.10.011,2026A_exp2,2022.2.4,59.94377275962529,
1000,1,0.0,6.1,1,0,7,7,19,,,,,134.90496610011905,135.55564470007084,135.55564470007084,136.05678119999357,315,45,136.05678119999357,136.05678119999357,136.05678119999357,136.05678119999357,136.05678119999357,136.05678119999357,136.05678119999357,136.05678119999357,136.05678119999357,136.42306550010107,136.42306550010107,136.42306550010107,136.42306550010107,136.42306550010107,136.42306550010107,136.42306550010107,136.42306550010107,136.42306550010107,23,0,,,136.42306550010107,136.62552349991165,1000,136.62552349991165,1000,1000,1000,1000,1,num_2,0.46008790004998446,,30,1,2026-03-12_10h18.10.011,2026A_exp2,2022.2.4,59.94377275962529,
0,0,0.0,0.0,0,0,8,8,22,,,,,137.1072386999149,137.75782920001075,137.75782920001075,138.25880570011213,45,45,138.25880570011213,138.25880570011213,138.25880570011213,138.25880570011213,138.25880570011213,138.25880570011213,138.25880570011213,138.25880570011213,138.25880570011213,138.60870549990796,138.60870549990796,138.60870549990796,138.60870549990796,138.60870549990796,138.60870549990796,138.60870549990796,138.60870549990796,138.60870549990796,22,0,,,138.60870549990796,138.8088295001071,0.0,138.8088295001071,0,0.0,0,1,1000,num_1,0.9006875997874886,,30,1,2026-03-12_10h18.10.011,2026A_exp2,2022.2.4,59.94377275962529,
1,0,0.0,0.0,1,0,9,9,41,,,,,139.72655569994822,140.37715360010043,140.37715360010043,140.86143800010905,45,315,140.86143800010905,140.86143800010905,140.86143800010905,140.86143800010905,140.86143800010905,140.86143800010905,140.86143800010905,140.86143800010905,140.86143800010905,141.2279177000746,141.2279177000746,141.2279177000746,141.2279177000746,141.2279177000746,141.2279177000746,141.2279177000746,141.2279177000746,141.2279177000746,23,0,,,141.2279177000746,141.42813859996386,0.0,141.42813859996386,0,0.0,0,1,1000,num_1,0.3214244998525828,,30,1,2026-03-12_10h18.10.011,2026A_exp2,2022.2.4,59.94377275962529,
1000,1,3.7,4.9,0,0,10,10,64,,,,,141.77850540005602,142.41253930004314,142.41253930004314,142.91354339988902,315,315,142.91354339988902,142.91354339988902,142.91354339988902,142.91354339988902,142.91354339988902,142.91354339988902,142.91354339988902,142.91354339988902,142.91354339988902,143.27997149992734,143.27997149992734,143.27997149992734,143.27997149992734,143.27997149992734,143.27997149992734,143.27997149992734,143.27997149992734,143.27997149992734,23,0,,,143.27997149992734,143.48284940002486,1000,143.48284940002486,1000,1000,1000,1000,1,num_2,0.8503926999401301,,30,1,2026-03-12_10h18.10.011,2026A_exp2,2022.2.4,59.94377275962529,
1,0,4.9,6.1,0,0,11,11,33,,,,,144.36448039999232,145.01510809990577,145.01510809990577,145.51625319989398,315,315,145.51625319989398,145.51625319989398,145.51625319989398,145.51625319989398,145.51625319989398,145.51625319989398,145.51625319989398,145.51625319989398,145.51625319989398,145.88260230002925,145.88260230002925,145.88260230002925,145.88260230002925,145.88260230002925,145.88260230002925,145.88260230002925,145.88260230002925,145.88260230002925,23,0,,,145.88260230002925,146.08287000004202,4.9,146.08287000004202,1,4.9,1,1,1000,num_4,0.9640535998623818,,30,1,2026-03-12_10h18.10.011,2026A_exp2,2022.2.4,59.94377275962529,
1000,1,0.0,0.0,0,0,12,12,87,,,,,147.06719240010716,147.7180693000555,147.7180693000555,148.20806049997918,315,45,148.20806049997918,148.20806049997918,148.20806049997918,148.20806049997918,148.20806049997918,148.20806049997918,148.20806049997918,148.20806049997918,148.20806049997918,148.56870410009287,148.56870410009287,148.56870410009287,148.56870410009287,148.56870410009287,148.56870410009287,148.56870410009287,148.56870410009287,148.56870410009287,23,0,,,148.56870410009287,148.77186130010523,1000,148.77186130010523,1000,1000,1000,1000,1,num_2,1.0418916998896748,,30,1,2026-03-12_10h18.10.011,2026A_exp2,2022.2.4,59.94377275962529,
0,0,4.9,4.9,1,0,13,13,48,,,,,149.83659399999306,150.4872314000968,150.4872314000968,150.98851389996707,45,315,150.98851389996707,150.98851389996707,150.98851389996707,150.98851389996707,150.98851389996707,150.98851389996707,150.98851389996707,150.98851389996707,150.98851389996707,151.33801009994932,151.33801009994932,151.33801009994932,151.33801009994932,151.33801009994932,151.33801009994932,151.33801009994932,151.33801009994932,151.33801009994932,22,0,,,151.33801009994932,151.55090159992687,4.9,151.55090159992687,0,4.9,1,0,1000,num_1,0.8941947997082025,,30,1,2026-03-12_10h18.10.011,2026A_exp2,2022.2.4,59.94377275962529,
1,0,0.0,0.0,0,0,14,14,34,,,,,152.47261930000968,153.10636479989626,153.10636479989626,153.60764169995673,45,45,153.60764169995673,153.60764169995673,153.60764169995673,153.60764169995673,153.60764169995673,153.60764169995673,153.60764169995673,153.60764169995673,153.60764169995673,153.97390490002,153.97390490002,153.97390490002,153.97390490002,153.97390490002,153.97390490002,153.97390490002,153.97390490002,153.97390490002,23,0,,,153.97390490002,154.17433609999716,0.0,154.17433609999716,0,0.0,0,1,1000,num_1,0.8560369000770152,,30,1,2026-03-12_10h18.10.011,2026A_exp2,2022.2.4,59.94377275962529,
1000,1,0.0,0.0,1,0,15,15,40,,,,,155.05843330011703,155.70914639998227,155.70914639998227,156.19358470011503,45,315,156.19358470011503,156.19358470011503,156.19358470011503,156.19358470011503,156.19358470011503,156.19358470011503,156.19358470011503,156.19358470011503,156.19358470011503,156.5598734000232,156.5598734000232,156.5598734000232,156.5598734000232,156.5598734000232,156.5598734000232,156.5598734000232,156.5598734000232,156.5598734000232,23,0,,,156.5598734000232,156.7626648999285,1000,156.7626648999285,1000,1000,1000,1000,1,num_2,0.7876730998978019,,30,1,2026-03-12_10h18.10.011,2026A_exp2,2022.2.4,59.94377275962529,
1000,1,3.7,4.9,0,0,16,16,80,,,,,157.57764069992118,158.2282173000276,158.2282173000276,158.729301400017,45,315,158.729301400017,158.729301400017,158.729301400017,158.729301400017,158.729301400017,158.729301400017,158.729301400017,158.729301400017,158.729301400017,159.07897950010374,159.07897950010374,159.07897950010374,159.07897950010374,159.07897950010374,159.07897950010374,159.07897950010374,159.07897950010374,159.07897950010374,22,0,,,159.07897950010374,159.28176219994202,1000,159.29604719998315,1000,1000,1000,1000,1,num_2,0.6774818999692798,,30,1,2026-03-12_10h18.10.011,2026A_exp2,2022.2.4,59.94377275962529,
1000,1,0.0,4.9,0,0,17,17,74,,,,,159.99679909995757,160.64723760006018,160.64723760006018,161.14838610007428,315,45,161.14838610007428,161.14838610007428,161.14838610007428,161.14838610007428,161.14838610007428,161.14838610007428,161.14838610007428,161.14838610007428,161.14838610007428,161.49807689990848,161.49807689990848,161.49807689990848,161.49807689990848,161.49807689990848,161.49807689990848,161.49807689990848,161.49807689990848,161.49807689990848,22,0,,,161.49807689990848,161.69816399994306,1000,161.71493989997543,1000,1000,1000,1000,1,num_2,0.33886849973350763,,30,1,2026-03-12_10h18.10.011,2026A_exp2,2022.2.4,59.94377275962529,
1,0,3.7,0.0,1,0,18,18,28,,,,,162.08228860003874,162.73274510004558,162.73274510004558,163.21726280008443,45,45,163.21726280008443,163.21726280008443,163.21726280008443,163.21726280008443,163.21726280008443,163.21726280008443,163.21726280008443,163.21726280008443,163.21726280008443,163.58355319988914,163.58355319988914,163.58355319988914,163.58355319988914,163.58355319988914,163.58355319988914,163.58355319988914,163.58355319988914,163.58355319988914,23,0,,,163.58355319988914,163.783891600091,0.0,163.783891600091,0,0.0,0,1,1000,num_1,0.7338415996637195,,30,1,2026-03-12_10h18.10.011,2026A_exp2,2022.2.4,59.94377275962529,
1,0,3.7,6.1,1,0,19,19,77,,,,,164.5346917998977,165.1851884999778,165.1851884999778,165.66967380000278,315,45,165.66967380000278,165.66967380000278,165.66967380000278,165.66967380000278,165.66967380000278,165.66967380000278,165.66967380000278,165.66967380000278,165.66967380000278,166.0360145000741,166.0360145000741,166.0360145000741,166.0360145000741,166.0360145000741,166.0360145000741,166.0360145000741,166.0360145000741,166.0360145000741,23,0,,,166.0360145000741,166.23625870002434,6.1,166.23625870002434,0,6.1,1,0,1000,num_1,2.5299988000188023,,30,1,2026-03-12_10h18.10.011,2026A_exp2,2022.2.4,59.94377275962529,
1,0,3.7,0.0,1,0,20,20,12,,,,,168.78883130010217,169.43950249999762,169.43950249999762,169.94099200004712,45,315,169.94099200004712,169.94099200004712,169.94099200004712,169.94099200004712,169.94099200004712,169.94099200004712,169.94099200004712,169.94099200004712,169.94099200004712,170.29053030000068,170.29053030000068,170.29053030000068,170.29053030000068,170.29053030000068,170.29053030000068,170.29053030000068,170.29053030000068,170.29053030000068,23,0,,,170.29053030000068,170.49556689988822,0.0,170.49556689988822,0,0.0,0,1,1000,num_1,0.5907943998463452,,30,1,2026-03-12_10h18.10.011,2026A_exp2,2022.2.4,59.94377275962529,
1,0,0.0,0.0,0,0,21,21,51,,,,,171.10765610006638,171.75863020005636,171.75863020005636,172.2596152999904,315,315,172.2596152999904,172.2596152999904,172.2596152999904,172.2596152999904,172.2596152999904,172.2596152999904,172.2596152999904,172.2596152999904,172.2596152999904,172.6259385999292,172.6259385999292,172.6259385999292,172.6259385999292,172.6259385999292,172.6259385999292,172.6259385999292,172.6259385999292,172.6259385999292,23,0,,,172.6259385999292,172.82623000000603,0.0,172.82623000000603,0,0.0,0,1,1000,num_1,0.7792193999048322,,30,1,2026-03-12_10h18.10.011,2026A_exp2,2022.2.4,59.94377275962529,
0,0,6.1,6.1,0,0,22,22,42,,,,,173.6271263998933,174.2775810000021,174.2775810000021,174.7620516999159,315,45,174.7620516999159,174.7620516999159,174.7620516999159,174.7620516999159,174.7620516999159,174.7620516999159,174.7620516999159,174.7620516999159,174.7620516999159,175.12848700000905,175.12848700000905,175.12848700000905,175.12848700000905,175.12848700000905,175.12848700000905,175.12848700000905,175.12848700000905,175.12848700000905,23,0,,,175.12848700000905,175.32866979995742,6.1,175.32866979995742,1,6.1,1,1,1000,num_4,1.0929119996726513,,30,1,2026-03-12_10h18.10.011,2026A_exp2,2022.2.4,59.94377275962529,
1,0,0.0,0.0,1,0,23,23,24,,,,,176.44643309991807,177.0972305999603,177.0972305999603,177.5814696000889,315,45,177.5814696000889,177.5814696000889,177.5814696000889,177.5814696000889,177.5814696000889,177.5814696000889,177.5814696000889,177.5814696000889,177.5814696000889,177.947843400063,177.947843400063,177.947843400063,177.947843400063,177.947843400063,177.947843400063,177.947843400063,177.947843400063,177.947843400063,23,0,,,177.947843400063,178.14800460007973,0.0,178.14800460007973,0,0.0,0,1,1000,num_1,1.0489207000937313,,30,1,2026-03-12_10h18.10.011,2026A_exp2,2022.2.4,59.94377275962529,
1,0,3.7,0.0,1,0,24,24,11,,,,,179.21592450002208,179.86666460009292,179.86666460009292,180.35105290007778,45,315,180.35105290007778,180.35105290007778,180.35105290007778,180.35105290007778,180.35105290007778,180.35105290007778,180.35105290007778,180.35105290007778,180.35105290007778,180.71750820009038,180.71750820009038,180.71750820009038,180.71750820009038,180.71750820009038,180.71750820009038,180.71750820009038,180.71750820009038,180.71750820009038,23,0,,,180.71750820009038,180.9175642998889,0.0,180.9175642998889,0,0.0,0,1,1000,num_1,0.8481276999227703,,30,1,2026-03-12_10h18.10.011,2026A_exp2,2022.2.4,59.94377275962529,
1,0,0.0,4.9,1,0,25,25,1,,,,,181.78536129998975,182.43578599998727,182.43578599998727,182.92010509991087,45,45,182.92010509991087,182.92010509991087,182.92010509991087,182.92010509991087,182.92010509991087,182.92010509991087,182.92010509991087,182.92010509991087,182.92010509991087,183.28658349998295,183.28658349998295,183.28658349998295,183.28658349998295,183.28658349998295,183.28658349998295,183.28658349998295,183.28658349998295,183.28658349998295,23,0,,,183.28658349998295,183.4869051000569,4.9,183.4869051000569,1,4.9,1,1,1000,num_4,0.8067575998138636,,30,1,2026-03-12_10h18.10.011,2026A_exp2,2022.2.4,59.94377275962529,
1000,1,6.1,4.9,0,0,26,26,68,,,,,184.32067720009945,184.95499500003643,184.95499500003643,185.45603109989315,315,45,185.45603109989315,185.45603109989315,185.45603109989315,185.45603109989315,185.45603109989315,185.45603109989315,185.45603109989315,185.45603109989315,185.45603109989315,185.82253329991363,185.82253329991363,185.82253329991363,185.82253329991363,185.82253329991363,185.82253329991363,185.82253329991363,185.82253329991363,185.82253329991363,23,0,,,185.82253329991363,186.02518899994902,1000,186.02518899994902,1000,1000,1000,1000,0,num_3,0.6843551998026669,,30,1,2026-03-12_10h18.10.011,2026A_exp2,2022.2.4,59.94377275962529,
1000,1,0.0,6.1,1,0,27,27,52,,,,,186.74013440008275,187.3908689999953,187.3908689999953,187.8919446999207,45,315,187.8919446999207,187.8919446999207,187.8919446999207,187.8919446999207,187.8919446999207,187.8919446999207,187.8919446999207,187.8919446999207,187.8919446999207,188.2415569999721,188.2415569999721,188.2415569999721,188.2415569999721,188.2415569999721,188.2415569999721,188.2415569999721,188.2415569999721,188.2415569999721,22,0,,,188.2415569999721,188.44378129998222,1000,188.44378129998222,1000,1000,1000,1000,1,num_2,0.5379887998569757,,30,1,2026-03-12_10h18.10.011,2026A_exp2,2022.2.4,59.94377275962529,
1,0,0.0,0.0,0,0,28,28,17,,,,,189.00901339994743,189.65977949998342,189.65977949998342,190.16075969999656,45,45,190.16075969999656,190.16075969999656,190.16075969999656,190.16075969999656,190.16075969999656,190.16075969999656,190.16075969999656,190.16075969999656,190.16075969999656,190.51057150005363,190.51057150005363,190.51057150005363,190.51057150005363,190.51057150005363,190.51057150005363,190.51057150005363,190.51057150005363,190.51057150005363,22,0,,,190.51057150005363,190.71074520004913,0.0,190.71074520004913,0,0.0,0,1,1000,num_1,0.6548912997823209,,30,1,2026-03-12_10h18.10.011,2026A_exp2,2022.2.4,59.94377275962529,
0,0,0.0,3.7,0,0,29,29,47,,,,,191.39481749990955,192.04527230001986,192.04527230001986,192.53011319995858,45,315,192.53011319995858,192.53011319995858,192.53011319995858,192.53011319995858,192.53011319995858,192.53011319995858,192.53011319995858,192.53011319995858,192.53011319995858,192.89612439996563,192.89612439996563,192.89612439996563,192.89612439996563,192.89612439996563,192.89612439996563,192.89612439996563,192.89612439996563,192.89612439996563,23,0,,,192.89612439996563,193.09663509996608,3.7,193.09663509996608,1,3.7,1,1,1000,num_4,1.3411282997112721,,30,1,2026-03-12_10h18.10.011,2026A_exp2,2022.2.4,59.94377275962529,
1000,1,6.1,4.9,0,0,30,30,49,,,,,194.46444729994982,195.10002729995176,195.10002729995176,195.5996232999023,315,315,195.5996232999023,195.5996232999023,195.5996232999023,195.5996232999023,195.5996232999023,195.5996232999023,195.5996232999023,195.5996232999023,195.5996232999023,195.9660859000869,195.9660859000869,195.9660859000869,195.9660859000869,195.9660859000869,195.9660859000869,195.9660859000869,195.9660859000869,195.9660859000869,23,0,,,195.9660859000869,196.16864249994978,1000,196.16864249994978,1000,1000,1000,1000,0,num_3,0.7576130998786539,,30,1,2026-03-12_10h18.10.011,2026A_exp2,2022.2.4,59.94377275962529,
1,0,4.9,3.7,0,0,31,31,63,,,,,196.95047729997896,197.58498609997332,197.58498609997332,198.1021159000229,45,45,198.1021159000229,198.1021159000229,198.1021159000229,198.1021159000229,198.1021159000229,198.1021159000229,198.1021159000229,198.1021159000229,198.1021159000229,198.45165809988976,198.45165809988976,198.45165809988976,198.45165809988976,198.45165809988976,198.45165809988976,198.45165809988976,198.45165809988976,198.45165809988976,22,0,,,198.45165809988976,198.65170360007323,4.9,198.66820620000362,0,4.9,1,0,1000,num_1,0.6976248999126256,,30,1,2026-03-12_10h18.10.011,2026A_exp2,2022.2.4,59.94377275962529,
0,0,0.0,4.9,0,0,32,32,14,,,,,199.3856889999006,200.0362631001044,200.0362631001044,200.53742370009422,315,315,200.53742370009422,200.53742370009422,200.53742370009422,200.53742370009422,200.53742370009422,200.53742370009422,200.53742370009422,200.53742370009422,200.53742370009422,200.88725550007075,200.88725550007075,200.88725550007075,200.88725550007075,200.88725550007075,200.88725550007075,200.88725550007075,200.88725550007075,200.88725550007075,22,0,,,200.88725550007075,201.08755129994825,4.9,201.1041427999735,1,4.9,1,1,1000,num_4,0.7095855998340994,,30,1,2026-03-12_10h18.10.011,2026A_exp2,2022.2.4,59.94377275962529,
1000,1,0.0,6.1,0,0,33,33,2,,,,,201.83899309998378,202.4893122999929,202.4893122999929,202.99025800009258,315,315,202.99025800009258,202.99025800009258,202.99025800009258,202.99025800009258,202.99025800009258,202.99025800009258,202.99025800009258,202.99025800009258,202.99025800009258,203.35693609993905,203.35693609993905,203.35693609993905,203.35693609993905,203.35693609993905,203.35693609993905,203.35693609993905,203.35693609993905,203.35693609993905,23,0,,,203.35693609993905,203.55930229998194,1000,203.55930229998194,1000,1000,1000,1000,1,num_2,0.7175478998105973,,30,1,2026-03-12_10h18.10.011,2026A_exp2,2022.2.4,59.94377275962529,
1000,1,0.0,6.1,0,0,34,34,75,,,,,204.30780810001306,204.95846719993278,204.95846719993278,205.45950659993105,45,315,205.45950659993105,205.45950659993105,205.45950659993105,205.45950659993105,205.45950659993105,205.45950659993105,205.45950659993105,205.45950659993105,205.45950659993105,205.82568849995732,205.82568849995732,205.82568849995732,205.82568849995732,205.82568849995732,205.82568849995732,205.82568849995732,205.82568849995732,205.82568849995732,23,0,,,205.82568849995732,206.02834609989077,1000,206.02834609989077,1000,1000,1000,1000,1,num_2,0.8329201000742614,,30,1,2026-03-12_10h18.10.011,2026A_exp2,2022.2.4,59.94377275962529,
1000,1,0.0,6.1,0,0,35,35,35,,,,,206.8768046000041,207.52759469999,207.52759469999,208.02858830010518,45,315,208.02858830010518,208.02858830010518,208.02858830010518,208.02858830010518,208.02858830010518,208.02858830010518,208.02858830010518,208.02858830010518,208.02858830010518,208.39494580007158,208.39494580007158,208.39494580007158,208.39494580007158,208.39494580007158,208.39494580007158,208.39494580007158,208.39494580007158,208.39494580007158,23,0,,,208.39494580007158,208.5976821000222,1000,208.5976821000222,1000,1000,1000,1000,1,num_2,0.69599310006015,,30,1,2026-03-12_10h18.10.011,2026A_exp2,2022.2.4,59.94377275962529,
1000,1,0.0,4.9,0,0,36,36,53,,,,,209.3127739999909,209.96343880007043,209.96343880007043,210.46447949996218,45,45,210.46447949996218,210.46447949996218,210.46447949996218,210.46447949996218,210.46447949996218,210.46447949996218,210.46447949996218,210.46447949996218,210.46447949996218,210.8309061001055,210.8309061001055,210.8309061001055,210.8309061001055,210.8309061001055,210.8309061001055,210.8309061001055,210.8309061001055,210.8309061001055,23,0,,,210.8309061001055,211.03287840005942,1000,211.03287840005942,1000,1000,1000,1000,1,num_2,0.6049399997573346,,30,1,2026-03-12_10h18.10.011,2026A_exp2,2022.2.4,59.94377275962529,
1000,1,0.0,4.9,1,0,37,37,55,,,,,211.66510180011392,212.31574019999243,212.31574019999243,212.81684469990432,45,45,212.81684469990432,212.81684469990432,212.81684469990432,212.81684469990432,212.81684469990432,212.81684469990432,212.81684469990432,212.81684469990432,212.81684469990432,213.1667386998888,213.1667386998888,213.1667386998888,213.1667386998888,213.1667386998888,213.1667386998888,213.1667386998888,213.1667386998888,213.1667386998888,22,0,,,213.1667386998888,213.36887790006585,1000,213.36887790006585,1000,1000,1000,1000,1,num_2,0.6930741998367012,,30,1,2026-03-12_10h18.10.011,2026A_exp2,2022.2.4,59.94377275962529,
0,0,0.0,0.0,1,0,38,38,38,,,,,214.08432190003805,214.73811429995112,214.73811429995112,215.23581309989095,315,45,215.23581309989095,215.23581309989095,215.23581309989095,215.23581309989095,215.23581309989095,215.23581309989095,215.23581309989095,215.23581309989095,215.23581309989095,215.60228820005432,215.60228820005432,215.60228820005432,215.60228820005432,215.60228820005432,215.60228820005432,215.60228820005432,215.60228820005432,215.60228820005432,23,0,,,215.60228820005432,215.80257649999112,0.0,215.80257649999112,0,0.0,0,1,1000,num_1,0.5145284999161959,,30,1,2026-03-12_10h18.10.011,2026A_exp2,2022.2.4,59.94377275962529,
1000,1,0.0,0.0,1,0,39,39,16,,,,,216.33640899998136,216.98700279998593,216.98700279998593,217.47151249996386,315,315,217.47151249996386,217.47151249996386,217.47151249996386,217.47151249996386,217.47151249996386,217.47151249996386,217.47151249996386,217.47151249996386,217.47151249996386,217.83787390007637,217.83787390007637,217.83787390007637,217.83787390007637,217.83787390007637,217.83787390007637,217.83787390007637,217.83787390007637,217.83787390007637,23,0,,,217.83787390007637,218.04047059989534,1000,218.04047059989534,1000,1000,1000,1000,1,num_2,0.765027099987492,,30,1,2026-03-12_10h18.10.011,2026A_exp2,2022.2.4,59.94377275962529,
1,0,3.7,0.0,0,0,40,40,8,,,,,218.82236100011505,219.4728794998955,219.4728794998955,219.97391719999723,45,45,219.97391719999723,219.97391719999723,219.97391719999723,219.97391719999723,219.97391719999723,219.97391719999723,219.97391719999723,219.97391719999723,219.97391719999723,220.34040350001305,220.34040350001305,220.34040350001305,220.34040350001305,220.34040350001305,220.34040350001305,220.34040350001305,220.34040350001305,220.34040350001305,23,0,,,220.34040350001305,220.5407028000336,3.7,220.5407028000336,0,3.7,1,0,1000,num_1,0.8894501999020576,,30,1,2026-03-12_10h18.10.011,2026A_exp2,2022.2.4,59.94377275962529,
1000,1,0.0,4.9,0,0,41,41,5,,,,,221.45823960006237,222.09370979992673,222.09370979992673,222.59749569999985,45,315,222.59749569999985,222.59749569999985,222.59749569999985,222.59749569999985,222.59749569999985,222.59749569999985,222.59749569999985,222.59749569999985,222.59749569999985,222.95950579992495,222.95950579992495,222.95950579992495,222.95950579992495,222.95950579992495,222.95950579992495,222.95950579992495,222.95950579992495,222.95950579992495,23,0,,,222.95950579992495,223.16433689999394,1000,223.16433689999394,1000,1000,1000,1000,1,num_2,0.7376108998432755,,30,1,2026-03-12_10h18.10.011,2026A_exp2,2022.2.4,59.94377275962529,
1,0,3.7,0.0,1,0,42,42,13,,,,,223.92732729995623,224.57790259993635,224.57790259993635,225.0623665000312,45,315,225.0623665000312,225.0623665000312,225.0623665000312,225.0623665000312,225.0623665000312,225.0623665000312,225.0623665000312,225.0623665000312,225.0623665000312,225.42871570005082,225.42871570005082,225.42871570005082,225.42871570005082,225.42871570005082,225.42871570005082,225.42871570005082,225.42871570005082,225.42871570005082,23,0,,,225.42871570005082,225.6290329999756,0.0,225.6290329999756,0,0.0,0,1,1000,num_1,0.7761342998128384,,30,1,2026-03-12_10h18.10.011,2026A_exp2,2022.2.4,59.94377275962529,
1000,1,3.7,0.0,1,0,43,43,88,,,,,226.42975770006888,227.08040590002201,227.08040590002201,227.56473909993656,315,45,227.56473909993656,227.56473909993656,227.56473909993656,227.56473909993656,227.56473909993656,227.56473909993656,227.56473909993656,227.56473909993656,227.56473909993656,227.9313564999029,227.9313564999029,227.9313564999029,227.9313564999029,227.9313564999029,227.9313564999029,227.9313564999029,227.9313564999029,227.9313564999029,23,0,,,227.9313564999029,228.1343404999934,1000,228.1343404999934,1000,1000,1000,1000,0,num_3,1.4796303999610245,,30,1,2026-03-12_10h18.10.011,2026A_exp2,2022.2.4,59.94377275962529,
1,0,3.7,4.9,0,0,44,44,76,,,,,229.6330891000107,230.283689300064,230.283689300064,230.78478330001235,45,315,230.78478330001235,230.78478330001235,230.78478330001235,230.78478330001235,230.78478330001235,230.78478330001235,230.78478330001235,230.78478330001235,230.78478330001235,231.15123139997013,231.15123139997013,231.15123139997013,231.15123139997013,231.15123139997013,231.15123139997013,231.15123139997013,231.15123139997013,231.15123139997013,23,0,,,231.15123139997013,231.35132119990885,3.7,231.35132119990885,0,3.7,1,0,1000,num_1,0.7019665997941047,,30,1,2026-03-12_10h18.10.011,2026A_exp2,2022.2.4,59.94377275962529,
1000,1,0.0,0.0,1,0,45,45,46,,,,,232.08533090003766,232.73612569994293,232.73612569994293,233.22050970001146,315,45,233.22050970001146,233.22050970001146,233.22050970001146,233.22050970001146,233.22050970001146,233.22050970001146,233.22050970001146,233.22050970001146,233.22050970001146,233.58697409997694,233.58697409997694,233.58697409997694,233.58697409997694,233.58697409997694,233.58697409997694,233.58697409997694,233.58697409997694,233.58697409997694,23,0,,,233.58697409997694,233.78908929997124,1000,233.78908929997124,1000,1000,1000,1000,1,num_2,0.6731345998123288,,30,1,2026-03-12_10h18.10.011,2026A_exp2,2022.2.4,59.94377275962529,
1,0,0.0,3.7,0,0,46,46,61,,,,,234.4880109000951,235.13839680003002,235.13839680003002,235.63966399990022,45,315,235.63966399990022,235.63966399990022,235.63966399990022,235.63966399990022,235.63966399990022,235.63966399990022,235.63966399990022,235.63966399990022,235.63966399990022,235.9892065001186,235.9892065001186,235.9892065001186,235.9892065001186,235.9892065001186,235.9892065001186,235.9892065001186,235.9892065001186,235.9892065001186,22,0,,,235.9892065001186,236.18964660004713,0.0,236.18964660004713,0,0.0,0,1,1000,num_1,0.6796434998977929,,30,1,2026-03-12_10h18.10.011,2026A_exp2,2022.2.4,59.94377275962529,
1000,1,0.0,3.7,1,0,47,47,65,,,,,236.89002149994485,237.54090170003474,237.54090170003474,238.04198929993436,45,45,238.04198929993436,238.04198929993436,238.04198929993436,238.04198929993436,238.04198929993436,238.04198929993436,238.04198929993436,238.04198929993436,238.04198929993436,238.39176869997755,238.39176869997755,238.39176869997755,238.39176869997755,238.39176869997755,238.39176869997755,238.39176869997755,238.39176869997755,238.39176869997755,22,0,,,238.39176869997755,238.5941578000784,1000,238.5941578000784,1000,1000,1000,1000,0,num_3,1.5477004998829216,,30,1,2026-03-12_10h18.10.011,2026A_exp2,2022.2.4,59.94377275962529,
1000,1,6.1,3.7,0,0,48,48,18,,,,,240.16025800001808,240.81079300004058,240.81079300004058,241.29512879997492,315,45,241.29512879997492,241.29512879997492,241.29512879997492,241.29512879997492,241.29512879997492,241.29512879997492,241.29512879997492,241.29512879997492,241.29512879997492,241.66169400000945,241.66169400000945,241.66169400000945,241.66169400000945,241.66169400000945,241.66169400000945,241.66169400000945,241.66169400000945,241.66169400000945,23,0,,,241.66169400000945,241.86408139998093,1000,241.86408139998093,1000,1000,1000,1000,0,num_3,0.6851762998849154,,30,1,2026-03-12_10h18.10.011,2026A_exp2,2022.2.4,59.94377275962529,
1,0,3.7,4.9,1,0,49,49,71,,,,,242.5792545999866,243.22996039991267,243.22996039991267,243.73108680010773,45,45,243.73108680010773,243.73108680010773,243.73108680010773,243.73108680010773,243.73108680010773,243.73108680010773,243.73108680010773,243.73108680010773,243.73108680010773,244.08085769996978,244.08085769996978,244.08085769996978,244.08085769996978,244.08085769996978,244.08085769996978,244.08085769996978,244.08085769996978,244.08085769996978,22,0,,,244.08085769996978,244.28097929991782,4.9,244.28097929991782,1,4.9,1,1,1000,num_4,0.8843775999266654,,30,1,2026-03-12_10h18.10.011,2026A_exp2,2022.2.4,59.94377275962529,
1000,1,0.0,0.0,0,0,50,50,6,,,,,245.18194380006753,245.8326151999645,245.8326151999645,246.33347510010935,45,315,246.33347510010935,246.33347510010935,246.33347510010935,246.33347510010935,246.33347510010935,246.33347510010935,246.33347510010935,246.33347510010935,246.33347510010935,246.68346170010045,246.68346170010045,246.68346170010045,246.68346170010045,246.68346170010045,246.68346170010045,246.68346170010045,246.68346170010045,246.68346170010045,22,0,,,246.68346170010045,246.88619729992934,1000,246.88619729992934,1000,1000,1000,1000,1,num_2,0.9195717999245971,,30,1,2026-03-12_10h18.10.011,2026A_exp2,2022.2.4,59.94377275962529,
1000,1,0.0,0.0,1,0,51,51,60,,,,,247.8347682999447,248.48516770009883,248.48516770009883,248.9862323999405,45,315,248.9862323999405,248.9862323999405,248.9862323999405,248.9862323999405,248.9862323999405,248.9862323999405,248.9862323999405,248.9862323999405,248.9862323999405,249.33610319998115,249.33610319998115,249.33610319998115,249.33610319998115,249.33610319998115,249.33610319998115,249.33610319998115,249.33610319998115,249.33610319998115,22,0,,,249.33610319998115,249.53889780002646,1000,249.53889780002646,1000,1000,1000,1000,1,num_2,1.5301681000273675,,30,1,2026-03-12_10h18.10.011,2026A_exp2,2022.2.4,59.94377275962529,
1,0,4.9,3.7,0,0,52,52,9,,,,,251.08789280010387,251.73851830000058,251.73851830000058,252.23926679999568,315,45,252.23926679999568,252.23926679999568,252.23926679999568,252.23926679999568,252.23926679999568,252.23926679999568,252.23926679999568,252.23926679999568,252.23926679999568,252.6059844000265,252.6059844000265,252.6059844000265,252.6059844000265,252.6059844000265,252.6059844000265,252.6059844000265,252.6059844000265,252.6059844000265,23,0,,,252.6059844000265,252.80615690001287,4.9,252.80615690001287,0,4.9,1,0,1000,num_1,0.7187139000743628,,30,1,2026-03-12_10h18.10.011,2026A_exp2,2022.2.4,59.94377275962529,
1,0,6.1,4.9,0,0,53,53,81,,,,,253.54082090011798,254.19099029991776,254.19099029991776,254.69199749990366,45,45,254.69199749990366,254.69199749990366,254.69199749990366,254.69199749990366,254.69199749990366,254.69199749990366,254.69199749990366,254.69199749990366,254.69199749990366,255.05835069995373,255.05835069995373,255.05835069995373,255.05835069995373,255.05835069995373,255.05835069995373,255.05835069995373,255.05835069995373,255.05835069995373,23,0,,,255.05835069995373,255.25870259990916,6.1,255.25870259990916,1,6.1,1,1,1000,num_4,0.8667720998637378,,30,1,2026-03-12_10h18.10.011,2026A_exp2,2022.2.4,59.94377275962529,
1,0,4.9,0.0,0,0,54,54,4,,,,,256.14311360009015,256.79350970010273,256.79350970010273,257.27786229993217,315,45,257.27786229993217,257.27786229993217,257.27786229993217,257.27786229993217,257.27786229993217,257.27786229993217,257.27786229993217,257.27786229993217,257.27786229993217,257.6442426000722,257.6442426000722,257.6442426000722,257.6442426000722,257.6442426000722,257.6442426000722,257.6442426000722,257.6442426000722,257.6442426000722,23,0,,,257.6442426000722,257.8445979000535,4.9,257.8445979000535,1,4.9,1,1,1000,num_4,3.2811543997377157,,30,1,2026-03-12_10h18.10.011,2026A_exp2,2022.2.4,59.94377275962529,
1000,1,6.1,0.0,0,0,55,55,89,,,,,261.1477886000648,261.7985191999469,261.7985191999469,262.2830600000452,315,45,262.2830600000452,262.2830600000452,262.2830600000452,262.2830600000452,262.2830600000452,262.2830600000452,262.2830600000452,262.2830600000452,262.2830600000452,262.6493226001039,262.6493226001039,262.6493226001039,262.6493226001039,262.6493226001039,262.6493226001039,262.6493226001039,262.6493226001039,262.6493226001039,23,0,,,262.6493226001039,262.85217710002325,1000,262.85217710002325,1000,1000,1000,1000,0,num_3,0.7932987997774035,,30,1,2026-03-12_10h18.10.011,2026A_exp2,2022.2.4,59.94377275962529,
1000,1,0.0,0.0,0,0,56,56,37,,,,,263.6671871000435,264.3177742001135,264.3177742001135,264.8187649000902,315,45,264.8187649000902,264.8187649000902,264.8187649000902,264.8187649000902,264.8187649000902,264.8187649000902,264.8187649000902,264.8187649000902,264.8187649000902,265.18516199989244,265.18516199989244,265.18516199989244,265.18516199989244,265.18516199989244,265.18516199989244,265.18516199989244,265.18516199989244,265.18516199989244,23,0,,,265.18516199989244,265.39022949989885,1000,265.39022949989885,1000,1000,1000,1000,1,num_2,0.8790818999987096,,30,1,2026-03-12_10h18.10.011,2026A_exp2,2022.2.4,59.94377275962529,
0,0,3.7,6.1,0,0,57,57,73,,,,,266.2862893000711,266.93700910010375,266.93700910010375,267.4379777999129,315,45,267.4379777999129,267.4379777999129,267.4379777999129,267.4379777999129,267.4379777999129,267.4379777999129,267.4379777999129,267.4379777999129,267.4379777999129,267.787760599982,267.787760599982,267.787760599982,267.787760599982,267.787760599982,267.787760599982,267.787760599982,267.787760599982,267.787760599982,22,0,,,267.787760599982,267.9881160000805,6.1,267.9881160000805,1,6.1,1,1,1000,num_4,0.7622709998395294,,30,1,2026-03-12_10h18.10.011,2026A_exp2,2022.2.4,59.94377275962529,
1,0,4.9,3.7,1,0,58,58,10,,,,,268.772174899932,269.42796109989285,269.42796109989285,269.90723249991424,315,315,269.90723249991424,269.90723249991424,269.90723249991424,269.90723249991424,269.90723249991424,269.90723249991424,269.90723249991424,269.90723249991424,269.90723249991424,270.2735943000298,270.2735943000298,270.2735943000298,270.2735943000298,270.2735943000298,270.2735943000298,270.2735943000298,270.2735943000298,270.2735943000298,23,0,,,270.2735943000298,270.4736806000583,3.7,270.4736806000583,1,3.7,1,1,1000,num_4,1.9476121996995062,,30,1,2026-03-12_10h18.10.011,2026A_exp2,2022.2.4,59.94377275962529,
1000,1,0.0,0.0,0,0,59,59,15,,,,,272.44245250010863,273.09305649995804,273.09305649995804,273.5942804000806,315,315,273.5942804000806,273.5942804000806,273.5942804000806,273.5942804000806,273.5942804000806,273.5942804000806,273.5942804000806,273.5942804000806,273.5942804000806,273.96066209999844,273.96066209999844,273.96066209999844,273.96066209999844,273.96066209999844,273.96066209999844,273.96066209999844,273.96066209999844,273.96066209999844,23,0,,,273.96066209999844,274.16345279989764,1000,274.16345279989764,1000,1000,1000,1000,1,num_2,1.0738413999788463,,30,1,2026-03-12_10h18.10.011,2026A_exp2,2022.2.4,59.94377275962529,
1000,1,3.7,0.0,0,0,60,60,32,,,,,275.2619058000855,275.9127132000867,275.9127132000867,276.4137079999782,315,315,276.4137079999782,276.4137079999782,276.4137079999782,276.4137079999782,276.4137079999782,276.4137079999782,276.4137079999782,276.4137079999782,276.4137079999782,276.7634537999984,276.7634537999984,276.7634537999984,276.7634537999984,276.7634537999984,276.7634537999984,276.7634537999984,276.7634537999984,276.7634537999984,22,0,,,276.7634537999984,276.9662909999024,1000,276.9662909999024,1000,1000,1000,1000,0,num_3,1.6067623998969793,,30,1,2026-03-12_10h18.10.011,2026A_exp2,2022.2.4,59.94377275962529,
1,0,4.9,0.0,1,0,61,61,25,,,,,278.5987805998884,279.24931220011786,279.24931220011786,279.75022940011695,315,315,279.75022940011695,279.75022940011695,279.75022940011695,279.75022940011695,279.75022940011695,279.75022940011695,279.75022940011695,279.75022940011695,279.75022940011695,280.11687969998457,280.11687969998457,280.11687969998457,280.11687969998457,280.11687969998457,280.11687969998457,280.11687969998457,280.11687969998457,280.11687969998457,23,0,,,280.11687969998457,280.3169493000023,0.0,280.3169493000023,0,0.0,0,1,1000,num_1,1.0159172997809947,,30,1,2026-03-12_10h18.10.011,2026A_exp2,2022.2.4,59.94377275962529,
1000,1,0.0,4.9,1,0,62,62,79,,,,,281.35126330005005,282.0022505999077,282.0022505999077,282.4864338999614,315,315,282.4864338999614,282.4864338999614,282.4864338999614,282.4864338999614,282.4864338999614,282.4864338999614,282.4864338999614,282.4864338999614,282.4864338999614,282.8529340000823,282.8529340000823,282.8529340000823,282.8529340000823,282.8529340000823,282.8529340000823,282.8529340000823,282.8529340000823,282.8529340000823,23,0,,,282.8529340000823,283.0553653999232,1000,283.0553653999232,1000,1000,1000,1000,1,num_2,0.6787048997357488,,30,1,2026-03-12_10h18.10.011,2026A_exp2,2022.2.4,59.94377275962529,
1,0,4.9,4.9,0,0,63,63,84,,,,,283.7539146998897,284.4044095999561,284.4044095999561,284.9057668999303,315,315,284.9057668999303,284.9057668999303,284.9057668999303,284.9057668999303,284.9057668999303,284.9057668999303,284.9057668999303,284.9057668999303,284.9057668999303,285.27176519995555,285.27176519995555,285.27176519995555,285.27176519995555,285.27176519995555,285.27176519995555,285.27176519995555,285.27176519995555,285.27176519995555,23,0,,,285.27176519995555,285.47215920011513,4.9,285.47215920011513,1,4.9,1,1,1000,num_4,0.9094711998477578,,30,1,2026-03-12_10h18.10.011,2026A_exp2,2022.2.4,59.94377275962529,
0,0,6.1,0.0,1,0,64,64,30,,,,,286.4065684999805,287.0571153999772,287.0571153999772,287.5413993000984,315,315,287.5413993000984,287.5413993000984,287.5413993000984,287.5413993000984,287.5413993000984,287.5413993000984,287.5413993000984,287.5413993000984,287.5413993000984,287.9078397999983,287.9078397999983,287.9078397999983,287.9078397999983,287.9078397999983,287.9078397999983,287.9078397999983,287.9078397999983,287.9078397999983,23,0,,,287.9078397999983,288.1081423999276,6.1,288.1081423999276,1,6.1,1,1,1000,num_4,1.3937258997466415,,30,1,2026-03-12_10h18.10.011,2026A_exp2,2022.2.4,59.94377275962529,
1,0,4.9,3.7,1,0,65,65,26,,,,,289.52611929993145,290.1602656999603,290.1602656999603,290.6612448000815,45,315,290.6612448000815,290.6612448000815,290.6612448000815,290.6612448000815,290.6612448000815,290.6612448000815,290.6612448000815,290.6612448000815,290.6612448000815,291.02769650006667,291.02769650006667,291.02769650006667,291.02769650006667,291.02769650006667,291.02769650006667,291.02769650006667,291.02769650006667,291.02769650006667,23,0,,,291.02769650006667,291.22794630005956,3.7,291.22794630005956,1,3.7,1,1,1000,num_4,0.9694459999445826,,30,1,2026-03-12_10h18.10.011,2026A_exp2,2022.2.4,59.94377275962529,
1000,1,3.7,4.9,1,0,66,66,20,,,,,292.2287898999639,292.87961430009454,292.87961430009454,293.363948199898,45,315,293.363948199898,293.363948199898,293.363948199898,293.363948199898,293.363948199898,293.363948199898,293.363948199898,293.363948199898,293.363948199898,293.73037729994394,293.73037729994394,293.73037729994394,293.73037729994394,293.73037729994394,293.73037729994394,293.73037729994394,293.73037729994394,293.73037729994394,23,0,,,293.73037729994394,293.9307746000122,1000,293.9307746000122,1000,1000,1000,1000,1,num_2,0.6749421998392791,,30,1,2026-03-12_10h18.10.011,2026A_exp2,2022.2.4,59.94377275962529,
1,0,0.0,0.0,0,0,67,67,44,,,,,294.6313042000402,295.28201880003326,295.28201880003326,295.78299400000833,45,45,295.78299400000833,295.78299400000833,295.78299400000833,295.78299400000833,295.78299400000833,295.78299400000833,295.78299400000833,295.78299400000833,295.78299400000833,296.1495234000031,296.1495234000031,296.1495234000031,296.1495234000031,296.1495234000031,296.1495234000031,296.1495234000031,296.1495234000031,296.1495234000031,23,0,,,296.1495234000031,296.34981600008905,0.0,296.34981600008905,0,0.0,0,1,1000,num_1,0.5836531997192651,,30,1,2026-03-12_10h18.10.011,2026A_exp2,2022.2.4,59.94377275962529,
1000,1,3.7,6.1,1,0,68,68,29,,,,,296.9503943999298,297.6011477999855,297.6011477999855,298.08549600001425,45,315,298.08549600001425,298.08549600001425,298.08549600001425,298.08549600001425,298.08549600001425,298.08549600001425,298.08549600001425,298.08549600001425,298.08549600001425,298.4517429000698,298.4517429000698,298.4517429000698,298.4517429000698,298.4517429000698,298.4517429000698,298.4517429000698,298.4517429000698,298.4517429000698,23,0,,,298.4517429000698,298.6544445999898,1000,298.6544445999898,1000,1000,1000,1000,1,num_2,1.0628653999883682,,30,1,2026-03-12_10h18.10.011,2026A_exp2,2022.2.4,59.94377275962529,
0,0,0.0,0.0,0,0,69,69,70,,,,,299.73663900000975,300.3869539001025,300.3869539001025,300.8715059000533,45,315,300.8715059000533,300.8715059000533,300.8715059000533,300.8715059000533,300.8715059000533,300.8715059000533,300.8715059000533,300.8715059000533,300.8715059000533,301.2379332999699,301.2379332999699,301.2379332999699,301.2379332999699,301.2379332999699,301.2379332999699,301.2379332999699,301.2379332999699,301.2379332999699,23,0,,,301.2379332999699,301.4381331000477,0.0,301.4381331000477,0,0.0,0,1,1000,num_1,1.2795328998472542,,30,1,2026-03-12_10h18.10.011,2026A_exp2,2022.2.4,59.94377275962529,
1000,1,0.0,0.0,0,0,70,70,45,,,,,302.7393563000951,303.3901994000189,303.3901994000189,303.89108030009083,45,45,303.89108030009083,303.89108030009083,303.89108030009083,303.89108030009083,303.89108030009083,303.89108030009083,303.89108030009083,303.89108030009083,303.89108030009083,304.25735140009783,304.25735140009783,304.25735140009783,304.25735140009783,304.25735140009783,304.25735140009783,304.25735140009783,304.25735140009783,304.25735140009783,23,0,,,304.25735140009783,304.45948720001616,1000,304.45948720001616,1000,1000,1000,1000,1,num_2,0.9299577998463064,,30,1,2026-03-12_10h18.10.011,2026A_exp2,2022.2.4,59.94377275962529,
1,0,0.0,6.1,0,0,71,71,43,,,,,305.40889249998145,306.0593816000037,306.0593816000037,306.5604117999319,315,45,306.5604117999319,306.5604117999319,306.5604117999319,306.5604117999319,306.5604117999319,306.5604117999319,306.5604117999319,306.5604117999319,306.5604117999319,306.926909300033,306.926909300033,306.926909300033,306.926909300033,306.926909300033,306.926909300033,306.926909300033,306.926909300033,306.926909300033,23,0,,,306.926909300033,307.1272003999911,0.0,307.1272003999911,0,0.0,0,1,1000,num_1,0.7822264998685569,,30,1,2026-03-12_10h18.10.011,2026A_exp2,2022.2.4,59.94377275962529,
1000,1,0.0,0.0,0,0,72,72,36,,,,,307.9279213999398,308.56194930011407,308.56194930011407,309.06304970011115,45,45,309.06304970011115,309.06304970011115,309.06304970011115,309.06304970011115,309.06304970011115,309.06304970011115,309.06304970011115,309.06304970011115,309.06304970011115,309.42938639991917,309.42938639991917,309.42938639991917,309.42938639991917,309.42938639991917,309.42938639991917,309.42938639991917,309.42938639991917,309.42938639991917,23,0,,,309.42938639991917,309.6298517999239,1000,309.6298517999239,1000,1000,1000,1000,1,num_2,1.6156576999928802,,30,1,2026-03-12_10h18.10.011,2026A_exp2,2022.2.4,59.94377275962529,
1,0,6.1,6.1,0,0,73,73,27,,,,,311.264800200006,311.9153239999432,311.9153239999432,312.4164716999512,315,315,312.4164716999512,312.4164716999512,312.4164716999512,312.4164716999512,312.4164716999512,312.4164716999512,312.4164716999512,312.4164716999512,312.4164716999512,312.7827292000875,312.7827292000875,312.7827292000875,312.7827292000875,312.7827292000875,312.7827292000875,312.7827292000875,312.7827292000875,312.7827292000875,23,0,,,312.7827292000875,312.98296319996007,6.1,312.98296319996007,1,6.1,1,1,1000,num_4,2.2221021996811032,,30,1,2026-03-12_10h18.10.011,2026A_exp2,2022.2.4,59.94377275962529,
1000,1,0.0,0.0,1,0,74,74,23,,,,,315.2353825001046,315.8858998999931,315.8858998999931,316.3703560999129,45,45,316.3703560999129,316.3703560999129,316.3703560999129,316.3703560999129,316.3703560999129,316.3703560999129,316.3703560999129,316.3703560999129,316.3703560999129,316.7367376999464,316.7367376999464,316.7367376999464,316.7367376999464,316.7367376999464,316.7367376999464,316.7367376999464,316.7367376999464,316.7367376999464,23,0,,,316.7367376999464,316.9394320999272,1000,316.9394320999272,1000,1000,1000,1000,1,num_2,0.9061520998366177,,30,1,2026-03-12_10h18.10.011,2026A_exp2,2022.2.4,59.94377275962529,
1000,1,0.0,6.1,1,0,75,75,3,,,,,317.87136209988967,318.52185079990886,318.52185079990886,319.00622499990277,315,45,319.00622499990277,319.00622499990277,319.00622499990277,319.00622499990277,319.00622499990277,319.00622499990277,319.00622499990277,319.00622499990277,319.00622499990277,319.37269199988805,319.37269199988805,319.37269199988805,319.37269199988805,319.37269199988805,319.37269199988805,319.37269199988805,319.37269199988805,319.37269199988805,23,0,,,319.37269199988805,319.575110899983,1000,319.575110899983,1000,1000,1000,1000,1,num_2,1.0381640999112278,,30,1,2026-03-12_10h18.10.011,2026A_exp2,2022.2.4,59.94377275962529,
0,0,0.0,3.7,0,0,76,76,83,,,,,320.6408426000271,321.2913585000206,321.2913585000206,321.77567119989544,45,315,321.77567119989544,321.77567119989544,321.77567119989544,321.77567119989544,321.77567119989544,321.77567119989544,321.77567119989544,321.77567119989544,321.77567119989544,322.1421544998884,322.1421544998884,322.1421544998884,322.1421544998884,322.1421544998884,322.1421544998884,322.1421544998884,322.1421544998884,322.1421544998884,23,0,,,322.1421544998884,322.34245099988766,3.7,322.34245099988766,1,3.7,1,1,1000,num_4,0.6797582998406142,,30,1,2026-03-12_10h18.10.011,2026A_exp2,2022.2.4,59.94377275962529,
1000,1,0.0,3.7,0,0,77,77,57,,,,,323.0431594999973,323.69365240004845,323.69365240004845,324.17809850000776,45,45,324.17809850000776,324.17809850000776,324.17809850000776,324.17809850000776,324.17809850000776,324.17809850000776,324.17809850000776,324.17809850000776,324.17809850000776,324.54451579996385,324.54451579996385,324.54451579996385,324.54451579996385,324.54451579996385,324.54451579996385,324.54451579996385,324.54451579996385,324.54451579996385,23,0,,,324.54451579996385,324.746123699937,1000,324.746123699937,1000,1000,1000,1000,1,num_2,1.6269074999727309,,30,1,2026-03-12_10h18.10.011,2026A_exp2,2022.2.4,59.94377275962529,
1000,1,0.0,0.0,0,0,78,78,7,,,,,326.3965410999954,327.04710440011695,327.04710440011695,327.5314444999676,315,45,327.5314444999676,327.5314444999676,327.5314444999676,327.5314444999676,327.5314444999676,327.5314444999676,327.5314444999676,327.5314444999676,327.5314444999676,327.89799589989707,327.89799589989707,327.89799589989707,327.89799589989707,327.89799589989707,327.89799589989707,327.89799589989707,327.89799589989707,327.89799589989707,23,0,,,327.89799589989707,328.10038439999335,1000,328.10038439999335,1000,1000,1000,1000,1,num_2,0.8093097996897995,,30,1,2026-03-12_10h18.10.011,2026A_exp2,2022.2.4,59.94377275962529,
1000,1,0.0,6.1,0,0,79,79,85,,,,,328.93235510005616,329.582963099936,329.582963099936,330.0841079999227,45,45,330.0841079999227,330.0841079999227,330.0841079999227,330.0841079999227,330.0841079999227,330.0841079999227,330.0841079999227,330.0841079999227,330.0841079999227,330.4337142999284,330.4337142999284,330.4337142999284,330.4337142999284,330.4337142999284,330.4337142999284,330.4337142999284,330.4337142999284,330.4337142999284,22,0,,,330.4337142999284,330.6365539999679,1000,330.6365539999679,1000,1000,1000,1000,1,num_2,1.0811368997674435,,30,1,2026-03-12_10h18.10.011,2026A_exp2,2022.2.4,59.94377275962529,
1000,1,3.7,0.0,1,0,80,80,54,,,,,331.7351015000604,332.3857895000838,332.3857895000838,332.8867740998976,315,315,332.8867740998976,332.8867740998976,332.8867740998976,332.8867740998976,332.8867740998976,332.8867740998976,332.8867740998976,332.8867740998976,332.8867740998976,333.2367865999695,333.2367865999695,333.2367865999695,333.2367865999695,333.2367865999695,333.2367865999695,333.2367865999695,333.2367865999695,333.2367865999695,22,0,,,333.2367865999695,333.4499518000521,1000,333.4499518000521,1000,1000,1000,1000,0,num_3,0.7388726999051869,,30,1,2026-03-12_10h18.10.011,2026A_exp2,2022.2.4,59.94377275962529,
1000,1,0.0,0.0,0,0,81,81,67,,,,,334.2043530999217,334.8548264999408,334.8548264999408,335.35590579989366,315,45,335.35590579989366,335.35590579989366,335.35590579989366,335.35590579989366,335.35590579989366,335.35590579989366,335.35590579989366,335.35590579989366,335.35590579989366,335.72244839998893,335.72244839998893,335.72244839998893,335.72244839998893,335.72244839998893,335.72244839998893,335.72244839998893,335.72244839998893,335.72244839998893,23,0,,,335.72244839998893,335.92497930000536,1000,335.92497930000536,1000,1000,1000,1000,1,num_2,1.0086395998951048,,30,1,2026-03-12_10h18.10.011,2026A_exp2,2022.2.4,59.94377275962529,
1000,1,0.0,6.1,1,0,82,82,62,,,,,336.95716030010954,337.60778339998797,337.60778339998797,338.0920535000041,315,45,338.0920535000041,338.0920535000041,338.0920535000041,338.0920535000041,338.0920535000041,338.0920535000041,338.0920535000041,338.0920535000041,338.0920535000041,338.45847820001654,338.45847820001654,338.45847820001654,338.45847820001654,338.45847820001654,338.45847820001654,338.45847820001654,338.45847820001654,338.45847820001654,23,0,,,338.45847820001654,338.660738900071,1000,338.660738900071,1000,1000,1000,1000,1,num_2,0.6409189999103546,,30,1,2026-03-12_10h18.10.011,2026A_exp2,2022.2.4,59.94377275962529,
1,0,0.0,3.7,1,0,83,83,0,,,,,339.32615959993564,339.976491099922,339.976491099922,340.46114509995095,315,45,340.46114509995095,340.46114509995095,340.46114509995095,340.46114509995095,340.46114509995095,340.46114509995095,340.46114509995095,340.46114509995095,340.46114509995095,340.8274842998944,340.8274842998944,340.8274842998944,340.8274842998944,340.8274842998944,340.8274842998944,340.8274842998944,340.8274842998944,340.8274842998944,23,0,,,340.8274842998944,341.02771520009264,3.7,341.02771520009264,0,3.7,1,0,1000,num_1,1.5133680999279022,,30,1,2026-03-12_10h18.10.011,2026A_exp2,2022.2.4,59.94377275962529,
1000,1,0.0,6.1,0,0,84,84,58,,,,,342.56247840006836,343.1964203999378,343.1964203999378,343.6975750999991,45,45,343.6975750999991,343.6975750999991,343.6975750999991,343.6975750999991,343.6975750999991,343.6975750999991,343.6975750999991,343.6975750999991,343.6975750999991,344.0641403000336,344.0641403000336,344.0641403000336,344.0641403000336,344.0641403000336,344.0641403000336,344.0641403000336,344.0641403000336,344.0641403000336,23,0,,,344.0641403000336,344.2663135000039,1000,344.2663135000039,1000,1000,1000,1000,1,num_2,0.5309757997747511,,30,1,2026-03-12_10h18.10.011,2026A_exp2,2022.2.4,59.94377275962529,
1,0,0.0,0.0,1,0,85,85,21,,,,,344.8147585999686,345.4653918000404,345.4653918000404,345.96658280002885,45,315,345.96658280002885,345.96658280002885,345.96658280002885,345.96658280002885,345.96658280002885,345.96658280002885,345.96658280002885,345.96658280002885,345.96658280002885,346.33301219996065,346.33301219996065,346.33301219996065,346.33301219996065,346.33301219996065,346.33301219996065,346.33301219996065,346.33301219996065,346.33301219996065,23,0,,,346.33301219996065,346.5333219000604,0.0,346.5333219000604,0,0.0,0,1,1000,num_1,0.9756611997727305,,30,1,2026-03-12_10h18.10.011,2026A_exp2,2022.2.4,59.94377275962529,
1,0,4.9,4.9,0,0,86,86,39,,,,,347.5343178000767,348.16820490011014,348.16820490011014,348.66925060003996,315,45,348.66925060003996,348.66925060003996,348.66925060003996,348.66925060003996,348.66925060003996,348.66925060003996,348.66925060003996,348.66925060003996,348.66925060003996,349.035657600034,349.035657600034,349.035657600034,349.035657600034,349.035657600034,349.035657600034,349.035657600034,349.035657600034,349.035657600034,23,0,,,349.035657600034,349.2359931000974,4.9,349.2359931000974,1,4.9,1,1,1000,num_4,1.0423157999757677,,30,1,2026-03-12_10h18.10.011,2026A_exp2,2022.2.4,59.94377275962529,
1000,1,6.1,0.0,0,0,87,87,59,,,,,350.3036782001145,350.95430029998533,350.95430029998533,351.43880099989474,315,315,351.43880099989474,351.43880099989474,351.43880099989474,351.43880099989474,351.43880099989474,351.43880099989474,351.43880099989474,351.43880099989474,351.43880099989474,351.8052139999345,351.8052139999345,351.8052139999345,351.8052139999345,351.8052139999345,351.8052139999345,351.8052139999345,351.8052139999345,351.8052139999345,23,0,,,351.8052139999345,352.00773350009695,1000,352.00773350009695,1000,1000,1000,1000,0,num_3,0.7015028998721391,,30,1,2026-03-12_10h18.10.011,2026A_exp2,2022.2.4,59.94377275962529,
1,0,3.7,3.7,1,0,88,88,86,,,,,352.73945229989477,353.3901539000217,353.3901539000217,353.874256500043,45,315,353.874256500043,353.874256500043,353.874256500043,353.874256500043,353.874256500043,353.874256500043,353.874256500043,353.874256500043,353.874256500043,354.2409270000644,354.2409270000644,354.2409270000644,354.2409270000644,354.2409270000644,354.2409270000644,354.2409270000644,354.2409270000644,354.2409270000644,23,0,,,354.2409270000644,354.441127799917,3.7,354.441127799917,1,3.7,1,1,1000,num_4,2.1970087999943644,,30,1,2026-03-12_10h18.10.011,2026A_exp2,2022.2.4,59.94377275962529,
1000,1,3.7,0.0,0,0,89,89,66,,,,,356.6600210000761,357.3108045998961,357.3108045998961,357.79505730001256,45,315,357.79505730001256,357.79505730001256,357.79505730001256,357.79505730001256,357.79505730001256,357.79505730001256,357.79505730001256,357.79505730001256,357.79505730001256,358.1615780000575,358.1615780000575,358.1615780000575,358.1615780000575,358.1615780000575,358.1615780000575,358.1615780000575,358.1615780000575,358.1615780000575,23,0,,,358.1615780000575,358.3643201000523,1000,358.3643201000523,1000,1000,1000,1000,0,num_3,0.5053240999113768,,30,1,2026-03-12_10h18.10.011,2026A_exp2,2022.2.4,59.94377275962529,
,,,,,,,,,,,,,,,,,,,,,,,,,,,,,,,,,,,,,,,,,,,,,,,,,,,,358.90890490007587,,,,,,,
