validity,detectorcomp,contrastCW,contrastCCW,precueCWorCCW,block_80trials.thisRepN,block_80trials.thisTrialN,block_80trials.thisN,block_80trials.thisIndex,etRecord.started,etRecord.stopped,text.started,text.stopped,text_4.started,text_4.stopped,text_6.started,text_6.stopped,oriCW,oriCCW,roi_2.started,grating_UR.started,grating_UL.started,grating_LR.started,grating_LL.started,noise_UR.started,noise_UL.started,noise_LR.started,noise_LL.started,roi_2.stopped,grating_UR.stopped,grating_UL.stopped,grating_LR.stopped,grating_LL.stopped,noise_UR.stopped,noise_UL.stopped,noise_LR.stopped,noise_LL.stopped,outframe,roi_2.numLooks,roi_2.timesOn,roi_2.timesOff,text_2.started,text_2.stopped,probedcontrast,key_resp.started,respdetect,relevantContrast,correctDetect,TorFdetect,respCWorCCW,key_resp.keys,key_resp.rt,feedback_display_.started,participantNo,blockNo,date,expName,psychopyVersion,frameRate,
1,0,0.0,6.1,0,0,0,0,0,5.2499992307275534e-05,5.2499992307275534e-05,46.088666000025114,48.09075390000362,48.09075390000362,48.72487330000149,48.72487330000149,49.25592340002186,45,315,49.25592340002186,49.25592340002186,49.25592340002186,49.25592340002186,49.25592340002186,49.25592340002186,49.25592340002186,49.25592340002186,49.25592340002186,49.59232880000491,49.59232880000491,49.59232880000491,49.59232880000491,49.59232880000491,49.59232880000491,49.59232880000491,49.59232880000491,49.59232880000491,23,0,,,49.59232880000491,49.79277880000882,0.0,49.79277880000882,0,0.0,0,1,1000,num_1,0.6944848999846727,,18,12,2026-03-02_11h14.18.564,2026A_exp2,2022.2.4,60.03658629820367,
1,0,0.0,3.7,1,0,1,1,14,,,,,50.510100100014824,51.160661400004756,51.160661400004756,51.645162300002994,315,45,51.645162300002994,51.645162300002994,51.645162300002994,51.645162300002994,51.645162300002994,51.645162300002994,51.645162300002994,51.645162300002994,51.645162300002994,52.01147930001025,52.01147930001025,52.01147930001025,52.01147930001025,52.01147930001025,52.01147930001025,52.01147930001025,52.01147930001025,52.01147930001025,23,0,,,52.01147930001025,52.211673000012524,3.7,52.211673000012524,0,3.7,1,0,1000,num_1,0.6514730000053532,,18,12,2026-03-02_11h14.18.564,2026A_exp2,2022.2.4,60.03658629820367,
1000,1,4.9,4.9,1,0,2,2,68,,,,,52.87890880001942,53.5297794000071,53.5297794000071,54.01426270001684,45,45,54.01426270001684,54.01426270001684,54.01426270001684,54.01426270001684,54.01426270001684,54.01426270001684,54.01426270001684,54.01426270001684,54.01426270001684,54.38075690000551,54.38075690000551,54.38075690000551,54.38075690000551,54.38075690000551,54.38075690000551,54.38075690000551,54.38075690000551,54.38075690000551,23,0,,,54.38075690000551,54.581050900014816,1000,54.581050900014816,1000,1000,1000,1000,1,num_2,0.6345375000091735,,18,12,2026-03-02_11h14.18.564,2026A_exp2,2022.2.4,60.03658629820367,
1000,1,4.9,0.0,1,0,3,3,77,,,,,55.23141770000802,55.882136100000935,55.882136100000935,56.36637719999999,45,315,56.36637719999999,56.36637719999999,56.36637719999999,56.36637719999999,56.36637719999999,56.36637719999999,56.36637719999999,56.36637719999999,56.36637719999999,56.73319840000477,56.73319840000477,56.73319840000477,56.73319840000477,56.73319840000477,56.73319840000477,56.73319840000477,56.73319840000477,56.73319840000477,23,0,,,56.73319840000477,56.933226300025126,1000,56.933226300025126,1000,1000,1000,1000,0,num_3,0.545825999986846,,18,12,2026-03-02_11h14.18.564,2026A_exp2,2022.2.4,60.03658629820367,
1000,1,0.0,0.0,1,0,4,4,78,,,,,57.5005066000158,58.15104970001266,58.15104970001266,58.65230350001366,45,315,58.65230350001366,58.65230350001366,58.65230350001366,58.65230350001366,58.65230350001366,58.65230350001366,58.65230350001366,58.65230350001366,58.65230350001366,59.00178630001028,59.00178630001028,59.00178630001028,59.00178630001028,59.00178630001028,59.00178630001028,59.00178630001028,59.00178630001028,59.00178630001028,22,0,,,59.00178630001028,59.20238640002208,1000,59.20238640002208,1000,1000,1000,1000,0,num_3,0.6611231999995653,,18,12,2026-03-02_11h14.18.564,2026A_exp2,2022.2.4,60.03658629820367,
0,0,4.9,0.0,1,0,5,5,67,,,,,59.88616809999803,60.53664870001376,60.53664870001376,61.02125290001277,45,315,61.02125290001277,61.02125290001277,61.02125290001277,61.02125290001277,61.02125290001277,61.02125290001277,61.02125290001277,61.02125290001277,61.02125290001277,61.40449600000284,61.40449600000284,61.40449600000284,61.40449600000284,61.40449600000284,61.40449600000284,61.40449600000284,61.40449600000284,61.40449600000284,24,0,,,61.40449600000284,61.604356600000756,4.9,61.604356600000756,1,4.9,1,1,1000,num_4,0.7871721999836154,,18,12,2026-03-02_11h14.18.564,2026A_exp2,2022.2.4,60.03658629820367,
1,0,0.0,3.7,1,0,6,6,35,,,,,62.422091000014916,63.07251920000999,63.07251920000999,63.573701500019524,45,45,63.573701500019524,63.573701500019524,63.573701500019524,63.573701500019524,63.573701500019524,63.573701500019524,63.573701500019524,63.573701500019524,63.573701500019524,63.923332500009565,63.923332500009565,63.923332500009565,63.923332500009565,63.923332500009565,63.923332500009565,63.923332500009565,63.923332500009565,63.923332500009565,22,0,,,63.923332500009565,64.12381109999842,3.7,64.12381109999842,0,3.7,1,0,1000,num_1,0.7072459000046365,,18,12,2026-03-02_11h14.18.564,2026A_exp2,2022.2.4,60.03658629820367,
1000,1,3.7,0.0,0,0,7,7,56,,,,,64.85787090001395,65.50814000001992,65.50814000001992,66.0094611000095,315,315,66.0094611000095,66.0094611000095,66.0094611000095,66.0094611000095,66.0094611000095,66.0094611000095,66.0094611000095,66.0094611000095,66.0094611000095,66.35921029999736,66.35921029999736,66.35921029999736,66.35921029999736,66.35921029999736,66.35921029999736,66.35921029999736,66.35921029999736,66.35921029999736,22,0,,,66.35921029999736,66.55969790002564,1000,66.55969790002564,1000,1000,1000,1000,0,num_3,0.6961014000116847,,18,12,2026-03-02_11h14.18.564,2026A_exp2,2022.2.4,60.03658629820367,
1,0,0.0,0.0,1,0,8,8,69,,,,,67.2766421000124,67.92719500002568,67.92719500002568,68.4287724000169,45,315,68.4287724000169,68.4287724000169,68.4287724000169,68.4287724000169,68.4287724000169,68.4287724000169,68.4287724000169,68.4287724000169,68.4287724000169,68.79592679999769,68.79592679999769,68.79592679999769,68.79592679999769,68.79592679999769,68.79592679999769,68.79592679999769,68.79592679999769,68.79592679999769,23,0,,,68.79592679999769,68.99555280001368,0.0,68.99555280001368,0,0.0,0,1,1000,num_1,0.9153835999895819,,18,12,2026-03-02_11h14.18.564,2026A_exp2,2022.2.4,60.03658629820367,
1,0,0.0,0.0,0,0,9,9,24,,,,,69.92959700000938,70.58069510001224,70.58069510001224,71.08123310000519,315,45,71.08123310000519,71.08123310000519,71.08123310000519,71.08123310000519,71.08123310000519,71.08123310000519,71.08123310000519,71.08123310000519,71.08123310000519,71.43129960002261,71.43129960002261,71.43129960002261,71.43129960002261,71.43129960002261,71.43129960002261,71.43129960002261,71.43129960002261,71.43129960002261,22,0,,,71.43129960002261,71.63118960001157,0.0,71.64812840000377,0,0.0,0,1,1000,num_1,0.7033990000199992,,18,12,2026-03-02_11h14.18.564,2026A_exp2,2022.2.4,60.03658629820367,
1000,1,6.1,6.1,0,0,10,10,16,,,,,72.38204399999813,73.01600660002441,73.01600660002441,73.51718860000256,45,45,73.51718860000256,73.51718860000256,73.51718860000256,73.51718860000256,73.51718860000256,73.51718860000256,73.51718860000256,73.51718860000256,73.51718860000256,73.88342250001733,73.88342250001733,73.88342250001733,73.88342250001733,73.88342250001733,73.88342250001733,73.88342250001733,73.88342250001733,73.88342250001733,23,0,,,73.88342250001733,74.08475000000908,1000,74.08475000000908,1000,1000,1000,1000,0,num_3,0.6103233000030741,,18,12,2026-03-02_11h14.18.564,2026A_exp2,2022.2.4,60.03658629820367,
1,0,0.0,0.0,0,0,11,11,88,,,,,74.71778190002078,75.36836720001884,75.36836720001884,75.85263910001959,315,45,75.85263910001959,75.85263910001959,75.85263910001959,75.85263910001959,75.85263910001959,75.85263910001959,75.85263910001959,75.85263910001959,75.85263910001959,76.21916980002425,76.21916980002425,76.21916980002425,76.21916980002425,76.21916980002425,76.21916980002425,76.21916980002425,76.21916980002425,76.21916980002425,23,0,,,76.21916980002425,76.41931680002017,0.0,76.41931680002017,0,0.0,0,1,1000,num_1,0.39569559998926707,,18,12,2026-03-02_11h14.18.564,2026A_exp2,2022.2.4,60.03658629820367,
1000,1,4.9,0.0,0,0,12,12,41,,,,,76.83639240000048,77.47235760002513,77.47235760002513,77.97129539999878,45,45,77.97129539999878,77.97129539999878,77.97129539999878,77.97129539999878,77.97129539999878,77.97129539999878,77.97129539999878,77.97129539999878,77.97129539999878,78.33789110000362,78.33789110000362,78.33789110000362,78.33789110000362,78.33789110000362,78.33789110000362,78.33789110000362,78.33789110000362,78.33789110000362,23,0,,,78.33789110000362,78.53822400001809,1000,78.53822400001809,1000,1000,1000,1000,0,num_3,0.6692525999969803,,18,12,2026-03-02_11h14.18.564,2026A_exp2,2022.2.4,60.03658629820367,
1000,1,3.7,3.7,0,0,13,13,63,,,,,79.23901509999996,79.8893187000067,79.8893187000067,80.37564820001717,45,45,80.37564820001717,80.37564820001717,80.37564820001717,80.37564820001717,80.37564820001717,80.37564820001717,80.37564820001717,80.37564820001717,80.37564820001717,80.74017679999815,80.74017679999815,80.74017679999815,80.74017679999815,80.74017679999815,80.74017679999815,80.74017679999815,80.74017679999815,80.74017679999815,23,0,,,80.74017679999815,80.94042290002108,1000,80.94042290002108,1000,1000,1000,1000,0,num_3,0.5392814999795519,,18,12,2026-03-02_11h14.18.564,2026A_exp2,2022.2.4,60.03658629820367,
1000,1,3.7,3.7,0,0,14,14,72,,,,,81.50784490001388,82.15834850000101,82.15834850000101,82.64246750000166,45,45,82.64246750000166,82.64246750000166,82.64246750000166,82.64246750000166,82.64246750000166,82.64246750000166,82.64246750000166,82.64246750000166,82.64246750000166,83.0091095000098,83.0091095000098,83.0091095000098,83.0091095000098,83.0091095000098,83.0091095000098,83.0091095000098,83.0091095000098,83.0091095000098,23,0,,,83.0091095000098,83.20941060001496,1000,83.20941060001496,1000,1000,1000,1000,0,num_3,0.47783330001402646,,18,12,2026-03-02_11h14.18.564,2026A_exp2,2022.2.4,60.03658629820367,
0,0,0.0,0.0,0,0,15,15,59,,,,,83.71032530002412,84.3616611000034,84.3616611000034,84.86144770000828,45,315,84.86144770000828,84.86144770000828,84.86144770000828,84.86144770000828,84.86144770000828,84.86144770000828,84.86144770000828,84.86144770000828,84.86144770000828,85.21143960001064,85.21143960001064,85.21143960001064,85.21143960001064,85.21143960001064,85.21143960001064,85.21143960001064,85.21143960001064,85.21143960001064,22,0,,,85.21143960001064,85.41165520000504,0.0,85.41165520000504,1,0.0,0,0,1000,num_4,1.139873299980536,,18,12,2026-03-02_11h14.18.564,2026A_exp2,2022.2.4,60.03658629820367,
1000,1,0.0,3.7,1,0,16,16,13,,,,,86.57951440001489,87.2143350999977,87.2143350999977,87.7145739000116,45,315,87.7145739000116,87.7145739000116,87.7145739000116,87.7145739000116,87.7145739000116,87.7145739000116,87.7145739000116,87.7145739000116,87.7145739000116,88.08097060001455,88.08097060001455,88.08097060001455,88.08097060001455,88.08097060001455,88.08097060001455,88.08097060001455,88.08097060001455,88.08097060001455,23,0,,,88.08097060001455,88.28146700002253,1000,88.28146700002253,1000,1000,1000,1000,1,num_2,0.8701644000248052,,18,12,2026-03-02_11h14.18.564,2026A_exp2,2022.2.4,60.03658629820367,
1,0,3.7,6.1,0,0,17,17,52,,,,,89.18213670002297,89.81597260001581,89.81597260001581,90.31703920001746,315,315,90.31703920001746,90.31703920001746,90.31703920001746,90.31703920001746,90.31703920001746,90.31703920001746,90.31703920001746,90.31703920001746,90.31703920001746,90.68373240000801,90.68373240000801,90.68373240000801,90.68373240000801,90.68373240000801,90.68373240000801,90.68373240000801,90.68373240000801,90.68373240000801,23,0,,,90.68373240000801,90.88409330000286,3.7,90.88409330000286,0,3.7,1,0,1000,num_1,1.0032886000117287,,18,12,2026-03-02_11h14.18.564,2026A_exp2,2022.2.4,60.03658629820367,
1,0,6.1,0.0,0,0,18,18,47,,,,,91.91807970000082,92.56845250001061,92.56845250001061,93.0531535000191,45,45,93.0531535000191,93.0531535000191,93.0531535000191,93.0531535000191,93.0531535000191,93.0531535000191,93.0531535000191,93.0531535000191,93.0531535000191,93.41965970001183,93.41965970001183,93.41965970001183,93.41965970001183,93.41965970001183,93.41965970001183,93.41965970001183,93.41965970001183,93.41965970001183,23,0,,,93.41965970001183,93.61972290000995,6.1,93.61972290000995,1,6.1,1,1,1000,num_4,0.4197738000075333,,18,12,2026-03-02_11h14.18.564,2026A_exp2,2022.2.4,60.03658629820367,
1000,1,3.7,0.0,1,0,19,19,38,,,,,94.0703618999978,94.70400190001237,94.70400190001237,95.20546970001305,45,315,95.20546970001305,95.20546970001305,95.20546970001305,95.20546970001305,95.20546970001305,95.20546970001305,95.20546970001305,95.20546970001305,95.20546970001305,95.5716421000252,95.5716421000252,95.5716421000252,95.5716421000252,95.5716421000252,95.5716421000252,95.5716421000252,95.5716421000252,95.5716421000252,23,0,,,95.5716421000252,95.77204320000601,1000,95.77204320000601,1000,1000,1000,1000,0,num_3,0.891244700003881,,18,12,2026-03-02_11h14.18.564,2026A_exp2,2022.2.4,60.03658629820367,
1000,1,6.1,0.0,1,0,20,20,83,,,,,96.68969700002344,97.34040169999935,97.34040169999935,97.82456280000042,315,315,97.82456280000042,97.82456280000042,97.82456280000042,97.82456280000042,97.82456280000042,97.82456280000042,97.82456280000042,97.82456280000042,97.82456280000042,98.19219490000978,98.19219490000978,98.19219490000978,98.19219490000978,98.19219490000978,98.19219490000978,98.19219490000978,98.19219490000978,98.19219490000978,23,0,,,98.19219490000978,98.39168080000672,1000,98.39168080000672,1000,1000,1000,1000,0,num_3,0.439816800004337,,18,12,2026-03-02_11h14.18.564,2026A_exp2,2022.2.4,60.03658629820367,
1000,1,0.0,4.9,0,0,21,21,6,,,,,98.85950810002396,99.49353510001674,99.49353510001674,99.99458570001298,45,45,99.99458570001298,99.99458570001298,99.99458570001298,99.99458570001298,99.99458570001298,99.99458570001298,99.99458570001298,99.99458570001298,99.99458570001298,,,,,,,,,,23,0,,,100.3769031999982,100.5782039000187,1000,100.5782039000187,1000,1000,1000,1000,1,num_2,0.4205426999833435,,18,12,2026-03-02_11h14.18.564,2026A_exp2,2022.2.4,60.03658629820367,
1,0,4.9,0.0,1,0,22,22,65,,,,,101.02724170000874,101.67789940000512,101.67789940000512,102.16220620000968,315,315,102.16220620000968,102.16220620000968,102.16220620000968,102.16220620000968,102.16220620000968,102.16220620000968,102.16220620000968,102.16220620000968,102.16220620000968,102.52880630001891,102.52880630001891,102.52880630001891,102.52880630001891,102.52880630001891,102.52880630001891,102.52880630001891,102.52880630001891,102.52880630001891,23,0,,,102.52880630001891,102.7290362000058,0.0,102.7290362000058,0,0.0,0,1,1000,num_1,0.7020675000094343,,18,12,2026-03-02_11h14.18.564,2026A_exp2,2022.2.4,60.03658629820367,
1000,1,0.0,3.7,0,0,23,23,46,,,,,103.46314390000771,104.09696540000732,104.09696540000732,104.5980327000143,315,315,104.5980327000143,104.5980327000143,104.5980327000143,104.5980327000143,104.5980327000143,104.5980327000143,104.5980327000143,104.5980327000143,104.5980327000143,104.96443510000245,104.96443510000245,104.96443510000245,104.96443510000245,104.96443510000245,104.96443510000245,104.96443510000245,104.96443510000245,104.96443510000245,23,0,,,104.96443510000245,105.16467220001505,1000,105.16467220001505,1000,1000,1000,1000,1,num_2,0.5869553000084125,,18,12,2026-03-02_11h14.18.564,2026A_exp2,2022.2.4,60.03658629820367,
1,0,3.7,3.7,1,0,24,24,30,,,,,105.78215440001804,106.43348000000697,106.43348000000697,106.93374530001893,315,45,106.93374530001893,106.93374530001893,106.93374530001893,106.93374530001893,106.93374530001893,106.93374530001893,106.93374530001893,106.93374530001893,106.93374530001893,107.30028350002249,107.30028350002249,107.30028350002249,107.30028350002249,107.30028350002249,107.30028350002249,107.30028350002249,107.30028350002249,107.30028350002249,23,0,,,107.30028350002249,107.50066859999788,3.7,107.50066859999788,1,3.7,1,1,1000,num_4,0.8501915999804623,,18,12,2026-03-02_11h14.18.564,2026A_exp2,2022.2.4,60.03658629820367,
1,0,6.1,0.0,0,0,25,25,21,,,,,108.36812580001424,109.01844500002335,109.01844500002335,109.5196006000042,45,45,109.5196006000042,109.5196006000042,109.5196006000042,109.5196006000042,109.5196006000042,109.5196006000042,109.5196006000042,109.5196006000042,109.5196006000042,109.87065900000744,109.87065900000744,109.87065900000744,109.87065900000744,109.87065900000744,109.87065900000744,109.87065900000744,109.87065900000744,109.87065900000744,22,0,,,109.87065900000744,,6.1,110.08769310000935,1,6.1,1,1,1000,num_4,0.4716361000027973,,18,12,2026-03-02_11h14.18.564,2026A_exp2,2022.2.4,60.03658629820367,
0,0,0.0,3.7,0,0,26,26,34,,,,,110.58683910002583,111.22167009999976,111.22167009999976,111.72202400001697,45,315,111.72202400001697,111.72202400001697,111.72202400001697,111.72202400001697,111.72202400001697,111.72202400001697,111.72202400001697,111.72202400001697,111.72202400001697,112.08820430000196,112.08820430000196,112.08820430000196,112.08820430000196,112.08820430000196,112.08820430000196,112.08820430000196,112.08820430000196,112.08820430000196,23,0,,,112.08820430000196,112.28853430002346,3.7,112.28853430002346,1,3.7,1,1,1000,num_4,0.7103650999779347,,18,12,2026-03-02_11h14.18.564,2026A_exp2,2022.2.4,60.03658629820367,
1000,1,6.1,0.0,1,0,27,27,57,,,,,113.02248760001385,113.65658999999869,113.65658999999869,114.1577162000176,45,315,114.1577162000176,114.1577162000176,114.1577162000176,114.1577162000176,114.1577162000176,114.1577162000176,114.1577162000176,114.1577162000176,114.1577162000176,114.52392440001131,114.52392440001131,114.52392440001131,114.52392440001131,114.52392440001131,114.52392440001131,114.52392440001131,114.52392440001131,114.52392440001131,23,0,,,114.52392440001131,114.72415140000521,1000,114.72415140000521,1000,1000,1000,1000,0,num_3,0.5789176000107545,,18,12,2026-03-02_11h14.18.564,2026A_exp2,2022.2.4,60.03658629820367,
1000,1,3.7,6.1,1,0,28,28,58,,,,,115.32485520001501,115.97563130001072,115.97563130001072,116.45995930000208,45,45,116.45995930000208,116.45995930000208,116.45995930000208,116.45995930000208,116.45995930000208,116.45995930000208,116.45995930000208,116.45995930000208,116.45995930000208,116.82637580001028,116.82637580001028,116.82637580001028,116.82637580001028,116.82637580001028,116.82637580001028,116.82637580001028,116.82637580001028,116.82637580001028,23,0,,,116.82637580001028,117.02660579999792,1000,117.02660579999792,1000,1000,1000,1000,1,num_2,0.6210902000020724,,18,12,2026-03-02_11h14.18.564,2026A_exp2,2022.2.4,60.03658629820367,
1000,1,0.0,3.7,1,0,29,29,84,,,,,117.67722460001823,118.32840500000748,118.32840500000748,118.81266830000095,45,45,118.81266830000095,118.81266830000095,118.81266830000095,118.81266830000095,118.81266830000095,118.81266830000095,118.81266830000095,118.81266830000095,118.81266830000095,119.17861570001696,119.17861570001696,119.17861570001696,119.17861570001696,119.17861570001696,119.17861570001696,119.17861570001696,119.17861570001696,119.17861570001696,23,0,,,119.17861570001696,119.37919289999991,1000,119.37919289999991,1000,1000,1000,1000,1,num_2,0.4439494999824092,,18,12,2026-03-02_11h14.18.564,2026A_exp2,2022.2.4,60.03658629820367,
1,0,0.0,6.1,1,0,30,30,31,,,,,119.84607580001466,120.49659610001254,120.49659610001254,120.99782710001455,315,315,120.99782710001455,120.99782710001455,120.99782710001455,120.99782710001455,120.99782710001455,120.99782710001455,120.99782710001455,120.99782710001455,120.99782710001455,121.36443510002573,121.36443510002573,121.36443510002573,121.36443510002573,121.36443510002573,121.36443510002573,121.36443510002573,121.36443510002573,121.36443510002573,23,0,,,121.36443510002573,121.56456420000177,6.1,121.56456420000177,1,6.1,1,1,1000,num_4,0.44258370000170544,,18,12,2026-03-02_11h14.18.564,2026A_exp2,2022.2.4,60.03658629820367,
1,0,0.0,0.0,1,0,31,31,42,,,,,122.03178260001005,122.68209149999893,122.68209149999893,123.16691540001193,315,45,123.16691540001193,123.16691540001193,123.16691540001193,123.16691540001193,123.16691540001193,123.16691540001193,123.16691540001193,123.16691540001193,123.16691540001193,123.53323850000743,123.53323850000743,123.53323850000743,123.53323850000743,123.53323850000743,123.53323850000743,123.53323850000743,123.53323850000743,123.53323850000743,23,0,,,123.53323850000743,123.73347250002553,0.0,123.73347250002553,0,0.0,0,1,1000,num_1,0.5774876999785192,,18,12,2026-03-02_11h14.18.564,2026A_exp2,2022.2.4,60.03658629820367,
1000,1,0.0,0.0,1,0,32,32,9,,,,,124.33387740000035,124.984941600007,124.984941600007,125.469001999998,45,315,125.469001999998,125.469001999998,125.469001999998,125.469001999998,125.469001999998,125.469001999998,125.469001999998,125.469001999998,125.469001999998,125.83523190001142,125.83523190001142,125.83523190001142,125.83523190001142,125.83523190001142,125.83523190001142,125.83523190001142,125.83523190001142,125.83523190001142,23,0,,,125.83523190001142,126.03585500002373,1000,126.03585500002373,1000,1000,1000,1000,0,num_3,0.9317144000087865,,18,12,2026-03-02_11h14.18.564,2026A_exp2,2022.2.4,60.03658629820367,
1000,1,0.0,0.0,1,0,33,33,1,,,,,126.98683590002474,127.6373066000233,127.6373066000233,128.1385988999973,45,45,128.1385988999973,128.1385988999973,128.1385988999973,128.1385988999973,128.1385988999973,128.1385988999973,128.1385988999973,128.1385988999973,128.1385988999973,128.48820290001458,128.48820290001458,128.48820290001458,128.48820290001458,128.48820290001458,128.48820290001458,128.48820290001458,128.48820290001458,128.48820290001458,22,0,,,128.48820290001458,128.690580399998,1000,128.690580399998,1000,1000,1000,1000,1,num_2,0.46035499998833984,,18,12,2026-03-02_11h14.18.564,2026A_exp2,2022.2.4,60.03658629820367,
1000,1,0.0,0.0,0,0,34,34,7,,,,,129.17211800001678,129.82340940000722,129.82340940000722,130.3071392000129,45,315,130.3071392000129,130.3071392000129,130.3071392000129,130.3071392000129,130.3071392000129,130.3071392000129,130.3071392000129,130.3071392000129,130.3071392000129,130.6901768000098,130.6901768000098,130.6901768000098,130.6901768000098,130.6901768000098,130.6901768000098,130.6901768000098,130.6901768000098,130.6901768000098,24,0,,,130.6901768000098,130.89050150002004,1000,130.89050150002004,1000,1000,1000,1000,1,num_2,0.5567039999878034,,18,12,2026-03-02_11h14.18.564,2026A_exp2,2022.2.4,60.03658629820367,
1,0,4.9,3.7,0,0,35,35,44,,,,,131.4743470000103,132.12506640001084,132.12506640001084,132.60945540000102,45,45,132.60945540000102,132.60945540000102,132.60945540000102,132.60945540000102,132.60945540000102,132.60945540000102,132.60945540000102,132.60945540000102,132.60945540000102,132.9758699000231,132.9758699000231,132.9758699000231,132.9758699000231,132.9758699000231,132.9758699000231,132.9758699000231,132.9758699000231,132.9758699000231,23,0,,,132.9758699000231,133.17611130001023,4.9,133.17611130001023,1,4.9,1,1,1000,num_4,0.48735919999307953,,18,12,2026-03-02_11h14.18.564,2026A_exp2,2022.2.4,60.03658629820367,
1000,1,6.1,6.1,1,0,36,36,4,,,,,133.69309270000667,134.32729570000083,134.32729570000083,134.82862140002544,315,315,134.82862140002544,134.82862140002544,134.82862140002544,134.82862140002544,134.82862140002544,134.82862140002544,134.82862140002544,134.82862140002544,134.82862140002544,135.19484199999715,135.19484199999715,135.19484199999715,135.19484199999715,135.19484199999715,135.19484199999715,135.19484199999715,135.19484199999715,135.19484199999715,23,0,,,135.19484199999715,135.39512160001323,1000,135.39512160001323,1000,1000,1000,1000,1,num_2,0.4680246999778319,,18,12,2026-03-02_11h14.18.564,2026A_exp2,2022.2.4,60.03658629820367,
1,0,0.0,4.9,1,0,37,37,37,,,,,135.87942160002422,136.5292757000134,136.5292757000134,137.03049540001666,45,45,137.03049540001666,137.03049540001666,137.03049540001666,137.03049540001666,137.03049540001666,137.03049540001666,137.03049540001666,137.03049540001666,137.03049540001666,137.39722450001864,137.39722450001864,137.39722450001864,137.39722450001864,137.39722450001864,137.39722450001864,137.39722450001864,137.39722450001864,137.39722450001864,23,0,,,137.39722450001864,137.59694560000207,4.9,137.59694560000207,1,4.9,1,1,1000,num_4,0.38591720000840724,,18,12,2026-03-02_11h14.18.564,2026A_exp2,2022.2.4,60.03658629820367,
1,0,3.7,4.9,1,0,38,38,18,,,,,138.0142015000165,138.64861530001508,138.64861530001508,139.1498618000187,45,45,139.1498618000187,139.1498618000187,139.1498618000187,139.1498618000187,139.1498618000187,139.1498618000187,139.1498618000187,139.1498618000187,139.1498618000187,139.51561729999958,139.51561729999958,139.51561729999958,139.51561729999958,139.51561729999958,139.51561729999958,139.51561729999958,139.51561729999958,139.51561729999958,23,0,,,139.51561729999958,139.71609660002287,4.9,139.71609660002287,1,4.9,1,1,1000,num_4,0.3145895999914501,,18,12,2026-03-02_11h14.18.564,2026A_exp2,2022.2.4,60.03658629820367,
1,0,6.1,0.0,1,0,39,39,70,,,,,140.0496677000192,140.68344350002008,140.68344350002008,141.18457650000346,45,45,141.18457650000346,141.18457650000346,141.18457650000346,141.18457650000346,141.18457650000346,141.18457650000346,141.18457650000346,141.18457650000346,141.18457650000346,141.55122390002361,141.55122390002361,141.55122390002361,141.55122390002361,141.55122390002361,141.55122390002361,141.55122390002361,141.55122390002361,141.55122390002361,23,0,,,141.55122390002361,141.75121170000057,0.0,141.75121170000057,0,0.0,0,1,1000,num_1,0.8880568999738898,,18,12,2026-03-02_11h14.18.564,2026A_exp2,2022.2.4,60.03658629820367,
1,0,6.1,3.7,1,0,40,40,51,,,,,142.6689408000093,143.3027336000232,143.3027336000232,143.8038756000169,315,45,143.8038756000169,143.8038756000169,143.8038756000169,143.8038756000169,143.8038756000169,143.8038756000169,143.8038756000169,143.8038756000169,143.8038756000169,144.17053680002573,144.17053680002573,144.17053680002573,144.17053680002573,144.17053680002573,144.17053680002573,144.17053680002573,144.17053680002573,144.17053680002573,23,0,,,144.17053680002573,144.37075600001845,3.7,144.37075600001845,1,3.7,1,1,1000,num_4,0.6039976999745704,,18,12,2026-03-02_11h14.18.564,2026A_exp2,2022.2.4,60.03658629820367,
1000,1,0.0,0.0,0,0,41,41,17,,,,,145.0046333000064,145.6387203000195,145.6387203000195,146.13973180000903,45,45,146.13973180000903,146.13973180000903,146.13973180000903,146.13973180000903,146.13973180000903,146.13973180000903,146.13973180000903,146.13973180000903,146.13973180000903,146.50599710000097,146.50599710000097,146.50599710000097,146.50599710000097,146.50599710000097,146.50599710000097,146.50599710000097,146.50599710000097,146.50599710000097,23,0,,,146.50599710000097,146.7064287000103,1000,146.7064287000103,1000,1000,1000,1000,1,num_2,0.8448589000036009,,18,12,2026-03-02_11h14.18.564,2026A_exp2,2022.2.4,60.03658629820367,
1,0,0.0,6.1,1,0,42,42,50,,,,,147.5738784999994,148.2243949000258,148.2243949000258,148.70882090000669,45,45,148.70882090000669,148.70882090000669,148.70882090000669,148.70882090000669,148.70882090000669,148.70882090000669,148.70882090000669,148.70882090000669,148.70882090000669,149.07566520001274,149.07566520001274,149.07566520001274,149.07566520001274,149.07566520001274,149.07566520001274,149.07566520001274,149.07566520001274,149.07566520001274,23,0,,,149.07566520001274,149.27569030001177,6.1,149.27569030001177,1,6.1,1,1,1000,num_4,0.3723234999924898,,18,12,2026-03-02_11h14.18.564,2026A_exp2,2022.2.4,60.03658629820367,
1000,1,6.1,6.1,1,0,43,43,8,,,,,149.67584460001672,150.310321500001,150.310321500001,150.81122510001296,45,45,150.81122510001296,150.81122510001296,150.81122510001296,150.81122510001296,150.81122510001296,150.81122510001296,150.81122510001296,150.81122510001296,150.81122510001296,151.17746490001446,151.17746490001446,151.17746490001446,151.17746490001446,151.17746490001446,151.17746490001446,151.17746490001446,151.17746490001446,151.17746490001446,23,0,,,151.17746490001446,151.37790670001414,1000,151.37790670001414,1000,1000,1000,1000,1,num_2,0.517253800004255,,18,12,2026-03-02_11h14.18.564,2026A_exp2,2022.2.4,60.03658629820367,
1000,1,0.0,6.1,1,0,44,44,43,,,,,151.91139230001136,152.56211749999784,152.56211749999784,153.04640940000536,315,45,153.04640940000536,153.04640940000536,153.04640940000536,153.04640940000536,153.04640940000536,153.04640940000536,153.04640940000536,153.04640940000536,153.04640940000536,153.41327800002182,153.41327800002182,153.41327800002182,153.41327800002182,153.41327800002182,153.41327800002182,153.41327800002182,153.41327800002182,153.41327800002182,23,0,,,153.41327800002182,153.6132316000003,1000,153.6132316000003,1000,1000,1000,1000,1,num_2,0.43400959999416955,,18,12,2026-03-02_11h14.18.564,2026A_exp2,2022.2.4,60.03658629820367,
1000,1,0.0,4.9,1,0,45,45,66,,,,,154.06349150001188,154.71459080002387,154.71459080002387,155.19944260001648,45,315,155.19944260001648,155.19944260001648,155.19944260001648,155.19944260001648,155.19944260001648,155.19944260001648,155.19944260001648,155.19944260001648,155.19944260001648,155.56512880002265,155.56512880002265,155.56512880002265,155.56512880002265,155.56512880002265,155.56512880002265,155.56512880002265,155.56512880002265,155.56512880002265,23,0,,,155.56512880002265,155.7665343999979,1000,155.7665343999979,1000,1000,1000,1000,1,num_2,0.3922329999913927,,18,12,2026-03-02_11h14.18.564,2026A_exp2,2022.2.4,60.03658629820367,
1000,1,0.0,0.0,1,0,46,46,85,,,,,156.18242360002478,156.81663980000303,156.81663980000303,157.31758490001084,45,45,157.31758490001084,157.31758490001084,157.31758490001084,157.31758490001084,157.31758490001084,157.31758490001084,157.31758490001084,157.31758490001084,157.31758490001084,157.6837914000207,157.6837914000207,157.6837914000207,157.6837914000207,157.6837914000207,157.6837914000207,157.6837914000207,157.6837914000207,157.6837914000207,23,0,,,157.6837914000207,157.88427540002158,1000,157.88427540002158,1000,1000,1000,1000,0,num_3,1.483488599973498,,18,12,2026-03-02_11h14.18.564,2026A_exp2,2022.2.4,60.03658629820367,
1,0,6.1,0.0,1,0,47,47,89,,,,,159.3859325000085,160.03657810000004,160.03657810000004,160.53775170000154,315,45,160.53775170000154,160.53775170000154,160.53775170000154,160.53775170000154,160.53775170000154,160.53775170000154,160.53775170000154,160.53775170000154,160.53775170000154,160.90367120000883,160.90367120000883,160.90367120000883,160.90367120000883,160.90367120000883,160.90367120000883,160.90367120000883,160.90367120000883,160.90367120000883,23,0,,,160.90367120000883,161.10389090000535,0.0,161.10389090000535,0,0.0,0,1,1000,num_1,0.6475218999839853,,18,12,2026-03-02_11h14.18.564,2026A_exp2,2022.2.4,60.03658629820367,
1000,1,0.0,4.9,0,0,48,48,26,,,,,161.77130030002445,162.40523299999768,162.40523299999768,162.9063262999989,45,45,162.9063262999989,162.9063262999989,162.9063262999989,162.9063262999989,162.9063262999989,162.9063262999989,162.9063262999989,162.9063262999989,162.9063262999989,163.27274600000237,163.27274600000237,163.27274600000237,163.27274600000237,163.27274600000237,163.27274600000237,163.27274600000237,163.27274600000237,163.27274600000237,23,0,,,163.27274600000237,163.47647470000084,1000,163.47647470000084,1000,1000,1000,1000,1,num_2,0.5066599999845494,,18,12,2026-03-02_11h14.18.564,2026A_exp2,2022.2.4,60.03658629820367,
0,0,0.0,0.0,1,0,49,49,2,,,,,164.00685190001968,164.6408995000238,164.6408995000238,165.14193480001995,315,45,165.14193480001995,165.14193480001995,165.14193480001995,165.14193480001995,165.14193480001995,165.14193480001995,165.14193480001995,165.14193480001995,165.14193480001995,165.50842480000574,165.50842480000574,165.50842480000574,165.50842480000574,165.50842480000574,165.50842480000574,165.50842480000574,165.50842480000574,165.50842480000574,23,0,,,165.50842480000574,165.70861920001335,0.0,165.70861920001335,0,0.0,0,1,1000,num_1,0.6265318999940064,,18,12,2026-03-02_11h14.18.564,2026A_exp2,2022.2.4,60.03658629820367,
1,0,0.0,0.0,1,0,50,50,39,,,,,166.3593763000099,166.99316820001695,166.99316820001695,167.4942357999971,315,315,167.4942357999971,167.4942357999971,167.4942357999971,167.4942357999971,167.4942357999971,167.4942357999971,167.4942357999971,167.4942357999971,167.4942357999971,167.8608327000111,167.8608327000111,167.8608327000111,167.8608327000111,167.8608327000111,167.8608327000111,167.8608327000111,167.8608327000111,167.8608327000111,23,0,,,167.8608327000111,168.06094620001386,0.0,168.06094620001386,0,0.0,0,1,1000,num_1,0.578693999996176,,18,12,2026-03-02_11h14.18.564,2026A_exp2,2022.2.4,60.03658629820367,
1000,1,4.9,3.7,0,0,51,51,40,,,,,168.66142980000586,169.31213760000537,169.31213760000537,169.79664149999735,315,45,169.79664149999735,169.79664149999735,169.79664149999735,169.79664149999735,169.79664149999735,169.79664149999735,169.79664149999735,169.79664149999735,169.79664149999735,170.16301509999903,170.16301509999903,170.16301509999903,170.16301509999903,170.16301509999903,170.16301509999903,170.16301509999903,170.16301509999903,170.16301509999903,23,0,,,170.16301509999903,170.3632034000184,1000,170.3632034000184,1000,1000,1000,1000,0,num_3,0.5397906999860425,,18,12,2026-03-02_11h14.18.564,2026A_exp2,2022.2.4,60.03658629820367,
1,0,6.1,0.0,0,0,52,52,82,,,,,170.93047410002328,171.58117990000756,171.58117990000756,172.06547110000974,45,45,172.06547110000974,172.06547110000974,172.06547110000974,172.06547110000974,172.06547110000974,172.06547110000974,172.06547110000974,172.06547110000974,172.06547110000974,172.43199979999918,172.43199979999918,172.43199979999918,172.43199979999918,172.43199979999918,172.43199979999918,172.43199979999918,172.43199979999918,172.43199979999918,23,0,,,172.43199979999918,172.63255340000615,6.1,172.63255340000615,1,6.1,1,1,1000,num_4,0.6787071000144351,,18,12,2026-03-02_11h14.18.564,2026A_exp2,2022.2.4,60.03658629820367,
1,0,3.7,0.0,1,0,53,53,12,,,,,173.33283759999904,173.9836335,173.9836335,174.4680054000055,45,315,174.4680054000055,174.4680054000055,174.4680054000055,174.4680054000055,174.4680054000055,174.4680054000055,174.4680054000055,174.4680054000055,174.4680054000055,174.83421520001139,174.83421520001139,174.83421520001139,174.83421520001139,174.83421520001139,174.83421520001139,174.83421520001139,174.83421520001139,174.83421520001139,23,0,,,174.83421520001139,175.03465129999677,0.0,175.03465129999677,0,0.0,0,1,1000,num_1,0.3970654000004288,,18,12,2026-03-02_11h14.18.564,2026A_exp2,2022.2.4,60.03658629820367,
1,0,6.1,0.0,1,0,54,54,80,,,,,175.45153420002316,176.08550720001222,176.08550720001222,176.58646120000049,45,45,176.58646120000049,176.58646120000049,176.58646120000049,176.58646120000049,176.58646120000049,176.58646120000049,176.58646120000049,176.58646120000049,176.58646120000049,176.95284750001156,176.95284750001156,176.95284750001156,176.95284750001156,176.95284750001156,176.95284750001156,176.95284750001156,176.95284750001156,176.95284750001156,23,0,,,176.95284750001156,177.1545238000108,0.0,177.1545238000108,0,0.0,0,1,1000,num_1,0.9247841999749653,,18,12,2026-03-02_11h14.18.564,2026A_exp2,2022.2.4,60.03658629820367,
1,0,0.0,3.7,1,0,55,55,32,,,,,178.10435940002208,178.75478240000666,178.75478240000666,179.25624080002308,315,45,179.25624080002308,179.25624080002308,179.25624080002308,179.25624080002308,179.25624080002308,179.25624080002308,179.25624080002308,179.25624080002308,179.25624080002308,179.60569260001648,179.60569260001648,179.60569260001648,179.60569260001648,179.60569260001648,179.60569260001648,179.60569260001648,179.60569260001648,179.60569260001648,22,0,,,179.60569260001648,179.80603050001082,3.7,179.80603050001082,0,3.7,1,0,1000,num_1,0.44118140000500716,,18,12,2026-03-02_11h14.18.564,2026A_exp2,2022.2.4,60.03658629820367,
1000,1,6.1,3.7,0,0,56,56,75,,,,,180.27325600001495,180.90711280002142,180.90711280002142,181.4080831000174,315,315,181.4080831000174,181.4080831000174,181.4080831000174,181.4080831000174,181.4080831000174,181.4080831000174,181.4080831000174,181.4080831000174,181.4080831000174,181.7745120000036,181.7745120000036,181.7745120000036,181.7745120000036,181.7745120000036,181.7745120000036,181.7745120000036,181.7745120000036,181.7745120000036,23,0,,,181.7745120000036,181.97598200000357,1000,181.97598200000357,1000,1000,1000,1000,0,num_3,0.5273531999846455,,18,12,2026-03-02_11h14.18.564,2026A_exp2,2022.2.4,60.03658629820367,
0,0,3.7,0.0,0,0,57,57,62,,,,,182.52603220002493,183.17690270001185,183.17690270001185,183.66088700000546,315,315,183.66088700000546,183.66088700000546,183.66088700000546,183.66088700000546,183.66088700000546,183.66088700000546,183.66088700000546,183.66088700000546,183.66088700000546,184.02747790000285,184.02747790000285,184.02747790000285,184.02747790000285,184.02747790000285,184.02747790000285,184.02747790000285,184.02747790000285,184.02747790000285,23,0,,,184.02747790000285,184.22697010001866,0.0,184.22697010001866,1,0.0,0,0,1000,num_4,0.3717264000151772,,18,12,2026-03-02_11h14.18.564,2026A_exp2,2022.2.4,60.03658629820367,
1000,1,0.0,6.1,1,0,58,58,71,,,,,184.62755590002052,185.27792630001204,185.27792630001204,185.76283290001447,315,45,185.76283290001447,185.76283290001447,185.76283290001447,185.76283290001447,185.76283290001447,185.76283290001447,185.76283290001447,185.76283290001447,185.76283290001447,186.12904020000133,186.12904020000133,186.12904020000133,186.12904020000133,186.12904020000133,186.12904020000133,186.12904020000133,186.12904020000133,186.12904020000133,23,0,,,186.12904020000133,186.32935440001893,1000,186.32935440001893,1000,1000,1000,1000,1,num_2,0.541950499988161,,18,12,2026-03-02_11h14.18.564,2026A_exp2,2022.2.4,60.03658629820367,
1000,1,0.0,0.0,0,0,59,59,15,,,,,186.89648890000535,187.5303380000114,187.5303380000114,188.0313486000232,45,45,188.0313486000232,188.0313486000232,188.0313486000232,188.0313486000232,188.0313486000232,188.0313486000232,188.0313486000232,188.0313486000232,188.0313486000232,188.3982290000131,188.3982290000131,188.3982290000131,188.3982290000131,188.3982290000131,188.3982290000131,188.3982290000131,188.3982290000131,188.3982290000131,23,0,,,188.3982290000131,188.60032340002363,1000,188.60032340002363,1000,1000,1000,1000,1,num_2,1.8864633000048343,,18,12,2026-03-02_11h14.18.564,2026A_exp2,2022.2.4,60.03658629820367,
0,0,6.1,4.9,0,0,60,60,22,,,,,190.51741790000233,191.16740410000784,191.16740410000784,191.66865970002254,315,315,191.66865970002254,191.66865970002254,191.66865970002254,191.66865970002254,191.66865970002254,191.66865970002254,191.66865970002254,191.66865970002254,191.66865970002254,192.0350075000024,192.0350075000024,192.0350075000024,192.0350075000024,192.0350075000024,192.0350075000024,192.0350075000024,192.0350075000024,192.0350075000024,23,0,,,192.0350075000024,192.23513690000982,4.9,192.23513690000982,1,4.9,1,1,1000,num_4,0.8202491000120062,,18,12,2026-03-02_11h14.18.564,2026A_exp2,2022.2.4,60.03658629820367,
1000,1,6.1,0.0,0,0,61,61,81,,,,,193.08606339999824,193.72009420001996,193.72009420001996,194.22104250002303,45,45,194.22104250002303,194.22104250002303,194.22104250002303,194.22104250002303,194.22104250002303,194.22104250002303,194.22104250002303,194.22104250002303,194.22104250002303,194.5873923000181,194.5873923000181,194.5873923000181,194.5873923000181,194.5873923000181,194.5873923000181,194.5873923000181,194.5873923000181,194.5873923000181,23,0,,,194.5873923000181,194.78781860001618,1000,194.78781860001618,1000,1000,1000,1000,0,num_3,0.5074759999988601,,18,12,2026-03-02_11h14.18.564,2026A_exp2,2022.2.4,60.03658629820367,
0,0,6.1,0.0,0,0,62,62,74,,,,,195.3215130000026,195.9721810000192,195.9721810000192,196.4564556000114,45,45,196.4564556000114,196.4564556000114,196.4564556000114,196.4564556000114,196.4564556000114,196.4564556000114,196.4564556000114,196.4564556000114,196.4564556000114,196.82290410000132,196.82290410000132,196.82290410000132,196.82290410000132,196.82290410000132,196.82290410000132,196.82290410000132,196.82290410000132,196.82290410000132,23,0,,,196.82290410000132,197.02306659999886,0.0,197.02306659999886,1,0.0,0,0,1000,num_4,0.39251159998821095,,18,12,2026-03-02_11h14.18.564,2026A_exp2,2022.2.4,60.03658629820367,
1,0,3.7,4.9,1,0,63,63,20,,,,,197.44057299999986,198.07416990000638,198.07416990000638,198.57525630001328,315,45,198.57525630001328,198.57525630001328,198.57525630001328,198.57525630001328,198.57525630001328,198.57525630001328,198.57525630001328,198.57525630001328,198.57525630001328,198.94174249999924,198.94174249999924,198.94174249999924,198.94174249999924,198.94174249999924,198.94174249999924,198.94174249999924,198.94174249999924,198.94174249999924,23,0,,,198.94174249999924,199.14219460001914,4.9,199.14219460001914,1,4.9,1,1,1000,num_4,0.6976951000106055,,18,12,2026-03-02_11h14.18.564,2026A_exp2,2022.2.4,60.03658629820367,
1000,1,0.0,4.9,0,0,64,64,60,,,,,199.8593710999994,200.50993910001125,200.50993910001125,200.99449260000256,315,45,200.99449260000256,200.99449260000256,200.99449260000256,200.99449260000256,200.99449260000256,200.99449260000256,200.99449260000256,200.99449260000256,200.99449260000256,201.36093210001127,201.36093210001127,201.36093210001127,201.36093210001127,201.36093210001127,201.36093210001127,201.36093210001127,201.36093210001127,201.36093210001127,23,0,,,201.36093210001127,201.5617060000077,1000,201.5617060000077,1000,1000,1000,1000,1,num_2,0.5733185000135563,,18,12,2026-03-02_11h14.18.564,2026A_exp2,2022.2.4,60.03658629820367,
1,0,0.0,0.0,0,0,65,65,79,,,,,202.16186040002503,202.81227910000598,202.81227910000598,203.3132935000176,45,315,203.3132935000176,203.3132935000176,203.3132935000176,203.3132935000176,203.3132935000176,203.3132935000176,203.3132935000176,203.3132935000176,203.3132935000176,203.66344080001,203.66344080001,203.66344080001,203.66344080001,203.66344080001,203.66344080001,203.66344080001,203.66344080001,203.66344080001,22,0,,,203.66344080001,203.86390210001264,0.0,203.86390210001264,0,0.0,0,1,1000,num_1,0.9193972999928519,,18,12,2026-03-02_11h14.18.564,2026A_exp2,2022.2.4,60.03658629820367,
1,0,0.0,4.9,0,0,66,66,73,,,,,204.8143359000096,205.44820020001498,205.44820020001498,205.94945720001124,45,45,205.94945720001124,205.94945720001124,205.94945720001124,205.94945720001124,205.94945720001124,205.94945720001124,205.94945720001124,205.94945720001124,205.94945720001124,206.31576890000724,206.31576890000724,206.31576890000724,206.31576890000724,206.31576890000724,206.31576890000724,206.31576890000724,206.31576890000724,206.31576890000724,23,0,,,206.31576890000724,206.51601290001418,0.0,206.51601290001418,0,0.0,0,1,1000,num_1,0.6829988000099547,,18,12,2026-03-02_11h14.18.564,2026A_exp2,2022.2.4,60.03658629820367,
1,0,3.7,0.0,0,0,67,67,87,,,,,207.2167837000161,207.8507995000109,207.8507995000109,208.35177760000806,45,45,208.35177760000806,208.35177760000806,208.35177760000806,208.35177760000806,208.35177760000806,208.35177760000806,208.35177760000806,208.35177760000806,208.35177760000806,208.71788500002003,208.71788500002003,208.71788500002003,208.71788500002003,208.71788500002003,208.71788500002003,208.71788500002003,208.71788500002003,208.71788500002003,23,0,,,208.71788500002003,208.91811980001512,3.7,208.91811980001512,1,3.7,1,1,1000,num_4,0.48084999999264255,,18,12,2026-03-02_11h14.18.564,2026A_exp2,2022.2.4,60.03658629820367,
1,0,0.0,0.0,1,0,68,68,49,,,,,209.4189514000027,210.06934660000843,210.06934660000843,210.55389870001818,45,315,210.55389870001818,210.55389870001818,210.55389870001818,210.55389870001818,210.55389870001818,210.55389870001818,210.55389870001818,210.55389870001818,210.55389870001818,210.92060540002421,210.92060540002421,210.92060540002421,210.92060540002421,210.92060540002421,210.92060540002421,210.92060540002421,210.92060540002421,210.92060540002421,23,0,,,210.92060540002421,211.12067990002106,0.0,211.12067990002106,0,0.0,0,1,1000,num_1,0.9510054999846034,,18,12,2026-03-02_11h14.18.564,2026A_exp2,2022.2.4,60.03658629820367,
1000,1,0.0,0.0,0,0,69,69,5,,,,,212.08805430002394,212.7220433000184,212.7220433000184,213.22305410000263,45,45,213.22305410000263,213.22305410000263,213.22305410000263,213.22305410000263,213.22305410000263,213.22305410000263,213.22305410000263,213.22305410000263,213.22305410000263,213.58967320001102,213.58967320001102,213.58967320001102,213.58967320001102,213.58967320001102,213.58967320001102,213.58967320001102,213.58967320001102,213.58967320001102,23,0,,,213.58967320001102,213.78985130001092,1000,213.78985130001092,1000,1000,1000,1000,0,num_3,0.6492196999897715,,18,12,2026-03-02_11h14.18.564,2026A_exp2,2022.2.4,60.03658629820367,
1,0,0.0,4.9,0,0,70,70,3,,,,,214.45727710000938,215.10770860000048,215.10770860000048,215.6089947000146,45,45,215.6089947000146,215.6089947000146,215.6089947000146,215.6089947000146,215.6089947000146,215.6089947000146,215.6089947000146,215.6089947000146,215.6089947000146,215.97528169999714,215.97528169999714,215.97528169999714,215.97528169999714,215.97528169999714,215.97528169999714,215.97528169999714,215.97528169999714,215.97528169999714,23,0,,,215.97528169999714,216.17555480002193,0.0,216.17555480002193,0,0.0,0,1,1000,num_1,0.6960571000236087,,18,12,2026-03-02_11h14.18.564,2026A_exp2,2022.2.4,60.03658629820367,
1000,1,4.9,0.0,1,0,71,71,10,,,,,216.8926053000032,217.5434271999984,217.5434271999984,218.02785490002134,315,315,218.02785490002134,218.02785490002134,218.02785490002134,218.02785490002134,218.02785490002134,218.02785490002134,218.02785490002134,218.02785490002134,218.02785490002134,218.39455310002086,218.39455310002086,218.39455310002086,218.39455310002086,218.39455310002086,218.39455310002086,218.39455310002086,218.39455310002086,218.39455310002086,23,0,,,218.39455310002086,218.59499219999998,1000,218.59499219999998,1000,1000,1000,1000,0,num_3,0.5242193000158295,,18,12,2026-03-02_11h14.18.564,2026A_exp2,2022.2.4,60.03658629820367,
1,0,6.1,4.9,1,0,72,72,64,,,,,219.1455501000164,219.79635220000637,219.79635220000637,220.29740999999922,315,45,220.29740999999922,220.29740999999922,220.29740999999922,220.29740999999922,220.29740999999922,220.29740999999922,220.29740999999922,220.29740999999922,220.29740999999922,220.6632475000224,220.6632475000224,220.6632475000224,220.6632475000224,220.6632475000224,220.6632475000224,220.6632475000224,220.6632475000224,220.6632475000224,23,0,,,220.6632475000224,220.86352920002537,4.9,220.86352920002537,1,4.9,1,1,1000,num_4,0.5601079000043683,,18,12,2026-03-02_11h14.18.564,2026A_exp2,2022.2.4,60.03658629820367,
1000,1,3.7,0.0,0,0,73,73,76,,,,,221.44775690001552,222.09849990002112,222.09849990002112,222.58256460001576,315,45,222.58256460001576,222.58256460001576,222.58256460001576,222.58256460001576,222.58256460001576,222.58256460001576,222.58256460001576,222.58256460001576,222.58256460001576,222.94898880002438,222.94898880002438,222.94898880002438,222.94898880002438,222.94898880002438,222.94898880002438,222.94898880002438,222.94898880002438,222.94898880002438,23,0,,,222.94898880002438,223.15017040001112,1000,223.15017040001112,1000,1000,1000,1000,0,num_3,0.5605773999996018,,18,12,2026-03-02_11h14.18.564,2026A_exp2,2022.2.4,60.03658629820367,
1000,1,6.1,0.0,1,0,74,74,29,,,,,223.73373030000948,224.36737160000484,224.36737160000484,224.86928900002385,45,315,224.86928900002385,224.86928900002385,224.86928900002385,224.86928900002385,224.86928900002385,224.86928900002385,224.86928900002385,224.86928900002385,224.86928900002385,225.23674610001035,225.23674610001035,225.23674610001035,225.23674610001035,225.23674610001035,225.23674610001035,225.23674610001035,225.23674610001035,225.23674610001035,23,0,,,225.23674610001035,225.45169700001134,1000,225.45169700001134,1000,1000,1000,1000,0,num_3,0.6039801000151783,,18,12,2026-03-02_11h14.18.564,2026A_exp2,2022.2.4,60.03658629820367,
1,0,6.1,6.1,1,0,75,75,23,,,,,226.0855145000096,226.73625210000318,226.73625210000318,227.22120910001104,45,315,227.22120910001104,227.22120910001104,227.22120910001104,227.22120910001104,227.22120910001104,227.22120910001104,227.22120910001104,227.22120910001104,227.22120910001104,227.58733999999822,227.58733999999822,227.58733999999822,227.58733999999822,227.58733999999822,227.58733999999822,227.58733999999822,227.58733999999822,227.58733999999822,23,0,,,227.58733999999822,227.78696100000525,6.1,227.78696100000525,1,6.1,1,1,1000,num_4,0.4761325999861583,,18,12,2026-03-02_11h14.18.564,2026A_exp2,2022.2.4,60.03658629820367,
1,0,0.0,0.0,0,0,76,76,55,,,,,228.28788730001543,228.92174890000024,228.92174890000024,229.4227177000139,45,45,229.4227177000139,229.4227177000139,229.4227177000139,229.4227177000139,229.4227177000139,229.4227177000139,229.4227177000139,229.4227177000139,229.4227177000139,229.78920050000306,229.78920050000306,229.78920050000306,229.78920050000306,229.78920050000306,229.78920050000306,229.78920050000306,229.78920050000306,229.78920050000306,23,0,,,229.78920050000306,229.98942680002074,0.0,229.98942680002074,1,0.0,0,0,1000,num_4,0.4179062999901362,,18,12,2026-03-02_11h14.18.564,2026A_exp2,2022.2.4,60.03658629820367,
1,0,4.9,3.7,1,0,77,77,27,,,,,230.43981840001652,231.0737626000191,231.0737626000191,231.5750798000081,315,315,231.5750798000081,231.5750798000081,231.5750798000081,231.5750798000081,231.5750798000081,231.5750798000081,231.5750798000081,231.5750798000081,231.5750798000081,231.9413579000102,231.9413579000102,231.9413579000102,231.9413579000102,231.9413579000102,231.9413579000102,231.9413579000102,231.9413579000102,231.9413579000102,23,0,,,231.9413579000102,232.14274030001252,3.7,232.14274030001252,1,3.7,1,1,1000,num_4,0.4001611999992747,,18,12,2026-03-02_11h14.18.564,2026A_exp2,2022.2.4,60.03658629820367,
1000,1,6.1,0.0,1,0,78,78,25,,,,,232.57534720000695,233.22687959999894,233.22687959999894,233.7109750000236,45,45,233.7109750000236,233.7109750000236,233.7109750000236,233.7109750000236,233.7109750000236,233.7109750000236,233.7109750000236,233.7109750000236,233.7109750000236,234.0771769999992,234.0771769999992,234.0771769999992,234.0771769999992,234.0771769999992,234.0771769999992,234.0771769999992,234.0771769999992,234.0771769999992,23,0,,,234.0771769999992,234.27676330000395,1000,234.27676330000395,1000,1000,1000,1000,0,num_3,0.4905717000074219,,18,12,2026-03-02_11h14.18.564,2026A_exp2,2022.2.4,60.03658629820367,
1,0,6.1,4.9,1,0,79,79,11,,,,,234.79632630001288,235.44514060000074,235.44514060000074,235.94661770001403,45,315,235.94661770001403,235.94661770001403,235.94661770001403,235.94661770001403,235.94661770001403,235.94661770001403,235.94661770001403,235.94661770001403,235.94661770001403,236.31257420001202,236.31257420001202,236.31257420001202,236.31257420001202,236.31257420001202,236.31257420001202,236.31257420001202,236.31257420001202,236.31257420001202,23,0,,,236.31257420001202,236.51296780002303,4.9,236.51296780002303,1,4.9,1,1,1000,num_4,0.49460439998074435,,18,12,2026-03-02_11h14.18.564,2026A_exp2,2022.2.4,60.03658629820367,
1000,1,0.0,4.9,0,0,80,80,61,,,,,237.0303491000086,237.68042090002564,237.68042090002564,238.16487020000932,315,315,238.16487020000932,238.16487020000932,238.16487020000932,238.16487020000932,238.16487020000932,238.16487020000932,238.16487020000932,238.16487020000932,238.16487020000932,238.53144930000417,238.53144930000417,238.53144930000417,238.53144930000417,238.53144930000417,238.53144930000417,238.53144930000417,238.53144930000417,238.53144930000417,23,0,,,238.53144930000417,238.731720700016,1000,238.731720700016,1000,1000,1000,1000,1,num_2,0.6037442000233568,,18,12,2026-03-02_11h14.18.564,2026A_exp2,2022.2.4,60.03658629820367,
1,0,4.9,0.0,0,0,81,81,53,,,,,239.365547399997,240.01645080000162,240.01645080000162,240.50081960001262,45,45,240.50081960001262,240.50081960001262,240.50081960001262,240.50081960001262,240.50081960001262,240.50081960001262,240.50081960001262,240.50081960001262,240.50081960001262,240.86718739999924,240.86718739999924,240.86718739999924,240.86718739999924,240.86718739999924,240.86718739999924,240.86718739999924,240.86718739999924,240.86718739999924,23,0,,,240.86718739999924,241.06723810001859,4.9,241.06723810001859,1,4.9,1,1,1000,num_4,0.7001033999840729,,18,12,2026-03-02_11h14.18.564,2026A_exp2,2022.2.4,60.03658629820367,
1000,1,3.7,6.1,1,0,82,82,48,,,,,241.78476130001945,242.4184888000018,242.4184888000018,242.91945660000783,315,45,242.91945660000783,242.91945660000783,242.91945660000783,242.91945660000783,242.91945660000783,242.91945660000783,242.91945660000783,242.91945660000783,242.91945660000783,243.28579020002508,243.28579020002508,243.28579020002508,243.28579020002508,243.28579020002508,243.28579020002508,243.28579020002508,243.28579020002508,243.28579020002508,23,0,,,243.28579020002508,243.48679940000875,1000,243.48679940000875,1000,1000,1000,1000,1,num_2,0.5439419999893289,,18,12,2026-03-02_11h14.18.564,2026A_exp2,2022.2.4,60.03658629820367,
1,0,0.0,6.1,1,0,83,83,33,,,,,244.05367320001824,244.6876035000023,244.6876035000023,245.18846669999766,45,45,245.18846669999766,245.18846669999766,245.18846669999766,245.18846669999766,245.18846669999766,245.18846669999766,245.18846669999766,245.18846669999766,245.18846669999766,245.55492960000993,245.55492960000993,245.55492960000993,245.55492960000993,245.55492960000993,245.55492960000993,245.55492960000993,245.55492960000993,245.55492960000993,23,0,,,245.55492960000993,245.75542390000192,6.1,245.75542390000192,1,6.1,1,1,1000,num_4,0.3955801000120118,,18,12,2026-03-02_11h14.18.564,2026A_exp2,2022.2.4,60.03658629820367,
0,0,4.9,3.7,0,0,84,84,28,,,,,246.17271980000078,246.80609670002013,246.80609670002013,247.30748700001277,45,315,247.30748700001277,247.30748700001277,247.30748700001277,247.30748700001277,247.30748700001277,247.30748700001277,247.30748700001277,247.30748700001277,247.30748700001277,247.6736560999998,247.6736560999998,247.6736560999998,247.6736560999998,247.6736560999998,247.6736560999998,247.6736560999998,247.6736560999998,247.6736560999998,23,0,,,247.6736560999998,247.87539080000715,3.7,247.87539080000715,1,3.7,1,1,1000,num_4,0.9080547999765258,,18,12,2026-03-02_11h14.18.564,2026A_exp2,2022.2.4,60.03658629820367,
1000,1,0.0,0.0,0,0,85,85,86,,,,,248.80831810002564,249.44287600001553,249.44287600001553,249.9435325000086,315,45,249.9435325000086,249.9435325000086,249.9435325000086,249.9435325000086,249.9435325000086,249.9435325000086,249.9435325000086,249.9435325000086,249.9435325000086,250.30999590002466,250.30999590002466,250.30999590002466,250.30999590002466,250.30999590002466,250.30999590002466,250.30999590002466,250.30999590002466,250.30999590002466,23,0,,,250.30999590002466,250.51118250002037,1000,250.51118250002037,1000,1000,1000,1000,1,num_2,0.8075910999905318,,18,12,2026-03-02_11h14.18.564,2026A_exp2,2022.2.4,60.03658629820367,
1000,1,4.9,0.0,0,0,86,86,54,,,,,251.34421060001478,251.9785363000119,251.9785363000119,252.47913849999895,45,45,252.47913849999895,252.47913849999895,252.47913849999895,252.47913849999895,252.47913849999895,252.47913849999895,252.47913849999895,252.47913849999895,252.47913849999895,252.84548290001112,252.84548290001112,252.84548290001112,252.84548290001112,252.84548290001112,252.84548290001112,252.84548290001112,252.84548290001112,252.84548290001112,23,0,,,252.84548290001112,253.04567640001187,1000,253.04567640001187,1000,1000,1000,1000,0,num_3,0.47388609999325126,,18,12,2026-03-02_11h14.18.564,2026A_exp2,2022.2.4,60.03658629820367,
1,0,0.0,6.1,1,0,87,87,36,,,,,253.54611310001928,254.18055410002125,254.18055410002125,254.68160100001842,45,315,254.68160100001842,254.68160100001842,254.68160100001842,254.68160100001842,254.68160100001842,254.68160100001842,254.68160100001842,254.68160100001842,254.68160100001842,255.04787219999707,255.04787219999707,255.04787219999707,255.04787219999707,255.04787219999707,255.04787219999707,255.04787219999707,255.04787219999707,255.04787219999707,23,0,,,255.04787219999707,255.24785860002157,6.1,255.24785860002157,1,6.1,1,1,1000,num_4,0.3912016999965999,,18,12,2026-03-02_11h14.18.564,2026A_exp2,2022.2.4,60.03658629820367,
1000,1,3.7,0.0,1,0,88,88,19,,,,,255.6655383000034,256.3019042000233,256.3019042000233,256.80039270001,45,315,256.80039270001,256.80039270001,256.80039270001,256.80039270001,256.80039270001,256.80039270001,256.80039270001,256.80039270001,256.80039270001,257.16733789999853,257.16733789999853,257.16733789999853,257.16733789999853,257.16733789999853,257.16733789999853,257.16733789999853,257.16733789999853,257.16733789999853,23,0,,,257.16733789999853,257.36728850001236,1000,257.36728850001236,1000,1000,1000,1000,0,num_3,0.4398599000123795,,18,12,2026-03-02_11h14.18.564,2026A_exp2,2022.2.4,60.03658629820367,
1000,1,3.7,4.9,0,0,89,89,45,,,,,257.83405050000874,258.48499710002216,258.48499710002216,258.96935630001826,315,315,258.96935630001826,258.96935630001826,258.96935630001826,258.96935630001826,258.96935630001826,258.96935630001826,258.96935630001826,258.96935630001826,258.96935630001826,259.3360624000197,259.3360624000197,259.3360624000197,259.3360624000197,259.3360624000197,259.3360624000197,259.3360624000197,259.3360624000197,259.3360624000197,23,0,,,259.3360624000197,259.5355586000078,1000,259.5355586000078,1000,1000,1000,1000,1,num_2,0.5439716999826487,,18,12,2026-03-02_11h14.18.564,2026A_exp2,2022.2.4,60.03658629820367,
,,,,,,,,,,,,,,,,,,,,,,,,,,,,,,,,,,,,,,,,,,,,,,,,,,,,260.10757000002195,,,,,,,
