validity,detectorcomp,contrastCW,contrastCCW,precueCWorCCW,block_80trials.thisRepN,block_80trials.thisTrialN,block_80trials.thisN,block_80trials.thisIndex,etRecord.started,etRecord.stopped,text.started,text.stopped,text_4.started,text_4.stopped,text_6.started,text_6.stopped,oriCW,oriCCW,roi_2.started,grating_UR.started,grating_UL.started,grating_LR.started,grating_LL.started,noise_UR.started,noise_UL.started,noise_LR.started,noise_LL.started,roi_2.stopped,grating_UR.stopped,grating_UL.stopped,grating_LR.stopped,grating_LL.stopped,noise_UR.stopped,noise_UL.stopped,noise_LR.stopped,noise_LL.stopped,outframe,roi_2.numLooks,roi_2.timesOn,roi_2.timesOff,text_2.started,text_2.stopped,probedcontrast,key_resp.started,respdetect,relevantContrast,correctDetect,TorFdetect,respCWorCCW,key_resp.keys,key_resp.rt,feedback_display_.started,participantNo,blockNo,date,expName,psychopyVersion,frameRate,
1000,1,0.0,0.0,0,0,0,0,45,5.8699981309473515e-05,5.8699981309473515e-05,59.68759109999519,61.693931499961764,61.693931499961764,62.3238616999588,62.3238616999588,62.84272409998812,315,315,62.84272409998812,62.84272409998812,62.84272409998812,62.84272409998812,62.84272409998812,62.84272409998812,62.84272409998812,62.84272409998812,62.84272409998812,63.19142019998981,63.19142019998981,63.19142019998981,63.19142019998981,63.19142019998981,63.19142019998981,63.19142019998981,63.19142019998981,63.19142019998981,23,0,,,63.19142019998981,63.39560829999391,1000,63.39560829999391,1000,1000,1000,1000,1,num_2,0.9807304000132717,,28,5,2026-03-05_15h42.04.795,2026A_exp2,2022.2.4,59.969007997099496,
1,0,3.7,0.0,1,0,1,1,30,,,,,64.3927167999791,65.04328559996793,65.04328559996793,65.5444434999954,45,45,65.5444434999954,65.5444434999954,65.5444434999954,65.5444434999954,65.5444434999954,65.5444434999954,65.5444434999954,65.5444434999954,65.5444434999954,65.91072069999063,65.91072069999063,65.91072069999063,65.91072069999063,65.91072069999063,65.91072069999063,65.91072069999063,65.91072069999063,65.91072069999063,2,1,[0.0008525000303052366],[0.3510939000407234],65.91072069999063,66.11105919996044,0.0,66.11105919996044,1,0.0,0,0,1000,num_4,0.8660188000067137,,28,5,2026-03-05_15h42.04.795,2026A_exp2,2022.2.4,59.969007997099496,
1000,1,3.7,0.0,0,0,2,2,69,,,,,66.99530939996475,67.64599539997289,67.64599539997289,68.1301563999732,315,45,68.1301563999732,68.1301563999732,68.1301563999732,68.1301563999732,68.1301563999732,68.1301563999732,68.1301563999732,68.1301563999732,68.1301563999732,68.49664269998902,68.49664269998902,68.49664269998902,68.49664269998902,68.49664269998902,68.49664269998902,68.49664269998902,68.49664269998902,68.49664269998902,23,0,,,68.49664269998902,68.69821969995974,1000,68.69821969995974,1000,1000,1000,1000,0,num_3,0.8788732000393793,,28,5,2026-03-05_15h42.04.795,2026A_exp2,2022.2.4,59.969007997099496,
1000,1,3.7,0.0,0,0,3,3,35,,,,,69.59780980000505,70.24840169999516,70.24840169999516,70.749535299954,45,45,70.749535299954,70.749535299954,70.749535299954,70.749535299954,70.749535299954,70.749535299954,70.749535299954,70.749535299954,70.749535299954,71.11594210000476,71.11594210000476,71.11594210000476,71.11594210000476,71.11594210000476,71.11594210000476,71.11594210000476,71.11594210000476,71.11594210000476,9,1,[0.001248599961400032],[0.2335558999911882],71.11594210000476,71.31791619997239,1000,71.31791619997239,1000,1000,1000,1000,1,num_2,0.8505028000217862,,28,5,2026-03-05_15h42.04.795,2026A_exp2,2022.2.4,59.969007997099496,
1000,1,4.9,0.0,1,0,4,4,67,,,,,72.18370080000022,72.83443679998163,72.83443679998163,73.33540939999511,45,315,73.33540939999511,73.33540939999511,73.33540939999511,73.33540939999511,73.33540939999511,73.33540939999511,73.33540939999511,73.33540939999511,73.33540939999511,73.70193219999783,73.70193219999783,73.70193219999783,73.70193219999783,73.70193219999783,73.70193219999783,73.70193219999783,73.70193219999783,73.70193219999783,23,0,,,73.70193219999783,73.9039652000065,1000,73.9039652000065,1000,1000,1000,1000,1,num_2,0.9208607999607921,,28,5,2026-03-05_15h42.04.795,2026A_exp2,2022.2.4,59.969007997099496,
1000,1,0.0,0.0,1,0,5,5,2,,,,,74.85318869998446,75.50375119998353,75.50375119998353,76.00489399995422,315,315,76.00489399995422,76.00489399995422,76.00489399995422,76.00489399995422,76.00489399995422,76.00489399995422,76.00489399995422,76.00489399995422,76.00489399995422,76.37128329998814,76.37128329998814,76.37128329998814,76.37128329998814,76.37128329998814,76.37128329998814,76.37128329998814,76.37128329998814,76.37128329998814,23,0,,,76.37128329998814,76.57328839995898,1000,76.57328839995898,1000,1000,1000,1000,0,num_3,0.6833475999883376,,28,5,2026-03-05_15h42.04.795,2026A_exp2,2022.2.4,59.969007997099496,
0,0,3.7,4.9,0,0,6,6,77,,,,,77.27210129995365,77.9230591999949,77.9230591999949,78.40700109995669,45,45,78.40700109995669,78.40700109995669,78.40700109995669,78.40700109995669,78.40700109995669,78.40700109995669,78.40700109995669,78.40700109995669,78.40700109995669,78.77368919999572,78.77368919999572,78.77368919999572,78.77368919999572,78.77368919999572,78.77368919999572,78.77368919999572,78.77368919999572,78.77368919999572,23,0,,,78.77368919999572,78.97382939996896,4.9,78.97382939996896,1,4.9,1,1,1000,num_4,1.370814399968367,,28,5,2026-03-05_15h42.04.795,2026A_exp2,2022.2.4,59.969007997099496,
1,0,4.9,6.1,0,0,7,7,82,,,,,80.36019529995974,81.00942019996,81.00942019996,81.51038389996393,315,315,81.51038389996393,81.51038389996393,81.51038389996393,81.51038389996393,81.51038389996393,81.51038389996393,81.51038389996393,81.51038389996393,81.51038389996393,81.8767050000024,81.8767050000024,81.8767050000024,81.8767050000024,81.8767050000024,81.8767050000024,81.8767050000024,81.8767050000024,81.8767050000024,22,1,[0.05009879998397082],[0.06662509997840971],81.8767050000024,82.07669660000829,4.9,82.07669660000829,1,4.9,1,1,1000,num_4,3.6764512000372633,,28,5,2026-03-05_15h42.04.795,2026A_exp2,2022.2.4,59.969007997099496,
0,0,3.7,0.0,1,0,8,8,1,,,,,85.78044539998518,86.41448969999328,86.41448969999328,86.91565039998386,315,45,86.91565039998386,86.91565039998386,86.91565039998386,86.91565039998386,86.91565039998386,86.91565039998386,86.91565039998386,86.91565039998386,86.91565039998386,87.28206509997835,87.28206509997835,87.28206509997835,87.28206509997835,87.28206509997835,87.28206509997835,87.28206509997835,87.28206509997835,87.28206509997835,18,3,"[0.0012094000121578574, 0.10018830001354218, 0.21710710000479594]","[0.01732460001949221, 0.13363370002480224, 0.2505314000300132]",87.28206509997835,87.48240129998885,3.7,87.48240129998885,1,3.7,1,1,1000,num_4,1.0218620999949053,,28,5,2026-03-05_15h42.04.795,2026A_exp2,2022.2.4,59.969007997099496,
1000,1,4.9,3.7,0,0,9,9,28,,,,,88.53356969996821,89.18414470000425,89.18414470000425,89.66849199996796,315,45,89.66849199996796,89.66849199996796,89.66849199996796,89.66849199996796,89.66849199996796,89.66849199996796,89.66849199996796,89.66849199996796,89.66849199996796,90.03496739995899,90.03496739995899,90.03496739995899,90.03496739995899,90.03496739995899,90.03496739995899,90.03496739995899,90.03496739995899,90.03496739995899,13,1,[0.001209300011396408],[0.16692009998951107],90.03496739995899,90.23501899995608,1000,90.23501899995608,1000,1000,1000,1000,1,num_2,0.8373036999837495,,28,5,2026-03-05_15h42.04.795,2026A_exp2,2022.2.4,59.969007997099496,
1000,1,0.0,0.0,1,0,10,10,73,,,,,91.1025942999986,91.75340190000134,91.75340190000134,92.25419770000735,315,315,92.25419770000735,92.25419770000735,92.25419770000735,92.25419770000735,92.25419770000735,92.25419770000735,92.25419770000735,92.25419770000735,92.25419770000735,92.62093629996525,92.62093629996525,92.62093629996525,92.62093629996525,92.62093629996525,92.62093629996525,92.62093629996525,92.62093629996525,92.62093629996525,0,1,[0.0012464000028558075],[0.3669176999828778],92.62093629996525,92.82510789996013,1000,92.82510789996013,1000,1000,1000,1000,0,num_3,0.5834356999839656,,28,5,2026-03-05_15h42.04.795,2026A_exp2,2022.2.4,59.969007997099496,
1,0,0.0,6.1,1,0,11,11,46,,,,,93.43824210000457,94.08904859999893,94.08904859999893,94.59002040000632,315,315,94.59002040000632,94.59002040000632,94.59002040000632,94.59002040000632,94.59002040000632,94.59002040000632,94.59002040000632,94.59002040000632,94.59002040000632,94.9565525999642,94.9565525999642,94.9565525999642,94.9565525999642,94.9565525999642,94.9565525999642,94.9565525999642,94.9565525999642,94.9565525999642,13,5,"[0.050357399974018335, 0.08373289997689426, 0.16741940000792965, 0.20066329999826849, 0.28409929998451844]","[0.06691270001465455, 0.10055219999048859, 0.183993200014811, 0.21731440001167357, 0.36752359999809414]",94.9565525999642,95.15631479996955,6.1,95.15631479996955,1,6.1,1,1,1000,num_4,0.7319025999750011,,28,5,2026-03-05_15h42.04.795,2026A_exp2,2022.2.4,59.969007997099496,
1000,1,0.0,0.0,0,0,12,12,62,,,,,95.90735649998533,96.55806169996504,96.55806169996504,97.04256999999052,45,45,97.04256999999052,97.04256999999052,97.04256999999052,97.04256999999052,97.04256999999052,97.04256999999052,97.04256999999052,97.04256999999052,97.04256999999052,97.40879570000106,97.40879570000106,97.40879570000106,97.40879570000106,97.40879570000106,97.40879570000106,97.40879570000106,97.40879570000106,97.40879570000106,23,0,,,97.40879570000106,97.6110460999771,1000,97.6110460999771,1000,1000,1000,1000,1,num_2,0.31746489997021854,,28,5,2026-03-05_15h42.04.795,2026A_exp2,2022.2.4,59.969007997099496,
1000,1,0.0,0.0,0,0,13,13,57,,,,,97.95944419997977,98.61020190001,98.61020190001,99.11134999996284,315,45,99.11134999996284,99.11134999996284,99.11134999996284,99.11134999996284,99.11134999996284,99.11134999996284,99.11134999996284,99.11134999996284,99.11134999996284,99.47778560000006,99.47778560000006,99.47778560000006,99.47778560000006,99.47778560000006,99.47778560000006,99.47778560000006,99.47778560000006,99.47778560000006,23,0,,,99.47778560000006,99.67984669998987,1000,99.67984669998987,1000,1000,1000,1000,0,num_3,0.7846803999855183,,28,5,2026-03-05_15h42.04.795,2026A_exp2,2022.2.4,59.969007997099496,
1,0,3.7,0.0,0,0,14,14,26,,,,,100.49516379996203,101.14596319996053,101.14596319996053,101.64727989997482,315,315,101.64727989997482,101.64727989997482,101.64727989997482,101.64727989997482,101.64727989997482,101.64727989997482,101.64727989997482,101.64727989997482,101.64727989997482,102.01350100000855,102.01350100000855,102.01350100000855,102.01350100000855,102.01350100000855,102.01350100000855,102.01350100000855,102.01350100000855,102.01350100000855,16,1,[0.0007565999985672534],[0.11735789995873347],102.01350100000855,102.21364719996927,3.7,102.21364719996927,0,3.7,1,0,1000,num_1,0.9785690999706276,,28,5,2026-03-05_15h42.04.795,2026A_exp2,2022.2.4,59.969007997099496,
0,0,0.0,0.0,1,0,15,15,44,,,,,103.21474939998006,103.86534630000824,103.86534630000824,104.34985910000978,315,45,104.34985910000978,104.34985910000978,104.34985910000978,104.34985910000978,104.34985910000978,104.34985910000978,104.34985910000978,104.34985910000978,104.34985910000978,104.71613299997989,104.71613299997989,104.71613299997989,104.71613299997989,104.71613299997989,104.71613299997989,104.71613299997989,104.71613299997989,104.71613299997989,11,1,[0.0012468000059016049],[0.20039920002454892],104.71613299997989,104.91650240001036,0.0,104.91650240001036,0,0.0,0,1,1000,num_1,0.9248807999538258,,28,5,2026-03-05_15h42.04.795,2026A_exp2,2022.2.4,59.969007997099496,
1,0,6.1,0.0,1,0,16,16,17,,,,,105.86746519996086,106.51805199997034,106.51805199997034,107.00265479995869,45,315,107.00265479995869,107.00265479995869,107.00265479995869,107.00265479995869,107.00265479995869,107.00265479995869,107.00265479995869,107.00265479995869,107.00265479995869,107.368776599993,107.368776599993,107.368776599993,107.368776599993,107.368776599993,107.368776599993,107.368776599993,107.368776599993,107.368776599993,16,1,[0.2669307999894954],[0.3669713999843225],107.368776599993,107.5691295999568,0.0,107.5691295999568,1,0.0,0,0,1000,num_4,0.9361415999592282,,28,5,2026-03-05_15h42.04.795,2026A_exp2,2022.2.4,59.969007997099496,
0,0,3.7,0.0,0,0,17,17,18,,,,,108.53676639997866,109.18742019997444,109.18742019997444,109.67181059997529,315,315,109.67181059997529,109.67181059997529,109.67181059997529,109.67181059997529,109.67181059997529,109.67181059997529,109.67181059997529,109.67181059997529,109.67181059997529,110.03827939997427,110.03827939997427,110.03827939997427,110.03827939997427,110.03827939997427,110.03827939997427,110.03827939997427,110.03827939997427,110.03827939997427,22,1,[0.10048429999733344],[0.11716629995498806],110.03827939997427,110.23830109997652,0.0,110.23830109997652,1,0.0,0,0,1000,num_4,0.7463802000274882,,28,5,2026-03-05_15h42.04.795,2026A_exp2,2022.2.4,59.969007997099496,
1,0,0.0,4.9,0,0,18,18,70,,,,,111.00592649995815,111.65641930000857,111.65641930000857,112.14095939998515,315,315,112.14095939998515,112.14095939998515,112.14095939998515,112.14095939998515,112.14095939998515,112.14095939998515,112.14095939998515,112.14095939998515,112.14095939998515,112.50736139999935,112.50736139999935,112.50736139999935,112.50736139999935,112.50736139999935,112.50736139999935,112.50736139999935,112.50736139999935,112.50736139999935,23,0,,,112.50736139999935,112.70767869998235,0.0,112.70767869998235,0,0.0,0,1,1000,num_1,0.41309299995191395,,28,5,2026-03-05_15h42.04.795,2026A_exp2,2022.2.4,59.969007997099496,
1000,1,0.0,6.1,1,0,19,19,13,,,,,113.14132059999974,113.79204539995408,113.79204539995408,114.27625239995541,315,315,114.27625239995541,114.27625239995541,114.27625239995541,114.27625239995541,114.27625239995541,114.27625239995541,114.27625239995541,114.27625239995541,114.27625239995541,114.64276429999154,114.64276429999154,114.64276429999154,114.64276429999154,114.64276429999154,114.64276429999154,114.64276429999154,114.64276429999154,114.64276429999154,22,1,[0.13346480001928285],[0.15012840001145378],114.64276429999154,114.84497909998754,1000,114.84497909998754,1000,1000,1000,1000,0,num_3,0.6676914999843575,,28,5,2026-03-05_15h42.04.795,2026A_exp2,2022.2.4,59.969007997099496,
1000,1,3.7,6.1,0,0,20,20,60,,,,,115.54377359995851,116.19451369997114,116.19451369997114,116.67888769996352,315,315,116.67888769996352,116.67888769996352,116.67888769996352,116.67888769996352,116.67888769996352,116.67888769996352,116.67888769996352,116.67888769996352,116.67888769996352,117.04530569998315,117.04530569998315,117.04530569998315,117.04530569998315,117.04530569998315,117.04530569998315,117.04530569998315,117.04530569998315,117.04530569998315,23,0,,,117.04530569998315,117.24724799999967,1000,117.24724799999967,1000,1000,1000,1000,1,num_2,0.6652995999902487,,28,5,2026-03-05_15h42.04.795,2026A_exp2,2022.2.4,59.969007997099496,
1,0,0.0,6.1,0,0,21,21,24,,,,,117.92955810000421,118.58015499997418,118.58015499997418,119.0813288000063,45,45,119.0813288000063,119.0813288000063,119.0813288000063,119.0813288000063,119.0813288000063,119.0813288000063,119.0813288000063,119.0813288000063,119.0813288000063,119.44778009998845,119.44778009998845,119.44778009998845,119.44778009998845,119.44778009998845,119.44778009998845,119.44778009998845,119.44778009998845,119.44778009998845,23,0,,,119.44778009998845,119.64795379998395,0.0,119.64795379998395,0,0.0,0,1,1000,num_1,1.353103400033433,,28,5,2026-03-05_15h42.04.795,2026A_exp2,2022.2.4,59.969007997099496,
1,0,0.0,0.0,1,0,22,22,31,,,,,121.03262889996404,121.68326389999129,121.68326389999129,122.16751939995447,45,315,122.16751939995447,122.16751939995447,122.16751939995447,122.16751939995447,122.16751939995447,122.16751939995447,122.16751939995447,122.16751939995447,122.16751939995447,122.53409359999932,122.53409359999932,122.53409359999932,122.53409359999932,122.53409359999932,122.53409359999932,122.53409359999932,122.53409359999932,122.53409359999932,23,0,,,122.53409359999932,122.73424669995438,0.0,122.73424669995438,0,0.0,0,1,1000,num_1,0.8257217999780551,,28,5,2026-03-05_15h42.04.795,2026A_exp2,2022.2.4,59.969007997099496,
1000,1,6.1,0.0,0,0,23,23,58,,,,,123.58512790000532,124.21909049997339,124.21909049997339,124.72027669998351,315,45,124.72027669998351,124.72027669998351,124.72027669998351,124.72027669998351,124.72027669998351,124.72027669998351,124.72027669998351,124.72027669998351,124.72027669998351,125.08666149998317,125.08666149998317,125.08666149998317,125.08666149998317,125.08666149998317,125.08666149998317,125.08666149998317,125.08666149998317,125.08666149998317,12,2,"[0.0012011000071652234, 0.13351180002791807]","[0.11701650003669783, 0.20028850005473942]",125.08666149998317,125.28842299996177,1000,125.28842299996177,1000,1000,1000,1000,0,num_3,0.8475931999855675,,28,5,2026-03-05_15h42.04.795,2026A_exp2,2022.2.4,59.969007997099496,
1000,1,6.1,4.9,0,0,24,24,81,,,,,126.1545123999822,126.80498680000892,126.80498680000892,127.30607009999221,45,315,127.30607009999221,127.30607009999221,127.30607009999221,127.30607009999221,127.30607009999221,127.30607009999221,127.30607009999221,127.30607009999221,127.30607009999221,127.672378999996,127.672378999996,127.672378999996,127.672378999996,127.672378999996,127.672378999996,127.672378999996,127.672378999996,127.672378999996,17,4,"[0.017261100001633167, 0.16702389996498823, 0.2336842999793589, 0.3504352999734692]","[0.06685169995762408, 0.1836030999547802, 0.250312699994538, 0.36681059998227283]",127.672378999996,127.8747466999921,1000,127.8747466999921,1000,1000,1000,1000,1,num_2,1.3812684000004083,,28,5,2026-03-05_15h42.04.795,2026A_exp2,2022.2.4,59.969007997099496,
1,0,0.0,0.0,0,0,25,25,87,,,,,129.27425929997116,129.9248464999837,129.9248464999837,130.43570529995486,315,315,130.43570529995486,130.43570529995486,130.43570529995486,130.43570529995486,130.43570529995486,130.43570529995486,130.43570529995486,130.43570529995486,130.43570529995486,130.7756526999874,130.7756526999874,130.7756526999874,130.7756526999874,130.7756526999874,130.7756526999874,130.7756526999874,130.7756526999874,130.7756526999874,22,0,,,130.7756526999874,130.97616530000232,0.0,130.97616530000232,0,0.0,0,1,1000,num_1,0.8164663999923505,,28,5,2026-03-05_15h42.04.795,2026A_exp2,2022.2.4,59.969007997099496,
1,0,0.0,4.9,0,0,26,26,14,,,,,131.80986259999918,132.4606802999624,132.4606802999624,132.94507199997315,315,315,132.94507199997315,132.94507199997315,132.94507199997315,132.94507199997315,132.94507199997315,132.94507199997315,132.94507199997315,132.94507199997315,132.94507199997315,133.3115501999855,133.3115501999855,133.3115501999855,133.3115501999855,133.3115501999855,133.3115501999855,133.3115501999855,133.3115501999855,133.3115501999855,3,2,"[0.001191499992273748, 0.08352720004040748]","[0.033299900009296834, 0.36697040003491566]",133.3115501999855,133.51175850001164,0.0,133.51175850001164,0,0.0,0,1,1000,num_1,0.4562685000128113,,28,5,2026-03-05_15h42.04.795,2026A_exp2,2022.2.4,59.969007997099496,
1000,1,0.0,3.7,0,0,27,27,23,,,,,133.9956323999795,134.64653189998353,134.64653189998353,135.13061140000354,315,315,135.13061140000354,135.13061140000354,135.13061140000354,135.13061140000354,135.13061140000354,135.13061140000354,135.13061140000354,135.13061140000354,135.13061140000354,135.49705139995785,135.49705139995785,135.49705139995785,135.49705139995785,135.49705139995785,135.49705139995785,135.49705139995785,135.49705139995785,135.49705139995785,22,1,[0.23386449995450675],[0.25056499999482185],135.49705139995785,135.69899459998123,1000,135.69899459998123,1000,1000,1000,1000,0,num_3,0.6692286999896169,,28,5,2026-03-05_15h42.04.795,2026A_exp2,2022.2.4,59.969007997099496,
1000,1,6.1,0.0,1,0,28,28,79,,,,,136.39804369997,137.04858659999445,137.04858659999445,137.53309439995792,45,45,137.53309439995792,137.53309439995792,137.53309439995792,137.53309439995792,137.53309439995792,137.53309439995792,137.53309439995792,137.53309439995792,137.53309439995792,137.8993468999979,137.8993468999979,137.8993468999979,137.8993468999979,137.8993468999979,137.8993468999979,137.8993468999979,137.8993468999979,137.8993468999979,23,0,,,137.8993468999979,138.09954069997184,1000,138.09954069997184,1000,1000,1000,1000,1,num_2,0.7093637999496423,,28,5,2026-03-05_15h42.04.795,2026A_exp2,2022.2.4,59.969007997099496,
1000,1,0.0,6.1,0,0,29,29,20,,,,,138.83379329997115,139.484379099973,139.484379099973,139.98534329998074,45,45,139.98534329998074,139.98534329998074,139.98534329998074,139.98534329998074,139.98534329998074,139.98534329998074,139.98534329998074,139.98534329998074,139.98534329998074,140.33524210000178,140.33524210000178,140.33524210000178,140.33524210000178,140.33524210000178,140.33524210000178,140.33524210000178,140.33524210000178,140.33524210000178,22,0,,,140.33524210000178,140.53711899998598,1000,140.55220829998143,1000,1000,1000,1000,1,num_2,1.0318646999658085,,28,5,2026-03-05_15h42.04.795,2026A_exp2,2022.2.4,59.969007997099496,
1000,1,0.0,6.1,0,0,30,30,16,,,,,141.60330299998168,142.25479279999854,142.25479279999854,142.75489009998273,45,315,142.75489009998273,142.75489009998273,142.75489009998273,142.75489009998273,142.75489009998273,142.75489009998273,142.75489009998273,142.75489009998273,142.75489009998273,143.12122809997527,143.12122809997527,143.12122809997527,143.12122809997527,143.12122809997527,143.12122809997527,143.12122809997527,143.12122809997527,143.12122809997527,23,0,,,143.12122809997527,143.32323959999485,1000,143.32323959999485,1000,1000,1000,1000,0,num_3,0.541394500003662,,28,5,2026-03-05_15h42.04.795,2026A_exp2,2022.2.4,59.969007997099496,
1000,1,0.0,0.0,0,0,31,31,65,,,,,143.88876639999216,144.53961939999135,144.53961939999135,145.0403661999735,45,45,145.0403661999735,145.0403661999735,145.0403661999735,145.0403661999735,145.0403661999735,145.0403661999735,145.0403661999735,145.0403661999735,145.0403661999735,145.40687129995786,145.40687129995786,145.40687129995786,145.40687129995786,145.40687129995786,145.40687129995786,145.40687129995786,145.40687129995786,145.40687129995786,23,0,,,145.40687129995786,145.60856089997105,1000,145.60856089997105,1000,1000,1000,1000,1,num_2,0.37562160001834854,,28,5,2026-03-05_15h42.04.795,2026A_exp2,2022.2.4,59.969007997099496,
1000,1,0.0,3.7,0,0,32,32,63,,,,,146.00754709995817,146.65816910000285,146.65816910000285,147.15910289995372,315,315,147.15910289995372,147.15910289995372,147.15910289995372,147.15910289995372,147.15910289995372,147.15910289995372,147.15910289995372,147.15910289995372,147.15910289995372,147.52574289997574,147.52574289997574,147.52574289997574,147.52574289997574,147.52574289997574,147.52574289997574,147.52574289997574,147.52574289997574,147.52574289997574,23,0,,,147.52574289997574,147.72754729998996,1000,147.72754729998996,1000,1000,1000,1000,0,num_3,0.6172787999967113,,28,5,2026-03-05_15h42.04.795,2026A_exp2,2022.2.4,59.969007997099496,
1000,1,6.1,3.7,1,0,33,33,11,,,,,148.37649980001152,149.02723859995604,149.02723859995604,149.5115899000084,45,45,149.5115899000084,149.5115899000084,149.5115899000084,149.5115899000084,149.5115899000084,149.5115899000084,149.5115899000084,149.5115899000084,149.5115899000084,149.8777129999944,149.8777129999944,149.8777129999944,149.8777129999944,149.8777129999944,149.8777129999944,149.8777129999944,149.8777129999944,149.8777129999944,23,0,,,149.8777129999944,150.07999319996452,1000,150.07999319996452,1000,1000,1000,1000,0,num_3,3.8001825000392273,,28,5,2026-03-05_15h42.04.795,2026A_exp2,2022.2.4,59.969007997099496,
0,0,6.1,0.0,1,0,34,34,25,,,,,153.89880659995833,154.5494611999602,154.5494611999602,155.0507294999552,45,45,155.0507294999552,155.0507294999552,155.0507294999552,155.0507294999552,155.0507294999552,155.0507294999552,155.0507294999552,155.0507294999552,155.0507294999552,155.4169772999594,155.4169772999594,155.4169772999594,155.4169772999594,155.4169772999594,155.4169772999594,155.4169772999594,155.4169772999594,155.4169772999594,23,0,,,155.4169772999594,155.61730300000636,6.1,155.61730300000636,0,6.1,1,0,1000,num_1,0.7672568999696523,,28,5,2026-03-05_15h42.04.795,2026A_exp2,2022.2.4,59.969007997099496,
1000,1,0.0,3.7,0,0,35,35,43,,,,,156.40129839995643,157.05178569996497,157.05178569996497,157.55283929995494,315,45,157.55283929995494,157.55283929995494,157.55283929995494,157.55283929995494,157.55283929995494,157.55283929995494,157.55283929995494,157.55283929995494,157.55283929995494,157.90271649998613,157.90271649998613,157.90271649998613,157.90271649998613,157.90271649998613,157.90271649998613,157.90271649998613,157.90271649998613,157.90271649998613,22,0,,,157.90271649998613,158.10497879999457,1000,158.10497879999457,1000,1000,1000,1000,0,num_3,0.6155235999613069,,28,5,2026-03-05_15h42.04.795,2026A_exp2,2022.2.4,59.969007997099496,
1,0,0.0,0.0,1,0,36,36,6,,,,,158.7368641999783,159.38748779997695,159.38748779997695,159.88872529997025,315,315,159.88872529997025,159.88872529997025,159.88872529997025,159.88872529997025,159.88872529997025,159.88872529997025,159.88872529997025,159.88872529997025,159.88872529997025,160.23847390001174,160.23847390001174,160.23847390001174,160.23847390001174,160.23847390001174,160.23847390001174,160.23847390001174,160.23847390001174,160.23847390001174,3,3,"[0.001254200004041195, 0.3005251999711618, 0.33399670000653714]","[0.2670207999763079, 0.31732349999947473, 0.3504187999642454]",160.23847390001174,160.4387160000042,0.0,160.4387160000042,1,0.0,0,0,1000,num_4,0.7705377999809571,,28,5,2026-03-05_15h42.04.795,2026A_exp2,2022.2.4,59.969007997099496,
1000,1,3.7,4.9,1,0,37,37,71,,,,,161.23948220000602,161.8901794999838,161.8901794999838,162.37447189999511,315,45,162.37447189999511,162.37447189999511,162.37447189999511,162.37447189999511,162.37447189999511,162.37447189999511,162.37447189999511,162.37447189999511,162.37447189999511,162.74096679996,162.74096679996,162.74096679996,162.74096679996,162.74096679996,162.74096679996,162.74096679996,162.74096679996,162.74096679996,23,0,,,162.74096679996,162.94139059999725,1000,162.94139059999725,1000,1000,1000,1000,0,num_3,0.7230104000191204,,28,5,2026-03-05_15h42.04.795,2026A_exp2,2022.2.4,59.969007997099496,
1000,1,0.0,0.0,1,0,38,38,56,,,,,163.69200529996306,164.34257839998463,164.34257839998463,164.8435618999647,315,315,164.8435618999647,164.8435618999647,164.8435618999647,164.8435618999647,164.8435618999647,164.8435618999647,164.8435618999647,164.8435618999647,164.8435618999647,165.20974439999554,165.20974439999554,165.20974439999554,165.20974439999554,165.20974439999554,165.20974439999554,165.20974439999554,165.20974439999554,165.20974439999554,23,0,,,165.20974439999554,165.4123990999651,1000,165.4123990999651,1000,1000,1000,1000,0,num_3,0.7476370999938808,,28,5,2026-03-05_15h42.04.795,2026A_exp2,2022.2.4,59.969007997099496,
1,0,6.1,6.1,1,0,39,39,47,,,,,166.17778550001094,166.82842159998836,166.82842159998836,167.3294974999735,45,45,167.3294974999735,167.3294974999735,167.3294974999735,167.3294974999735,167.3294974999735,167.3294974999735,167.3294974999735,167.3294974999735,167.3294974999735,167.69581949996063,167.69581949996063,167.69581949996063,167.69581949996063,167.69581949996063,167.69581949996063,167.69581949996063,167.69581949996063,167.69581949996063,23,0,,,167.69581949996063,167.89608380000573,6.1,167.89608380000573,0,6.1,1,0,1000,num_1,7.632523000007495,,28,5,2026-03-05_15h42.04.795,2026A_exp2,2022.2.4,59.969007997099496,
1,0,4.9,4.9,1,0,40,40,9,,,,,175.55383799999254,176.2044479000033,176.2044479000033,176.68889509997098,45,315,176.68889509997098,176.68889509997098,176.68889509997098,176.68889509997098,176.68889509997098,176.68889509997098,176.68889509997098,176.68889509997098,176.68889509997098,177.05531659995904,177.05531659995904,177.05531659995904,177.05531659995904,177.05531659995904,177.05531659995904,177.05531659995904,177.05531659995904,177.05531659995904,23,0,,,177.05531659995904,177.25552629999584,4.9,177.25552629999584,1,4.9,1,1,1000,num_4,1.3845020000007935,,28,5,2026-03-05_15h42.04.795,2026A_exp2,2022.2.4,59.969007997099496,
1000,1,4.9,0.0,0,0,41,41,50,,,,,178.65696449996904,179.30754419998266,179.30754419998266,179.79190789995482,315,45,179.79190789995482,179.79190789995482,179.79190789995482,179.79190789995482,179.79190789995482,179.79190789995482,179.79190789995482,179.79190789995482,179.79190789995482,180.15821669995785,180.15821669995785,180.15821669995785,180.15821669995785,180.15821669995785,180.15821669995785,180.15821669995785,180.15821669995785,180.15821669995785,23,0,,,180.15821669995785,180.3602310999995,1000,180.3602310999995,1000,1000,1000,1000,0,num_3,0.7446037999470718,,28,5,2026-03-05_15h42.04.795,2026A_exp2,2022.2.4,59.969007997099496,
1000,1,4.9,0.0,1,0,42,42,12,,,,,181.12603609997313,181.7766606999794,181.7766606999794,182.27780489996076,45,45,182.27780489996076,182.27780489996076,182.27780489996076,182.27780489996076,182.27780489996076,182.27780489996076,182.27780489996076,182.27780489996076,182.27780489996076,182.64424659998622,182.64424659998622,182.64424659998622,182.64424659998622,182.64424659998622,182.64424659998622,182.64424659998622,182.64424659998622,182.64424659998622,23,0,,,182.64424659998622,182.8462179999915,1000,182.8462179999915,1000,1000,1000,1000,1,num_2,0.4826286999741569,,28,5,2026-03-05_15h42.04.795,2026A_exp2,2022.2.4,59.969007997099496,
1,0,0.0,0.0,1,0,43,43,38,,,,,183.3447274999926,183.9955692999647,183.9955692999647,184.49674360000063,45,45,184.49674360000063,184.49674360000063,184.49674360000063,184.49674360000063,184.49674360000063,184.49674360000063,184.49674360000063,184.49674360000063,184.49674360000063,184.8631029999815,184.8631029999815,184.8631029999815,184.8631029999815,184.8631029999815,184.8631029999815,184.8631029999815,184.8631029999815,184.8631029999815,23,0,,,184.8631029999815,185.0632303999737,0.0,185.0632303999737,0,0.0,0,1,1000,num_1,0.4818538000108674,,28,5,2026-03-05_15h42.04.795,2026A_exp2,2022.2.4,59.969007997099496,
0,0,6.1,3.7,0,0,44,44,49,,,,,185.56367519998457,186.2144649999682,186.2144649999682,186.69872709998162,45,45,186.69872709998162,186.69872709998162,186.69872709998162,186.69872709998162,186.69872709998162,186.69872709998162,186.69872709998162,186.69872709998162,186.69872709998162,187.0652786999708,187.0652786999708,187.0652786999708,187.0652786999708,187.0652786999708,187.0652786999708,187.0652786999708,187.0652786999708,187.0652786999708,23,0,,,187.0652786999708,187.26541150000412,3.7,187.26541150000412,1,3.7,1,1,1000,num_4,0.8075746999820694,,28,5,2026-03-05_15h42.04.795,2026A_exp2,2022.2.4,59.969007997099496,
1,0,0.0,0.0,0,0,45,45,80,,,,,188.09969379997347,188.7502356999903,188.7502356999903,189.23482169996714,315,45,189.23482169996714,189.23482169996714,189.23482169996714,189.23482169996714,189.23482169996714,189.23482169996714,189.23482169996714,189.23482169996714,189.23482169996714,189.60099649999756,189.60099649999756,189.60099649999756,189.60099649999756,189.60099649999756,189.60099649999756,189.60099649999756,189.60099649999756,189.60099649999756,23,0,,,189.60099649999756,189.8013035999611,0.0,189.8013035999611,0,0.0,0,1,1000,num_1,0.48673730000155047,,28,5,2026-03-05_15h42.04.795,2026A_exp2,2022.2.4,59.969007997099496,
1000,1,4.9,3.7,1,0,46,46,78,,,,,190.31857110001147,190.95254629995907,190.95254629995907,191.45359289995395,315,315,191.45359289995395,191.45359289995395,191.45359289995395,191.45359289995395,191.45359289995395,191.45359289995395,191.45359289995395,191.45359289995395,191.45359289995395,191.81984569999622,191.81984569999622,191.81984569999622,191.81984569999622,191.81984569999622,191.81984569999622,191.81984569999622,191.81984569999622,191.81984569999622,23,0,,,191.81984569999622,192.0221395000117,1000,192.0221395000117,1000,1000,1000,1000,1,num_2,0.8189476999687031,,28,5,2026-03-05_15h42.04.795,2026A_exp2,2022.2.4,59.969007997099496,
1000,1,3.7,6.1,1,0,47,47,75,,,,,192.8709882000112,193.52180970000336,193.52180970000336,194.02295509999385,45,45,194.02295509999385,194.02295509999385,194.02295509999385,194.02295509999385,194.02295509999385,194.02295509999385,194.02295509999385,194.02295509999385,194.02295509999385,194.3725720999646,194.3725720999646,194.3725720999646,194.3725720999646,194.3725720999646,194.3725720999646,194.3725720999646,194.3725720999646,194.3725720999646,22,0,,,194.3725720999646,194.5745444999775,1000,194.58936439995887,1000,1000,1000,1000,1,num_2,1.1714620999991894,,28,5,2026-03-05_15h42.04.795,2026A_exp2,2022.2.4,59.969007997099496,
1000,1,3.7,0.0,0,0,48,48,39,,,,,195.79260799998883,196.44136090000393,196.44136090000393,196.9424796999665,45,45,196.9424796999665,196.9424796999665,196.9424796999665,196.9424796999665,196.9424796999665,196.9424796999665,196.9424796999665,196.9424796999665,196.9424796999665,197.30891099997098,197.30891099997098,197.30891099997098,197.30891099997098,197.30891099997098,197.30891099997098,197.30891099997098,197.30891099997098,197.30891099997098,23,0,,,197.30891099997098,197.5109625000041,1000,197.5109625000041,1000,1000,1000,1000,0,num_3,0.4657405000180006,,28,5,2026-03-05_15h42.04.795,2026A_exp2,2022.2.4,59.969007997099496,
1000,1,6.1,4.9,0,0,49,49,51,,,,,197.992801699962,198.6435358999879,198.6435358999879,199.14465739997104,315,315,199.14465739997104,199.14465739997104,199.14465739997104,199.14465739997104,199.14465739997104,199.14465739997104,199.14465739997104,199.14465739997104,199.14465739997104,199.5110985999927,199.5110985999927,199.5110985999927,199.5110985999927,199.5110985999927,199.5110985999927,199.5110985999927,199.5110985999927,199.5110985999927,23,0,,,199.5110985999927,199.714050999959,1000,199.714050999959,1000,1000,1000,1000,0,num_3,0.414003900019452,,28,5,2026-03-05_15h42.04.795,2026A_exp2,2022.2.4,59.969007997099496,
1000,1,6.1,6.1,1,0,50,50,22,,,,,200.14508759998716,200.79566139995586,200.79566139995586,201.28010879998328,45,45,201.28010879998328,201.28010879998328,201.28010879998328,201.28010879998328,201.28010879998328,201.28010879998328,201.28010879998328,201.28010879998328,201.28010879998328,201.64656879997347,201.64656879997347,201.64656879997347,201.64656879997347,201.64656879997347,201.64656879997347,201.64656879997347,201.64656879997347,201.64656879997347,23,0,,,201.64656879997347,201.84875010000542,1000,201.84875010000542,1000,1000,1000,1000,1,num_2,0.5435857999837026,,28,5,2026-03-05_15h42.04.795,2026A_exp2,2022.2.4,59.969007997099496,
1000,1,0.0,0.0,1,0,51,51,3,,,,,202.41405069996836,203.06458239996573,203.06458239996573,203.56576389999827,45,315,203.56576389999827,203.56576389999827,203.56576389999827,203.56576389999827,203.56576389999827,203.56576389999827,203.56576389999827,203.56576389999827,203.56576389999827,203.93214419996366,203.93214419996366,203.93214419996366,203.93214419996366,203.93214419996366,203.93214419996366,203.93214419996366,203.93214419996366,203.93214419996366,23,0,,,203.93214419996366,204.13406219996978,1000,204.13406219996978,1000,1000,1000,1000,1,num_2,0.6269025999936275,,28,5,2026-03-05_15h42.04.795,2026A_exp2,2022.2.4,59.969007997099496,
1000,1,0.0,0.0,0,0,52,52,7,,,,,204.78302629996324,205.43367100000614,205.43367100000614,205.93448890000582,45,315,205.93448890000582,205.93448890000582,205.93448890000582,205.93448890000582,205.93448890000582,205.93448890000582,205.93448890000582,205.93448890000582,205.93448890000582,206.30105969996657,206.30105969996657,206.30105969996657,206.30105969996657,206.30105969996657,206.30105969996657,206.30105969996657,206.30105969996657,206.30105969996657,23,0,,,206.30105969996657,206.5033492000075,1000,206.5033492000075,1000,1000,1000,1000,0,num_3,0.7460384999867529,,28,5,2026-03-05_15h42.04.795,2026A_exp2,2022.2.4,59.969007997099496,
1000,1,0.0,3.7,1,0,53,53,4,,,,,207.26890189998085,207.91950359998737,207.91950359998737,208.42030850000447,45,315,208.42030850000447,208.42030850000447,208.42030850000447,208.42030850000447,208.42030850000447,208.42030850000447,208.42030850000447,208.42030850000447,208.42030850000447,208.78703830001177,208.78703830001177,208.78703830001177,208.78703830001177,208.78703830001177,208.78703830001177,208.78703830001177,208.78703830001177,208.78703830001177,23,0,,,208.78703830001177,208.9889225999941,1000,208.9889225999941,1000,1000,1000,1000,1,num_2,0.7082259999588132,,28,5,2026-03-05_15h42.04.795,2026A_exp2,2022.2.4,59.969007997099496,
1000,1,4.9,6.1,0,0,54,54,36,,,,,209.7213186000008,210.37198309996165,210.37198309996165,210.87307929998497,315,315,210.87307929998497,210.87307929998497,210.87307929998497,210.87307929998497,210.87307929998497,210.87307929998497,210.87307929998497,210.87307929998497,210.87307929998497,211.2393974000006,211.2393974000006,211.2393974000006,211.2393974000006,211.2393974000006,211.2393974000006,211.2393974000006,211.2393974000006,211.2393974000006,23,0,,,211.2393974000006,211.44159750000108,1000,211.44159750000108,1000,1000,1000,1000,1,num_2,1.4545830999850295,,28,5,2026-03-05_15h42.04.795,2026A_exp2,2022.2.4,59.969007997099496,
1,0,0.0,4.9,0,0,55,55,32,,,,,212.92460550001124,213.57517490000464,213.57517490000464,214.07613860000856,315,315,214.07613860000856,214.07613860000856,214.07613860000856,214.07613860000856,214.07613860000856,214.07613860000856,214.07613860000856,214.07613860000856,214.07613860000856,214.44262409996009,214.44262409996009,214.44262409996009,214.44262409996009,214.44262409996009,214.44262409996009,214.44262409996009,214.44262409996009,214.44262409996009,23,0,,,214.44262409996009,214.64271359995473,0.0,214.64271359995473,1,0.0,0,0,1000,num_4,0.8539680999820121,,28,5,2026-03-05_15h42.04.795,2026A_exp2,2022.2.4,59.969007997099496,
1000,1,0.0,3.7,0,0,56,56,76,,,,,215.5270981999929,216.17768149997573,216.17768149997573,216.67923720000545,315,315,216.67923720000545,216.67923720000545,216.67923720000545,216.67923720000545,216.67923720000545,216.67923720000545,216.67923720000545,216.67923720000545,216.67923720000545,217.02863309998065,217.02863309998065,217.02863309998065,217.02863309998065,217.02863309998065,217.02863309998065,217.02863309998065,217.02863309998065,217.02863309998065,22,0,,,217.02863309998065,217.23046649998287,1000,217.23046649998287,1000,1000,1000,1000,1,num_2,0.7463980999891646,,28,5,2026-03-05_15h42.04.795,2026A_exp2,2022.2.4,59.969007997099496,
1000,1,0.0,3.7,1,0,57,57,88,,,,,217.9963247999549,218.64688259997638,218.64688259997638,219.1478074999759,45,45,219.1478074999759,219.1478074999759,219.1478074999759,219.1478074999759,219.1478074999759,219.1478074999759,219.1478074999759,219.1478074999759,219.1478074999759,219.49758799996926,219.49758799996926,219.49758799996926,219.49758799996926,219.49758799996926,219.49758799996926,219.49758799996926,219.49758799996926,219.49758799996926,22,0,,,219.49758799996926,219.69970729999477,1000,219.7146289999946,1000,1000,1000,1000,0,num_3,1.7344550999696366,,28,5,2026-03-05_15h42.04.795,2026A_exp2,2022.2.4,59.969007997099496,
0,0,4.9,0.0,0,0,58,58,40,,,,,221.46638979995623,222.11695339996368,222.11695339996368,222.61814589996357,315,45,222.61814589996357,222.61814589996357,222.61814589996357,222.61814589996357,222.61814589996357,222.61814589996357,222.61814589996357,222.61814589996357,222.61814589996357,222.98457169998437,222.98457169998437,222.98457169998437,222.98457169998437,222.98457169998437,222.98457169998437,222.98457169998437,222.98457169998437,222.98457169998437,23,0,,,222.98457169998437,223.18465899996227,0.0,223.18465899996227,0,0.0,0,1,1000,num_1,0.4965638999710791,,28,5,2026-03-05_15h42.04.795,2026A_exp2,2022.2.4,59.969007997099496,
1000,1,3.7,3.7,0,0,59,59,59,,,,,223.70192439999664,224.35257319995435,224.35257319995435,224.8368468999979,315,315,224.8368468999979,224.8368468999979,224.8368468999979,224.8368468999979,224.8368468999979,224.8368468999979,224.8368468999979,224.8368468999979,224.8368468999979,225.20337279996602,225.20337279996602,225.20337279996602,225.20337279996602,225.20337279996602,225.20337279996602,225.20337279996602,225.20337279996602,225.20337279996602,23,0,,,225.20337279996602,225.40577449998818,1000,225.40577449998818,1000,1000,1000,1000,0,num_3,0.4435125999734737,,28,5,2026-03-05_15h42.04.795,2026A_exp2,2022.2.4,59.969007997099496,
1,0,4.9,0.0,0,0,60,60,66,,,,,225.87080609996337,226.52133699995466,226.52133699995466,227.02256109996233,45,315,227.02256109996233,227.02256109996233,227.02256109996233,227.02256109996233,227.02256109996233,227.02256109996233,227.02256109996233,227.02256109996233,227.02256109996233,227.37224199995399,227.37224199995399,227.37224199995399,227.37224199995399,227.37224199995399,227.37224199995399,227.37224199995399,227.37224199995399,227.37224199995399,22,0,,,227.37224199995399,227.5723214999889,4.9,227.58903279999504,0,4.9,1,0,1000,num_1,0.6270250999950804,,28,5,2026-03-05_15h42.04.795,2026A_exp2,2022.2.4,59.969007997099496,
1000,1,4.9,0.0,1,0,61,61,48,,,,,228.23978269996587,228.89030889997957,228.89030889997957,229.37493699998595,45,45,229.37493699998595,229.37493699998595,229.37493699998595,229.37493699998595,229.37493699998595,229.37493699998595,229.37493699998595,229.37493699998595,229.37493699998595,229.7412640999537,229.7412640999537,229.7412640999537,229.7412640999537,229.7412640999537,229.7412640999537,229.7412640999537,229.7412640999537,229.7412640999537,23,0,,,229.7412640999537,229.9431515999604,1000,229.9431515999604,1000,1000,1000,1000,0,num_3,0.5928618999896571,,28,5,2026-03-05_15h42.04.795,2026A_exp2,2022.2.4,59.969007997099496,
1000,1,0.0,0.0,0,0,62,62,64,,,,,230.55885859997943,231.20937759999651,231.20937759999651,231.71054179995554,45,315,231.71054179995554,231.71054179995554,231.71054179995554,231.71054179995554,231.71054179995554,231.71054179995554,231.71054179995554,231.71054179995554,231.71054179995554,232.06034209998325,232.06034209998325,232.06034209998325,232.06034209998325,232.06034209998325,232.06034209998325,232.06034209998325,232.06034209998325,232.06034209998325,22,0,,,232.06034209998325,232.26236910000443,1000,232.27722539997194,1000,1000,1000,1000,1,num_2,0.370802299992647,,28,5,2026-03-05_15h42.04.795,2026A_exp2,2022.2.4,59.969007997099496,
1000,1,0.0,0.0,0,0,63,63,72,,,,,232.67762939998647,233.32814769999823,233.32814769999823,233.82917399995495,315,45,233.82917399995495,233.82917399995495,233.82917399995495,233.82917399995495,233.82917399995495,233.82917399995495,233.82917399995495,233.82917399995495,233.82917399995495,234.19573479995597,234.19573479995597,234.19573479995597,234.19573479995597,234.19573479995597,234.19573479995597,234.19573479995597,234.19573479995597,234.19573479995597,23,0,,,234.19573479995597,234.39807739999378,1000,234.39807739999378,1000,1000,1000,1000,0,num_3,0.6905446000164375,,28,5,2026-03-05_15h42.04.795,2026A_exp2,2022.2.4,59.969007997099496,
1,0,0.0,0.0,1,0,64,64,33,,,,,235.11345989996335,235.76383109996095,235.76383109996095,236.26505129999714,45,315,236.26505129999714,236.26505129999714,236.26505129999714,236.26505129999714,236.26505129999714,236.26505129999714,236.26505129999714,236.26505129999714,236.26505129999714,236.63153299997794,236.63153299997794,236.63153299997794,236.63153299997794,236.63153299997794,236.63153299997794,236.63153299997794,236.63153299997794,236.63153299997794,7,2,"[0.08360519999405369, 0.26721590000670403]","[0.23366989998612553, 0.36728130001574755]",236.63153299997794,236.83164659998147,0.0,236.83164659998147,1,0.0,0,0,1000,num_4,0.5771981999860145,,28,5,2026-03-05_15h42.04.795,2026A_exp2,2022.2.4,59.969007997099496,
1,0,0.0,6.1,1,0,65,65,19,,,,,237.43212869996205,238.06627750000916,238.06627750000916,238.56745789997512,315,45,238.56745789997512,238.56745789997512,238.56745789997512,238.56745789997512,238.56745789997512,238.56745789997512,238.56745789997512,238.56745789997512,238.56745789997512,238.93374959996436,238.93374959996436,238.93374959996436,238.93374959996436,238.93374959996436,238.93374959996436,238.93374959996436,238.93374959996436,238.93374959996436,23,0,,,238.93374959996436,239.13420009997208,6.1,239.13420009997208,0,6.1,1,0,1000,num_1,3.5064197999890894,,28,5,2026-03-05_15h42.04.795,2026A_exp2,2022.2.4,59.969007997099496,
1000,1,0.0,0.0,0,0,66,66,89,,,,,242.6707435999997,243.32161729998188,243.32161729998188,243.80604080000194,45,45,243.80604080000194,243.80604080000194,243.80604080000194,243.80604080000194,243.80604080000194,243.80604080000194,243.80604080000194,243.80604080000194,243.80604080000194,244.17230959999142,244.17230959999142,244.17230959999142,244.17230959999142,244.17230959999142,244.17230959999142,244.17230959999142,244.17230959999142,244.17230959999142,23,0,,,244.17230959999142,244.37445189995924,1000,244.37445189995924,1000,1000,1000,1000,1,num_2,0.7620800000149757,,28,5,2026-03-05_15h42.04.795,2026A_exp2,2022.2.4,59.969007997099496,
1000,1,4.9,6.1,1,0,67,67,5,,,,,245.1567839999916,245.8073003999889,245.8073003999889,246.30832819995703,315,315,246.30832819995703,246.30832819995703,246.30832819995703,246.30832819995703,246.30832819995703,246.30832819995703,246.30832819995703,246.30832819995703,246.30832819995703,246.67489189998014,246.67489189998014,246.67489189998014,246.67489189998014,246.67489189998014,246.67489189998014,246.67489189998014,246.67489189998014,246.67489189998014,22,1,[0.200185900030192],[0.21669770003063604],246.67489189998014,246.8773199999705,1000,246.8773199999705,1000,1000,1000,1000,0,num_3,0.4761419999995269,,28,5,2026-03-05_15h42.04.795,2026A_exp2,2022.2.4,59.969007997099496,
1000,1,0.0,6.1,1,0,68,68,42,,,,,247.37568259995896,248.02618589997292,248.02618589997292,248.52734719996806,45,45,248.52734719996806,248.52734719996806,248.52734719996806,248.52734719996806,248.52734719996806,248.52734719996806,248.52734719996806,248.52734719996806,248.52734719996806,248.8771346999565,248.8771346999565,248.8771346999565,248.8771346999565,248.8771346999565,248.8771346999565,248.8771346999565,248.8771346999565,248.8771346999565,22,0,,,248.8771346999565,249.07896730001085,1000,249.0941214999766,1000,1000,1000,1000,1,num_2,0.8593169000232592,,28,5,2026-03-05_15h42.04.795,2026A_exp2,2022.2.4,59.969007997099496,
1000,1,0.0,6.1,0,0,69,69,61,,,,,249.97833029995672,250.62892990000546,250.62892990000546,251.11320839996915,45,315,251.11320839996915,251.11320839996915,251.11320839996915,251.11320839996915,251.11320839996915,251.11320839996915,251.11320839996915,251.11320839996915,251.11320839996915,251.47973659995478,251.47973659995478,251.47973659995478,251.47973659995478,251.47973659995478,251.47973659995478,251.47973659995478,251.47973659995478,251.47973659995478,23,0,,,251.47973659995478,251.68186529999366,1000,251.68186529999366,1000,1000,1000,1000,1,num_2,0.7744300999911502,,28,5,2026-03-05_15h42.04.795,2026A_exp2,2022.2.4,59.969007997099496,
0,0,0.0,0.0,0,0,70,70,15,,,,,252.48071719997097,253.1313343999791,253.1313343999791,253.63231640000595,315,45,253.63231640000595,253.63231640000595,253.63231640000595,253.63231640000595,253.63231640000595,253.63231640000595,253.63231640000595,253.63231640000595,253.63231640000595,253.99881829996593,253.99881829996593,253.99881829996593,253.99881829996593,253.99881829996593,253.99881829996593,253.99881829996593,253.99881829996593,253.99881829996593,23,0,,,253.99881829996593,254.19902249996085,0.0,254.19902249996085,1,0.0,0,0,1000,num_4,0.7537342999712564,,28,5,2026-03-05_15h42.04.795,2026A_exp2,2022.2.4,59.969007997099496,
1000,1,0.0,4.9,0,0,71,71,0,,,,,254.9830520999967,255.6337605000008,255.6337605000008,256.1350040999823,45,45,256.1350040999823,256.1350040999823,256.1350040999823,256.1350040999823,256.1350040999823,256.1350040999823,256.1350040999823,256.1350040999823,256.1350040999823,256.48474719998194,256.48474719998194,256.48474719998194,256.48474719998194,256.48474719998194,256.48474719998194,256.48474719998194,256.48474719998194,256.48474719998194,22,0,,,256.48474719998194,256.6869646999985,1000,256.6869646999985,1000,1000,1000,1000,0,num_3,0.633855499967467,,28,5,2026-03-05_15h42.04.795,2026A_exp2,2022.2.4,59.969007997099496,
1000,1,0.0,3.7,0,0,72,72,21,,,,,257.352310199989,258.002944799955,258.002944799955,258.5038746999926,45,45,258.5038746999926,258.5038746999926,258.5038746999926,258.5038746999926,258.5038746999926,258.5038746999926,258.5038746999926,258.5038746999926,258.5038746999926,258.87035829998786,258.87035829998786,258.87035829998786,258.87035829998786,258.87035829998786,258.87035829998786,258.87035829998786,258.87035829998786,258.87035829998786,23,0,,,258.87035829998786,259.0725568999769,1000,259.0725568999769,1000,1000,1000,1000,1,num_2,0.49558970000362024,,28,5,2026-03-05_15h42.04.795,2026A_exp2,2022.2.4,59.969007997099496,
1,0,3.7,0.0,0,0,73,73,10,,,,,259.5878042000113,260.2385795000009,260.2385795000009,260.7394685999607,315,45,260.7394685999607,260.7394685999607,260.7394685999607,260.7394685999607,260.7394685999607,260.7394685999607,260.7394685999607,260.7394685999607,260.7394685999607,261.10598970000865,261.10598970000865,261.10598970000865,261.10598970000865,261.10598970000865,261.10598970000865,261.10598970000865,261.10598970000865,261.10598970000865,23,0,,,261.10598970000865,261.3060869000037,3.7,261.3060869000037,0,3.7,1,0,1000,num_1,0.6548798999865539,,28,5,2026-03-05_15h42.04.795,2026A_exp2,2022.2.4,59.969007997099496,
0,0,6.1,0.0,0,0,74,74,41,,,,,261.99004750000313,262.6408125999733,262.6408125999733,263.141911899962,45,315,263.141911899962,263.141911899962,263.141911899962,263.141911899962,263.141911899962,263.141911899962,263.141911899962,263.141911899962,263.141911899962,263.49187039997196,263.49187039997196,263.49187039997196,263.49187039997196,263.49187039997196,263.49187039997196,263.49187039997196,263.49187039997196,263.49187039997196,22,0,,,263.49187039997196,263.69174919999205,0.0,263.69174919999205,1,0.0,0,0,1000,num_4,1.6847506000194699,,28,5,2026-03-05_15h42.04.795,2026A_exp2,2022.2.4,59.969007997099496,
0,0,4.9,0.0,0,0,75,75,84,,,,,265.39364109997405,266.02758170000743,266.02758170000743,266.5287509000045,45,315,266.5287509000045,266.5287509000045,266.5287509000045,266.5287509000045,266.5287509000045,266.5287509000045,266.5287509000045,266.5287509000045,266.5287509000045,266.8949656999903,266.8949656999903,266.8949656999903,266.8949656999903,266.8949656999903,266.8949656999903,266.8949656999903,266.8949656999903,266.8949656999903,23,0,,,266.8949656999903,267.09521269996185,0.0,267.09521269996185,1,0.0,0,0,1000,num_4,0.7940795000176877,,28,5,2026-03-05_15h42.04.795,2026A_exp2,2022.2.4,59.969007997099496,
0,0,6.1,0.0,1,0,76,76,52,,,,,267.9128288999782,268.5632231999771,268.5632231999771,269.04769789997954,315,45,269.04769789997954,269.04769789997954,269.04769789997954,269.04769789997954,269.04769789997954,269.04769789997954,269.04769789997954,269.04769789997954,269.04769789997954,269.4142671999871,269.4142671999871,269.4142671999871,269.4142671999871,269.4142671999871,269.4142671999871,269.4142671999871,269.4142671999871,269.4142671999871,22,1,[0.0012203999795019627],[0.017353500006720424],269.4142671999871,269.614413400006,6.1,269.614413400006,1,6.1,1,1,1000,num_4,1.9698712000390515,,28,5,2026-03-05_15h42.04.795,2026A_exp2,2022.2.4,59.969007997099496,
1000,1,0.0,0.0,1,0,77,77,55,,,,,271.5998255999875,272.25019519997295,272.25019519997295,272.7349917999818,45,315,272.7349917999818,272.7349917999818,272.7349917999818,272.7349917999818,272.7349917999818,272.7349917999818,272.7349917999818,272.7349917999818,272.7349917999818,273.10136520001106,273.10136520001106,273.10136520001106,273.10136520001106,273.10136520001106,273.10136520001106,273.10136520001106,273.10136520001106,273.10136520001106,19,3,"[0.2005226999754086, 0.3341921999817714, 0.3674295999808237]","[0.23399269999936223, 0.3506849000114016, 0.3674343000166118]",273.10136520001106,273.3030944999773,1000,273.3030944999773,1000,1000,1000,1000,0,num_3,0.5382204999914393,,28,5,2026-03-05_15h42.04.795,2026A_exp2,2022.2.4,59.969007997099496,
1000,1,0.0,4.9,0,0,78,78,8,,,,,273.8688130999799,274.51940329995705,274.51940329995705,275.020567199972,315,45,275.020567199972,275.020567199972,275.020567199972,275.020567199972,275.020567199972,275.020567199972,275.020567199972,275.020567199972,275.020567199972,275.3702717999695,275.3702717999695,275.3702717999695,275.3702717999695,275.3702717999695,275.3702717999695,275.3702717999695,275.3702717999695,275.3702717999695,22,0,,,275.3702717999695,275.57239689998096,1000,275.57239689998096,1000,1000,1000,1000,1,num_2,0.5077506999950856,,28,5,2026-03-05_15h42.04.795,2026A_exp2,2022.2.4,59.969007997099496,
1000,1,0.0,0.0,1,0,79,79,29,,,,,276.1044377000071,276.7549996000016,276.7549996000016,277.2559700999991,315,45,277.2559700999991,277.2559700999991,277.2559700999991,277.2559700999991,277.2559700999991,277.2559700999991,277.2559700999991,277.2559700999991,277.2559700999991,277.6058554999763,277.6058554999763,277.6058554999763,277.6058554999763,277.6058554999763,277.6058554999763,277.6058554999763,277.6058554999763,277.6058554999763,22,0,,,277.6058554999763,277.80806219996884,1000,277.80806219996884,1000,1000,1000,1000,1,num_2,0.6093899999978021,,28,5,2026-03-05_15h42.04.795,2026A_exp2,2022.2.4,59.969007997099496,
1,0,3.7,6.1,1,0,80,80,68,,,,,278.440040699963,279.0905766999931,279.0905766999931,279.5916390999919,315,45,279.5916390999919,279.5916390999919,279.5916390999919,279.5916390999919,279.5916390999919,279.5916390999919,279.5916390999919,279.5916390999919,279.5916390999919,279.95817110000644,279.95817110000644,279.95817110000644,279.95817110000644,279.95817110000644,279.95817110000644,279.95817110000644,279.95817110000644,279.95817110000644,23,0,,,279.95817110000644,280.15830849995837,6.1,280.15830849995837,1,6.1,1,1,1000,num_4,1.1143606000114232,,28,5,2026-03-05_15h42.04.795,2026A_exp2,2022.2.4,59.969007997099496,
1,0,0.0,0.0,1,0,81,81,83,,,,,281.2928391000023,281.94355409999844,281.94355409999844,282.42799789999845,45,315,282.42799789999845,282.42799789999845,282.42799789999845,282.42799789999845,282.42799789999845,282.42799789999845,282.42799789999845,282.42799789999845,282.42799789999845,282.7943596999976,282.7943596999976,282.7943596999976,282.7943596999976,282.7943596999976,282.7943596999976,282.7943596999976,282.7943596999976,282.7943596999976,23,0,,,282.7943596999976,282.99447089998284,0.0,282.99447089998284,0,0.0,0,1,1000,num_1,0.6616710999514908,,28,5,2026-03-05_15h42.04.795,2026A_exp2,2022.2.4,59.969007997099496,
1,0,6.1,0.0,0,0,82,82,85,,,,,283.6785569000058,284.3291893999558,284.3291893999558,284.81353270000545,315,45,284.81353270000545,284.81353270000545,284.81353270000545,284.81353270000545,284.81353270000545,284.81353270000545,284.81353270000545,284.81353270000545,284.81353270000545,285.180224599957,285.180224599957,285.180224599957,285.180224599957,285.180224599957,285.180224599957,285.180224599957,285.180224599957,285.180224599957,23,0,,,285.180224599957,285.3801175999688,6.1,285.3801175999688,1,6.1,1,1,1000,num_4,3.420368099992629,,28,5,2026-03-05_15h42.04.795,2026A_exp2,2022.2.4,59.969007997099496,
1000,1,0.0,4.9,1,0,83,83,37,,,,,288.81707619997906,289.4675944999908,289.4675944999908,289.95214839995606,315,315,289.95214839995606,289.95214839995606,289.95214839995606,289.95214839995606,289.95214839995606,289.95214839995606,289.95214839995606,289.95214839995606,289.95214839995606,290.318581599975,290.318581599975,290.318581599975,290.318581599975,290.318581599975,290.318581599975,290.318581599975,290.318581599975,290.318581599975,14,1,[0.001229399989824742],[0.1504226000397466],290.318581599975,290.52064959995914,1000,290.52064959995914,1000,1000,1000,1000,0,num_3,0.39150300004985183,,28,5,2026-03-05_15h42.04.795,2026A_exp2,2022.2.4,59.969007997099496,
1000,1,3.7,0.0,0,0,84,84,86,,,,,290.9359015999944,291.586360199959,291.586360199959,292.0874882999924,315,315,292.0874882999924,292.0874882999924,292.0874882999924,292.0874882999924,292.0874882999924,292.0874882999924,292.0874882999924,292.0874882999924,292.0874882999924,292.45384649996413,292.45384649996413,292.45384649996413,292.45384649996413,292.45384649996413,292.45384649996413,292.45384649996413,292.45384649996413,292.45384649996413,23,0,,,292.45384649996413,292.65561489999527,1000,292.65561489999527,1000,1000,1000,1000,1,num_2,13.705435499956366,,28,5,2026-03-05_15h42.04.795,2026A_exp2,2022.2.4,59.969007997099496,
0,0,0.0,3.7,1,0,85,85,53,,,,,306.38458879996324,307.0352597999736,307.0352597999736,307.5362268000026,45,315,307.5362268000026,307.5362268000026,307.5362268000026,307.5362268000026,307.5362268000026,307.5362268000026,307.5362268000026,307.5362268000026,307.5362268000026,307.902669699979,307.902669699979,307.902669699979,307.902669699979,307.902669699979,307.902669699979,307.902669699979,307.902669699979,307.902669699979,18,1,[0.001191799994558096],[0.08361939998576418],307.902669699979,308.102951399982,0.0,308.102951399982,0,0.0,0,1,1000,num_1,0.8972098999656737,,28,5,2026-03-05_15h42.04.795,2026A_exp2,2022.2.4,59.969007997099496,
1000,1,0.0,6.1,1,0,86,86,74,,,,,309.0206064999802,309.67123169999104,309.67123169999104,310.15567010000814,315,45,310.15567010000814,310.15567010000814,310.15567010000814,310.15567010000814,310.15567010000814,310.15567010000814,310.15567010000814,310.15567010000814,310.15567010000814,310.52205699996557,310.52205699996557,310.52205699996557,310.52205699996557,310.52205699996557,310.52205699996557,310.52205699996557,310.52205699996557,310.52205699996557,23,0,,,310.52205699996557,310.72393029998057,1000,310.72393029998057,1000,1000,1000,1000,1,num_2,1.0201725999941118,,28,5,2026-03-05_15h42.04.795,2026A_exp2,2022.2.4,59.969007997099496,
1000,1,6.1,0.0,0,0,87,87,27,,,,,311.77339339995524,312.4239436999778,312.4239436999778,312.9249230999849,45,315,312.9249230999849,312.9249230999849,312.9249230999849,312.9249230999849,312.9249230999849,312.9249230999849,312.9249230999849,312.9249230999849,312.9249230999849,313.29162969999015,313.29162969999015,313.29162969999015,313.29162969999015,313.29162969999015,313.29162969999015,313.29162969999015,313.29162969999015,313.29162969999015,23,0,,,313.29162969999015,313.49309419997735,1000,313.49309419997735,1000,1000,1000,1000,0,num_3,0.6360782000119798,,28,5,2026-03-05_15h42.04.795,2026A_exp2,2022.2.4,59.969007997099496,
1,0,4.9,0.0,1,0,88,88,34,,,,,314.15905630000634,314.8097132999683,314.8097132999683,315.2941312000039,315,315,315.2941312000039,315.2941312000039,315.2941312000039,315.2941312000039,315.2941312000039,315.2941312000039,315.2941312000039,315.2941312000039,315.2941312000039,315.6604107999592,315.6604107999592,315.6604107999592,315.6604107999592,315.6604107999592,315.6604107999592,315.6604107999592,315.6604107999592,315.6604107999592,23,0,,,315.6604107999592,315.8607689999626,0.0,315.8607689999626,0,0.0,0,1,1000,num_1,0.6838960999739356,,28,5,2026-03-05_15h42.04.795,2026A_exp2,2022.2.4,59.969007997099496,
1,0,0.0,4.9,1,0,89,89,54,,,,,316.5614751999965,317.2121513999882,317.2121513999882,317.6964769999613,315,315,317.6964769999613,317.6964769999613,317.6964769999613,317.6964769999613,317.6964769999613,317.6964769999613,317.6964769999613,317.6964769999613,317.6964769999613,318.0629478999763,318.0629478999763,318.0629478999763,318.0629478999763,318.0629478999763,318.0629478999763,318.0629478999763,318.0629478999763,318.0629478999763,23,0,,,318.0629478999763,318.2631512999651,4.9,318.2631512999651,1,4.9,1,1,1000,num_4,0.8817965999478474,,28,5,2026-03-05_15h42.04.795,2026A_exp2,2022.2.4,59.969007997099496,
,,,,,,,,,,,,,,,,,,,,,,,,,,,,,,,,,,,,,,,,,,,,,,,,,,,,319.1715223999927,,,,,,,
