validity,detectorcomp,contrastCW,contrastCCW,precueCWorCCW,block_80trials.thisRepN,block_80trials.thisTrialN,block_80trials.thisN,block_80trials.thisIndex,etRecord.started,etRecord.stopped,text.started,text.stopped,text_4.started,text_4.stopped,text_6.started,text_6.stopped,oriCW,oriCCW,roi_2.started,grating_UR.started,grating_UL.started,grating_LR.started,grating_LL.started,noise_UR.started,noise_UL.started,noise_LR.started,noise_LL.started,roi_2.stopped,grating_UR.stopped,grating_UL.stopped,grating_LR.stopped,grating_LL.stopped,noise_UR.stopped,noise_UL.stopped,noise_LR.stopped,noise_LL.stopped,outframe,roi_2.numLooks,roi_2.timesOn,roi_2.timesOff,text_2.started,text_2.stopped,probedcontrast,key_resp.started,respdetect,relevantContrast,correctDetect,TorFdetect,respCWorCCW,key_resp.keys,key_resp.rt,feedback_display_.started,participantNo,blockNo,date,expName,psychopyVersion,frameRate,
1,0,6.1,4.9,0,0,0,0,24,4.579999949783087e-05,4.579999949783087e-05,55.60877170000458,57.61380690004444,57.61380690004444,58.24545580003178,58.24545580003178,58.77136520005297,315,315,58.77136520005297,58.77136520005297,58.77136520005297,58.77136520005297,58.77136520005297,58.77136520005297,58.77136520005297,58.77136520005297,58.77136520005297,59.112851200043224,59.112851200043224,59.112851200043224,59.112851200043224,59.112851200043224,59.112851200043224,59.112851200043224,59.112851200043224,59.112851200043224,0,1,[0.001229399989824742],[0.36510609998367727],59.112851200043224,59.31307990005007,6.1,59.31307990005007,0,6.1,1,0,1000,num_1,0.8041644000331871,,27,2,2026-03-05_13h15.56.306,2026A_exp2,2022.2.4,59.87213708018492,
1000,1,0.0,0.0,0,0,1,1,85,,,,,60.14735160005512,60.79792650003219,60.79792650003219,61.282307800021954,315,315,61.282307800021954,61.282307800021954,61.282307800021954,61.282307800021954,61.282307800021954,61.282307800021954,61.282307800021954,61.282307800021954,61.282307800021954,61.648854200029746,61.648854200029746,61.648854200029746,61.648854200029746,61.648854200029746,61.648854200029746,61.648854200029746,61.648854200029746,61.648854200029746,0,1,[0.0008908999734558165],[0.3672825999674387],61.648854200029746,61.85007870005211,1000,61.85007870005211,1000,1000,1000,1000,0,num_3,0.7474835999892093,,27,2,2026-03-05_13h15.56.306,2026A_exp2,2022.2.4,59.87213708018492,
1000,1,0.0,3.7,1,0,2,2,47,,,,,62.61681730003329,63.267155200010166,63.267155200010166,63.76821570005268,315,45,63.76821570005268,63.76821570005268,63.76821570005268,63.76821570005268,63.76821570005268,63.76821570005268,63.76821570005268,63.76821570005268,63.76821570005268,64.11811979999766,64.11811979999766,64.11811979999766,64.11811979999766,64.11811979999766,64.11811979999766,64.11811979999766,64.11811979999766,64.11811979999766,0,1,[0.0007986000273376703],[0.35076820000540465],64.11811979999766,64.31817290000618,1000,64.31817290000618,1000,1000,1000,1000,1,num_2,0.5270312000066042,,27,2,2026-03-05_13h15.56.306,2026A_exp2,2022.2.4,59.87213708018492,
1000,1,0.0,0.0,0,0,3,3,81,,,,,64.86921210004948,65.51959280000301,65.51959280000301,66.00377320003463,315,45,66.00377320003463,66.00377320003463,66.00377320003463,66.00377320003463,66.00377320003463,66.00377320003463,66.00377320003463,66.00377320003463,66.00377320003463,66.37009590002708,66.37009590002708,66.37009590002708,66.37009590002708,66.37009590002708,66.37009590002708,66.37009590002708,66.37009590002708,66.37009590002708,0,1,[0.0007810000097379088],[0.3680428999941796],66.37009590002708,66.5706838000333,1000,66.5706838000333,1000,1000,1000,1000,0,num_3,0.8188956999802031,,27,2,2026-03-05_13h15.56.306,2026A_exp2,2022.2.4,59.87213708018492,
1000,1,3.7,0.0,0,0,4,4,45,,,,,67.42138820001855,68.05548290000297,68.05548290000297,68.55699050001567,45,315,68.55699050001567,68.55699050001567,68.55699050001567,68.55699050001567,68.55699050001567,68.55699050001567,68.55699050001567,68.55699050001567,68.55699050001567,68.92325720004737,68.92325720004737,68.92325720004737,68.92325720004737,68.92325720004737,68.92325720004737,68.92325720004737,68.92325720004737,68.92325720004737,0,1,[0.0007776999846100807],[0.3675657999701798],68.92325720004737,69.12337510002544,1000,69.12337510002544,1000,1000,1000,1000,0,num_3,0.5302172999945469,,27,2,2026-03-05_13h15.56.306,2026A_exp2,2022.2.4,59.87213708018492,
1,0,0.0,0.0,0,0,5,5,29,,,,,69.6740866000182,70.32413720001932,70.32413720001932,70.82547340000747,45,45,70.82547340000747,70.82547340000747,70.82547340000747,70.82547340000747,70.82547340000747,70.82547340000747,70.82547340000747,70.82547340000747,70.82547340000747,71.19174170005135,71.19174170005135,71.19174170005135,71.19174170005135,71.19174170005135,71.19174170005135,71.19174170005135,71.19174170005135,71.19174170005135,0,1,[0.0008907000301405787],[0.36734910000814125],71.19174170005135,71.3921890000347,0.0,71.3921890000347,1,0.0,0,0,1000,num_4,0.8786089000059292,,27,2,2026-03-05_13h15.56.306,2026A_exp2,2022.2.4,59.87213708018492,
1000,1,3.7,6.1,0,0,6,6,84,,,,,72.29293310001958,72.92700409999816,72.92700409999816,73.42767120001372,45,315,73.42767120001372,73.42767120001372,73.42767120001372,73.42767120001372,73.42767120001372,73.42767120001372,73.42767120001372,73.42767120001372,73.42767120001372,73.79420540004503,73.79420540004503,73.79420540004503,73.79420540004503,73.79420540004503,73.79420540004503,73.79420540004503,73.79420540004503,73.79420540004503,0,2,"[0.0007544999825768173, 0.1672563999891281]","[0.1502817000146024, 0.3672651000088081]",73.79420540004503,73.99462340003811,1000,73.99462340003811,1000,1000,1000,1000,1,num_2,0.4665773999877274,,27,2,2026-03-05_13h15.56.306,2026A_exp2,2022.2.4,59.87213708018492,
1000,1,0.0,0.0,1,0,7,7,23,,,,,74.47827590000816,75.12921910005389,75.12921910005389,75.61367520003114,45,315,75.61367520003114,75.61367520003114,75.61367520003114,75.61367520003114,75.61367520003114,75.61367520003114,75.61367520003114,75.61367520003114,75.61367520003114,75.97967490000883,75.97967490000883,75.97967490000883,75.97967490000883,75.97967490000883,75.97967490000883,75.97967490000883,75.97967490000883,75.97967490000883,6,4,"[0.03322809998644516, 0.06687600002624094, 0.15010110003640875, 0.2337740000220947]","[0.050000199989881366, 0.11684959998819977, 0.21693960000993684, 0.3672634999966249]",75.97967490000883,76.18017590005184,1000,76.18017590005184,1000,1000,1000,1000,1,num_2,0.6890984000056051,,27,2,2026-03-05_13h15.56.306,2026A_exp2,2022.2.4,59.87213708018492,
1000,1,0.0,0.0,1,0,8,8,67,,,,,76.89779000001727,77.5478887000354,77.5478887000354,78.04912040004274,315,315,78.04912040004274,78.04912040004274,78.04912040004274,78.04912040004274,78.04912040004274,78.04912040004274,78.04912040004274,78.04912040004274,78.04912040004274,78.398920800013,78.398920800013,78.398920800013,78.398920800013,78.398920800013,78.398920800013,78.398920800013,78.398920800013,78.398920800013,0,1,[0.00088900001719594],[0.350426500022877],78.398920800013,78.59897560003446,1000,78.59897560003446,1000,1000,1000,1000,1,num_2,0.4940526999416761,,27,2,2026-03-05_13h15.56.306,2026A_exp2,2022.2.4,59.87213708018492,
1000,1,0.0,6.1,1,0,9,9,88,,,,,79.11625630001072,79.76682300004177,79.76682300004177,80.25112580001587,315,45,80.25112580001587,80.25112580001587,80.25112580001587,80.25112580001587,80.25112580001587,80.25112580001587,80.25112580001587,80.25112580001587,80.25112580001587,80.61755850003101,80.61755850003101,80.61755850003101,80.61755850003101,80.61755850003101,80.61755850003101,80.61755850003101,80.61755850003101,80.61755850003101,1,2,"[0.0007528999703936279, 0.28362429997650906]","[0.2666490999981761, 0.3670355000067502]",80.61755850003101,80.8178616000223,1000,80.8178616000223,1000,1000,1000,1000,1,num_2,0.4352521999971941,,27,2,2026-03-05_13h15.56.306,2026A_exp2,2022.2.4,59.87213708018492,
1,0,0.0,6.1,1,0,10,10,36,,,,,81.28482960001566,81.93597140000202,81.93597140000202,82.42110500001581,315,45,82.42110500001581,82.42110500001581,82.42110500001581,82.42110500001581,82.42110500001581,82.42110500001581,82.42110500001581,82.42110500001581,82.42110500001581,82.78664480004227,82.78664480004227,82.78664480004227,82.78664480004227,82.78664480004227,82.78664480004227,82.78664480004227,82.78664480004227,82.78664480004227,0,1,[0.0012043999740853906],[0.3662052999716252],82.78664480004227,82.98678060004022,6.1,82.98678060004022,1,6.1,1,1,1000,num_4,0.7631535999826156,,27,2,2026-03-05_13h15.56.306,2026A_exp2,2022.2.4,59.87213708018492,
1000,1,3.7,0.0,0,0,11,11,2,,,,,83.77093990001595,84.42198010004358,84.42198010004358,84.9064275000128,45,45,84.9064275000128,84.9064275000128,84.9064275000128,84.9064275000128,84.9064275000128,84.9064275000128,84.9064275000128,84.9064275000128,84.9064275000128,85.27265610004542,85.27265610004542,85.27265610004542,85.27265610004542,85.27265610004542,85.27265610004542,85.27265610004542,85.27265610004542,85.27265610004542,16,3,"[0.017120300035458058, 0.1331048000138253, 0.2831586000393145]","[0.05001639999682084, 0.20098780002444983, 0.299778500047978]",85.27265610004542,85.47287550003966,1000,85.47287550003966,1000,1000,1000,1000,0,num_3,0.6124053999665193,,27,2,2026-03-05_13h15.56.306,2026A_exp2,2022.2.4,59.87213708018492,
1,0,0.0,3.7,1,0,12,12,41,,,,,86.10680790001061,86.75710139999865,86.75710139999865,87.25841200002469,315,315,87.25841200002469,87.25841200002469,87.25841200002469,87.25841200002469,87.25841200002469,87.25841200002469,87.25841200002469,87.25841200002469,87.25841200002469,87.62502360000508,87.62502360000508,87.62502360000508,87.62502360000508,87.62502360000508,87.62502360000508,87.62502360000508,87.62502360000508,87.62502360000508,15,6,"[0.017465399985667318, 0.1346676999819465, 0.1667192000313662, 0.2338362000300549, 0.2678068000241183, 0.3674716000095941]","[0.05073419999098405, 0.15079689997946844, 0.20088140002917498, 0.25058230001013726, 0.2840391999925487, 0.3674750999780372]",87.62502360000508,87.8250904000015,3.7,87.8250904000015,1,3.7,1,1,1000,num_4,0.6206717999884859,,27,2,2026-03-05_13h15.56.306,2026A_exp2,2022.2.4,59.87213708018492,
1000,1,4.9,0.0,0,0,13,13,54,,,,,88.47563670005184,89.10961090005003,89.10961090005003,89.61077010002919,315,315,89.61077010002919,89.61077010002919,89.61077010002919,89.61077010002919,89.61077010002919,89.61077010002919,89.61077010002919,89.61077010002919,89.61077010002919,89.9771426000516,89.9771426000516,89.9771426000516,89.9771426000516,89.9771426000516,89.9771426000516,89.9771426000516,89.9771426000516,89.9771426000516,18,6,"[0.0008823000243864954, 0.06713199999649078, 0.15058770001633093, 0.1842676000087522, 0.3009940999909304, 0.3338054000050761]","[0.017544400005135685, 0.08383469999535009, 0.16724510001949966, 0.20048400002997369, 0.31800239998847246, 0.35119509999640286]",89.9771426000516,90.1775631000055,1000,90.1775631000055,1000,1000,1000,1000,0,num_3,0.5084573000203818,,27,2,2026-03-05_13h15.56.306,2026A_exp2,2022.2.4,59.87213708018492,
1,0,0.0,0.0,1,0,14,14,6,,,,,90.71131450001849,91.36242370004766,91.36242370004766,91.84646760002943,45,45,91.84646760002943,91.84646760002943,91.84646760002943,91.84646760002943,91.84646760002943,91.84646760002943,91.84646760002943,91.84646760002943,91.84646760002943,92.21265020000283,92.21265020000283,92.21265020000283,92.21265020000283,92.21265020000283,92.21265020000283,92.21265020000283,92.21265020000283,92.21265020000283,23,0,,,92.21265020000283,92.4128263000166,0.0,92.4128263000166,1,0.0,0,0,1000,num_4,0.48092060000635684,,27,2,2026-03-05_13h15.56.306,2026A_exp2,2022.2.4,59.87213708018492,
1000,1,0.0,4.9,1,0,15,15,59,,,,,92.91374250000808,93.56397870002547,93.56397870002547,94.0485909000272,45,315,94.0485909000272,94.0485909000272,94.0485909000272,94.0485909000272,94.0485909000272,94.0485909000272,94.0485909000272,94.0485909000272,94.0485909000272,94.41516050003702,94.41516050003702,94.41516050003702,94.41516050003702,94.41516050003702,94.41516050003702,94.41516050003702,94.41516050003702,94.41516050003702,9,6,"[0.06631289998767897, 0.1342039000010118, 0.1840877000358887, 0.23470249999081716, 0.3006961999926716, 0.3349858000292443]","[0.11695380002493039, 0.16714520001551136, 0.21722430002409965, 0.2838742000167258, 0.31749310001032427, 0.3673207000247203]",94.41516050003702,94.61567070003366,1000,94.61567070003366,1000,1000,1000,1000,1,num_2,0.5738064000033773,,27,2,2026-03-05_13h15.56.306,2026A_exp2,2022.2.4,59.87213708018492,
1,0,4.9,0.0,1,0,16,16,38,,,,,95.21696770004928,95.86629390000599,95.86629390000599,96.36758690001443,315,315,96.36758690001443,96.36758690001443,96.36758690001443,96.36758690001443,96.36758690001443,96.36758690001443,96.36758690001443,96.36758690001443,96.36758690001443,96.73415480001131,96.73415480001131,96.73415480001131,96.73415480001131,96.73415480001131,96.73415480001131,96.73415480001131,96.73415480001131,96.73415480001131,8,4,"[0.06584739999379963, 0.11591049999697134, 0.1828339999774471, 0.33299989998340607]","[0.09976439998717979, 0.16630500002065673, 0.31735500000650063, 0.3666076000081375]",96.73415480001131,96.9340931000188,0.0,96.9340931000188,0,0.0,0,1,1000,num_1,0.7749586999998428,,27,2,2026-03-05_13h15.56.306,2026A_exp2,2022.2.4,59.87213708018492,
1000,1,0.0,0.0,1,0,17,17,27,,,,,97.73536940000486,98.38587779999943,98.38587779999943,98.86996219999855,315,315,98.86996219999855,98.86996219999855,98.86996219999855,98.86996219999855,98.86996219999855,98.86996219999855,98.86996219999855,98.86996219999855,98.86996219999855,99.25297310005408,99.25297310005408,99.25297310005408,99.25297310005408,99.25297310005408,99.25297310005408,99.25297310005408,99.25297310005408,99.25297310005408,17,4,"[0.0658938999986276, 0.13213400001404807, 0.23188279999885708, 0.38237170001957566]","[0.1159462999785319, 0.14970770000945777, 0.26521159999538213, 0.3823744999826886]",99.25297310005408,99.45355590002146,1000,99.45355590002146,1000,1000,1000,1000,0,num_3,0.5435208000126295,,27,2,2026-03-05_13h15.56.306,2026A_exp2,2022.2.4,59.87213708018492,
1,0,0.0,4.9,1,0,18,18,53,,,,,100.02067840000382,100.67129110003589,100.67129110003589,101.15563640004257,45,45,101.15563640004257,101.15563640004257,101.15563640004257,101.15563640004257,101.15563640004257,101.15563640004257,101.15563640004257,101.15563640004257,101.15563640004257,101.52195030002622,101.52195030002622,101.52195030002622,101.52195030002622,101.52195030002622,101.52195030002622,101.52195030002622,101.52195030002622,101.52195030002622,20,1,[0.16652659996179864],[0.23343500000191852],101.52195030002622,101.72238600003766,4.9,101.72238600003766,1,4.9,1,1,1000,num_4,0.7552564999787137,,27,2,2026-03-05_13h15.56.306,2026A_exp2,2022.2.4,59.87213708018492,
1,0,0.0,6.1,1,0,19,19,52,,,,,102.50691320002079,103.14045330003137,103.14045330003137,103.6414607000188,315,315,103.6414607000188,103.6414607000188,103.6414607000188,103.6414607000188,103.6414607000188,103.6414607000188,103.6414607000188,103.6414607000188,103.6414607000188,104.0079367000144,104.0079367000144,104.0079367000144,104.0079367000144,104.0079367000144,104.0079367000144,104.0079367000144,104.0079367000144,104.0079367000144,14,6,"[0.0009273000177927315, 0.050667200004681945, 0.15045700001064688, 0.21754250000230968, 0.2841222999850288, 0.3172703000018373]","[0.017477900022640824, 0.10048760002246127, 0.18379749997984618, 0.25088419998064637, 0.30098280002130195, 0.33422299998346716]",104.0079367000144,104.20813670003554,6.1,104.20813670003554,1,6.1,1,1,1000,num_4,0.7088626000331715,,27,2,2026-03-05_13h15.56.306,2026A_exp2,2022.2.4,59.87213708018492,
1000,1,3.7,6.1,0,0,20,20,0,,,,,104.94266330002574,105.57588060002308,105.57588060002308,106.07705020002322,315,315,106.07705020002322,106.07705020002322,106.07705020002322,106.07705020002322,106.07705020002322,106.07705020002322,106.07705020002322,106.07705020002322,106.07705020002322,106.4433462000452,106.4433462000452,106.4433462000452,106.4433462000452,106.4433462000452,106.4433462000452,106.4433462000452,106.4433462000452,106.4433462000452,4,5,"[0.00090970000019297, 0.06685429997742176, 0.11668779997853562, 0.2499796999618411, 0.33360989997163415]","[0.050204799976199865, 0.10007290000794455, 0.2336185000021942, 0.31691489997319877, 0.3664397000102326]",106.4433462000452,106.64400880003814,1000,106.64400880003814,1000,1000,1000,1000,1,num_2,0.5375802000053227,,27,2,2026-03-05_13h15.56.306,2026A_exp2,2022.2.4,59.87213708018492,
1,0,4.9,0.0,1,0,21,21,8,,,,,107.21111050003674,107.8454007000546,107.8454007000546,108.34638740000082,45,45,108.34638740000082,108.34638740000082,108.34638740000082,108.34638740000082,108.34638740000082,108.34638740000082,108.34638740000082,108.34638740000082,108.34638740000082,108.71225530002266,108.71225530002266,108.71225530002266,108.71225530002266,108.71225530002266,108.71225530002266,108.71225530002266,108.71225530002266,108.71225530002266,19,3,"[0.0007256999961100519, 0.21693460003007203, 0.3007634000387043]","[0.03382170002441853, 0.23402790003456175, 0.3170374000328593]",108.71225530002266,108.91256530000828,0.0,108.91256530000828,0,0.0,0,1,1000,num_1,0.6928985000122339,,27,2,2026-03-05_13h15.56.306,2026A_exp2,2022.2.4,59.87213708018492,
1000,1,6.1,6.1,1,0,22,22,77,,,,,109.63004290004028,110.26360630005365,110.26360630005365,110.76505909999833,45,315,110.76505909999833,110.76505909999833,110.76505909999833,110.76505909999833,110.76505909999833,110.76505909999833,110.76505909999833,110.76505909999833,110.76505909999833,111.13137470005313,111.13137470005313,111.13137470005313,111.13137470005313,111.13137470005313,111.13137470005313,111.13137470005313,111.13137470005313,111.13137470005313,19,2,"[0.3007103999843821, 0.35108649998437613]","[0.3341000999789685, 0.36791179998544976]",111.13137470005313,111.33168730000034,1000,111.33168730000034,1000,1000,1000,1000,1,num_2,0.5379926000023261,,27,2,2026-03-05_13h15.56.306,2026A_exp2,2022.2.4,59.87213708018492,
1,0,6.1,0.0,0,0,23,23,70,,,,,111.89911630004644,112.5492716000299,112.5492716000299,113.03393440000946,315,45,113.03393440000946,113.03393440000946,113.03393440000946,113.03393440000946,113.03393440000946,113.03393440000946,113.03393440000946,113.03393440000946,113.03393440000946,113.40017000003718,113.40017000003718,113.40017000003718,113.40017000003718,113.40017000003718,113.40017000003718,113.40017000003718,113.40017000003718,113.40017000003718,9,7,"[0.0007504999521188438, 0.08231079997494817, 0.1330210999585688, 0.19949539995286614, 0.2657655999646522, 0.33243149996269494, 0.3657379999640398]","[0.06610319996252656, 0.11664589995052665, 0.1828817999921739, 0.2162102999864146, 0.29947469994658604, 0.3492998000001535, 0.36574099998688325]",113.40017000003718,113.60045520000858,6.1,113.60045520000858,1,6.1,1,1,1000,num_4,0.8452278000186197,,27,2,2026-03-05_13h15.56.306,2026A_exp2,2022.2.4,59.87213708018492,
1,0,0.0,3.7,0,0,24,24,61,,,,,114.4684437000542,115.10200540005462,115.10200540005462,115.60317730001407,315,315,115.60317730001407,115.60317730001407,115.60317730001407,115.60317730001407,115.60317730001407,115.60317730001407,115.60317730001407,115.60317730001407,115.60317730001407,115.96971020003548,115.96971020003548,115.96971020003548,115.96971020003548,115.96971020003548,115.96971020003548,115.96971020003548,115.96971020003548,115.96971020003548,16,4,"[0.0007220999686978757, 0.0669674999662675, 0.2335482999915257, 0.35031919996254146]","[0.04993139998987317, 0.08368280000286177, 0.2503619999624789, 0.3673230999847874]",115.96971020003548,116.16979960002936,0.0,116.16979960002936,0,0.0,0,1,1000,num_1,1.0032776000443846,,27,2,2026-03-05_13h15.56.306,2026A_exp2,2022.2.4,59.87213708018492,
1000,1,0.0,0.0,0,0,25,25,17,,,,,117.20436760003213,117.85481420002179,117.85481420002179,118.33964960003505,45,315,118.33964960003505,118.33964960003505,118.33964960003505,118.33964960003505,118.33964960003505,118.33964960003505,118.33964960003505,118.33964960003505,118.33964960003505,118.70581470004981,118.70581470004981,118.70581470004981,118.70581470004981,118.70581470004981,118.70581470004981,118.70581470004981,118.70581470004981,118.70581470004981,23,0,,,118.70581470004981,118.90622940001776,1000,118.90622940001776,1000,1000,1000,1000,0,num_3,0.7235855999751948,,27,2,2026-03-05_13h15.56.306,2026A_exp2,2022.2.4,59.87213708018492,
1,0,0.0,0.0,1,0,26,26,73,,,,,119.65673180000158,120.30764030001592,120.30764030001592,120.79180390003603,45,315,120.79180390003603,120.79180390003603,120.79180390003603,120.79180390003603,120.79180390003603,120.79180390003603,120.79180390003603,120.79180390003603,120.79180390003603,121.15805630001705,121.15805630001705,121.15805630001705,121.15805630001705,121.15805630001705,121.15805630001705,121.15805630001705,121.15805630001705,121.15805630001705,19,1,[0.2669120999635197],[0.3339574999990873],121.15805630001705,121.35875130002387,0.0,121.35875130002387,0,0.0,0,1,1000,num_1,0.7509080999880098,,27,2,2026-03-05_13h15.56.306,2026A_exp2,2022.2.4,59.87213708018492,
1,0,3.7,0.0,1,0,27,27,50,,,,,122.1259384000441,122.75972940004431,122.75972940004431,123.26081680000061,315,45,123.26081680000061,123.26081680000061,123.26081680000061,123.26081680000061,123.26081680000061,123.26081680000061,123.26081680000061,123.26081680000061,123.26081680000061,123.62741970003117,123.62741970003117,123.62741970003117,123.62741970003117,123.62741970003117,123.62741970003117,123.62741970003117,123.62741970003117,123.62741970003117,23,0,,,123.62741970003117,123.82759400003124,0.0,123.82759400003124,0,0.0,0,1,1000,num_1,0.6338135999976657,,27,2,2026-03-05_13h15.56.306,2026A_exp2,2022.2.4,59.87213708018492,
0,0,6.1,3.7,1,0,28,28,49,,,,,124.47839660005411,125.12899009999819,125.12899009999819,125.61341900000116,315,45,125.61341900000116,125.61341900000116,125.61341900000116,125.61341900000116,125.61341900000116,125.61341900000116,125.61341900000116,125.61341900000116,125.61341900000116,125.97982380003668,125.97982380003668,125.97982380003668,125.97982380003668,125.97982380003668,125.97982380003668,125.97982380003668,125.97982380003668,125.97982380003668,23,0,,,125.97982380003668,126.17978320003022,6.1,126.17978320003022,1,6.1,1,1,1000,num_4,0.8581998000154272,,27,2,2026-03-05_13h15.56.306,2026A_exp2,2022.2.4,59.87213708018492,
1000,1,0.0,0.0,1,0,29,29,33,,,,,127.0640873000375,127.69806790002622,127.69806790002622,128.1990819000057,315,45,128.1990819000057,128.1990819000057,128.1990819000057,128.1990819000057,128.1990819000057,128.1990819000057,128.1990819000057,128.1990819000057,128.1990819000057,128.56565090001095,128.56565090001095,128.56565090001095,128.56565090001095,128.56565090001095,128.56565090001095,128.56565090001095,128.56565090001095,128.56565090001095,23,0,,,128.56565090001095,128.76557440002216,1000,128.76557440002216,1000,1000,1000,1000,0,num_3,0.6395967000280507,,27,2,2026-03-05_13h15.56.306,2026A_exp2,2022.2.4,59.87213708018492,
1000,1,0.0,4.9,1,0,30,30,31,,,,,129.43313870002748,130.08345310000004,130.08345310000004,130.58518110000296,315,45,130.58518110000296,130.58518110000296,130.58518110000296,130.58518110000296,130.58518110000296,130.58518110000296,130.58518110000296,130.58518110000296,130.58518110000296,130.93482960003894,130.93482960003894,130.93482960003894,130.93482960003894,130.93482960003894,130.93482960003894,130.93482960003894,130.93482960003894,130.93482960003894,22,0,,,130.93482960003894,131.13489350001328,1000,131.13489350001328,1000,1000,1000,1000,1,num_2,0.5341563000110909,,27,2,2026-03-05_13h15.56.306,2026A_exp2,2022.2.4,59.87213708018492,
1000,1,6.1,0.0,1,0,31,31,68,,,,,131.6862100000144,132.33599920000415,132.33599920000415,132.8210496000247,315,45,132.8210496000247,132.8210496000247,132.8210496000247,132.8210496000247,132.8210496000247,132.8210496000247,132.8210496000247,132.8210496000247,132.8210496000247,133.20367650000844,133.20367650000844,133.20367650000844,133.20367650000844,133.20367650000844,133.20367650000844,133.20367650000844,133.20367650000844,133.20367650000844,24,0,,,133.20367650000844,133.40352600003826,1000,133.40352600003826,1000,1000,1000,1000,0,num_3,0.7300546999904327,,27,2,2026-03-05_13h15.56.306,2026A_exp2,2022.2.4,59.87213708018492,
0,0,0.0,6.1,0,0,32,32,7,,,,,134.1546154000098,134.80488550005248,134.80488550005248,135.3069571000524,45,45,135.3069571000524,135.3069571000524,135.3069571000524,135.3069571000524,135.3069571000524,135.3069571000524,135.3069571000524,135.3069571000524,135.3069571000524,135.65587240003515,135.65587240003515,135.65587240003515,135.65587240003515,135.65587240003515,135.65587240003515,135.65587240003515,135.65587240003515,135.65587240003515,22,0,,,135.65587240003515,135.85667090001516,6.1,135.85667090001516,1,6.1,1,1,1000,num_4,0.7165183000033721,,27,2,2026-03-05_13h15.56.306,2026A_exp2,2022.2.4,59.87213708018492,
0,0,0.0,0.0,1,0,33,33,89,,,,,136.59079400001792,137.24089410004672,137.24089410004672,137.72515740001108,315,315,137.72515740001108,137.72515740001108,137.72515740001108,137.72515740001108,137.72515740001108,137.72515740001108,137.72515740001108,137.72515740001108,137.72515740001108,138.09143140004016,138.09143140004016,138.09143140004016,138.09143140004016,138.09143140004016,138.09143140004016,138.09143140004016,138.09143140004016,138.09143140004016,23,0,,,138.09143140004016,138.29183960001683,0.0,138.29183960001683,0,0.0,0,1,1000,num_1,1.1221631999942474,,27,2,2026-03-05_13h15.56.306,2026A_exp2,2022.2.4,59.87213708018492,
1000,1,3.7,0.0,0,0,34,34,57,,,,,139.44311160000507,140.07736130000558,140.07736130000558,140.5782603000407,315,315,140.5782603000407,140.5782603000407,140.5782603000407,140.5782603000407,140.5782603000407,140.5782603000407,140.5782603000407,140.5782603000407,140.5782603000407,140.94459470000584,140.94459470000584,140.94459470000584,140.94459470000584,140.94459470000584,140.94459470000584,140.94459470000584,140.94459470000584,140.94459470000584,23,0,,,140.94459470000584,141.14490840001963,1000,141.14490840001963,1000,1000,1000,1000,0,num_3,0.6206816000049002,,27,2,2026-03-05_13h15.56.306,2026A_exp2,2022.2.4,59.87213708018492,
1,0,3.7,0.0,0,0,35,35,65,,,,,141.79531460005092,142.42960140004288,142.42960140004288,142.9312515000347,45,315,142.9312515000347,142.9312515000347,142.9312515000347,142.9312515000347,142.9312515000347,142.9312515000347,142.9312515000347,142.9312515000347,142.9312515000347,143.2968372000032,143.2968372000032,143.2968372000032,143.2968372000032,143.2968372000032,143.2968372000032,143.2968372000032,143.2968372000032,143.2968372000032,23,0,,,143.2968372000032,143.49722420005128,3.7,143.49722420005128,1,3.7,1,1,1000,num_4,0.7806129999808036,,27,2,2026-03-05_13h15.56.306,2026A_exp2,2022.2.4,59.87213708018492,
1000,1,0.0,0.0,0,0,36,36,15,,,,,144.29810170002747,144.9318854000303,144.9318854000303,145.43303650000598,315,315,145.43303650000598,145.43303650000598,145.43303650000598,145.43303650000598,145.43303650000598,145.43303650000598,145.43303650000598,145.43303650000598,145.43303650000598,145.79943750001257,145.79943750001257,145.79943750001257,145.79943750001257,145.79943750001257,145.79943750001257,145.79943750001257,145.79943750001257,145.79943750001257,23,0,,,145.79943750001257,145.99972200003685,1000,145.99972200003685,1000,1000,1000,1000,1,num_2,0.629871999961324,,27,2,2026-03-05_13h15.56.306,2026A_exp2,2022.2.4,59.87213708018492,
1,0,0.0,0.0,1,0,37,37,87,,,,,146.65011040004902,147.28468740003882,147.28468740003882,147.78576590004377,45,45,147.78576590004377,147.78576590004377,147.78576590004377,147.78576590004377,147.78576590004377,147.78576590004377,147.78576590004377,147.78576590004377,147.78576590004377,148.15194440004416,148.15194440004416,148.15194440004416,148.15194440004416,148.15194440004416,148.15194440004416,148.15194440004416,148.15194440004416,148.15194440004416,23,0,,,148.15194440004416,148.35220090002986,0.0,148.35220090002986,0,0.0,0,1,1000,num_1,0.7338308999896981,,27,2,2026-03-05_13h15.56.306,2026A_exp2,2022.2.4,59.87213708018492,
1,0,0.0,6.1,0,0,38,38,11,,,,,149.1026686000405,149.75363760004984,149.75363760004984,150.23793080000905,45,45,150.23793080000905,150.23793080000905,150.23793080000905,150.23793080000905,150.23793080000905,150.23793080000905,150.23793080000905,150.23793080000905,150.23793080000905,150.60450200003106,150.60450200003106,150.60450200003106,150.60450200003106,150.60450200003106,150.60450200003106,150.60450200003106,150.60450200003106,150.60450200003106,23,0,,,150.60450200003106,150.80456990003586,0.0,150.80456990003586,0,0.0,0,1,1000,num_1,0.8885613000020385,,27,2,2026-03-05_13h15.56.306,2026A_exp2,2022.2.4,59.87213708018492,
1,0,0.0,4.9,0,0,39,39,4,,,,,151.72318550001364,152.372492399998,152.372492399998,152.87393980001798,45,45,152.87393980001798,152.87393980001798,152.87393980001798,152.87393980001798,152.87393980001798,152.87393980001798,152.87393980001798,152.87393980001798,152.87393980001798,153.23996730003273,153.23996730003273,153.23996730003273,153.23996730003273,153.23996730003273,153.23996730003273,153.23996730003273,153.23996730003273,153.23996730003273,23,0,,,153.23996730003273,153.44029410002986,0.0,153.44029410002986,0,0.0,0,1,1000,num_1,0.9892204000498168,,27,2,2026-03-05_13h15.56.306,2026A_exp2,2022.2.4,59.87213708018492,
1,0,0.0,0.0,0,0,40,40,1,,,,,154.45811890001642,155.0918424000265,155.0918424000265,155.59307310002623,45,45,155.59307310002623,155.59307310002623,155.59307310002623,155.59307310002623,155.59307310002623,155.59307310002623,155.59307310002623,155.59307310002623,155.59307310002623,155.95964380004443,155.95964380004443,155.95964380004443,155.95964380004443,155.95964380004443,155.95964380004443,155.95964380004443,155.95964380004443,155.95964380004443,20,3,"[0.01765769999474287, 0.2674976999987848, 0.3337951999856159]","[0.033714500023052096, 0.28374330000951886, 0.3503531999886036]",155.95964380004443,156.1596088000224,0.0,156.1596088000224,0,0.0,0,1,1000,num_1,0.5743105000001378,,27,2,2026-03-05_13h15.56.306,2026A_exp2,2022.2.4,59.87213708018492,
1000,1,4.9,0.0,0,0,41,41,26,,,,,156.76036670000758,157.3941592000192,157.3941592000192,157.8953175000497,315,45,157.8953175000497,157.8953175000497,157.8953175000497,157.8953175000497,157.8953175000497,157.8953175000497,157.8953175000497,157.8953175000497,157.8953175000497,158.2617542000371,158.2617542000371,158.2617542000371,158.2617542000371,158.2617542000371,158.2617542000371,158.2617542000371,158.2617542000371,158.2617542000371,23,0,,,158.2617542000371,158.46197980002034,1000,158.46197980002034,1000,1000,1000,1000,0,num_3,0.7110742999939248,,27,2,2026-03-05_13h15.56.306,2026A_exp2,2022.2.4,59.87213708018492,
1,0,0.0,6.1,0,0,42,42,60,,,,,159.1960183000192,159.84756970003946,159.84756970003946,160.33112380001694,45,45,160.33112380001694,160.33112380001694,160.33112380001694,160.33112380001694,160.33112380001694,160.33112380001694,160.33112380001694,160.33112380001694,160.33112380001694,160.69745289999992,160.69745289999992,160.69745289999992,160.69745289999992,160.69745289999992,160.69745289999992,160.69745289999992,160.69745289999992,160.69745289999992,23,0,,,160.69745289999992,160.89779400004772,0.0,160.89779400004772,0,0.0,0,1,1000,num_1,0.7880388000048697,,27,2,2026-03-05_13h15.56.306,2026A_exp2,2022.2.4,59.87213708018492,
1000,1,0.0,0.0,0,0,43,43,74,,,,,161.71517580002546,162.3493708000169,162.3493708000169,162.8502831000369,315,45,162.8502831000369,162.8502831000369,162.8502831000369,162.8502831000369,162.8502831000369,162.8502831000369,162.8502831000369,162.8502831000369,162.8502831000369,163.21667410002556,163.21667410002556,163.21667410002556,163.21667410002556,163.21667410002556,163.21667410002556,163.21667410002556,163.21667410002556,163.21667410002556,22,1,[0.2831927000079304],[0.2998943999991752],163.21667410002556,163.41726290003862,1000,163.41726290003862,1000,1000,1000,1000,0,num_3,0.7246895999996923,,27,2,2026-03-05_13h15.56.306,2026A_exp2,2022.2.4,59.87213708018492,
1000,1,0.0,0.0,0,0,44,44,64,,,,,164.16788070002804,164.8183045000187,164.8183045000187,165.3027499000309,45,315,165.3027499000309,165.3027499000309,165.3027499000309,165.3027499000309,165.3027499000309,165.3027499000309,165.3027499000309,165.3027499000309,165.3027499000309,165.6691764999996,165.6691764999996,165.6691764999996,165.6691764999996,165.6691764999996,165.6691764999996,165.6691764999996,165.6691764999996,165.6691764999996,23,0,,,165.6691764999996,165.87019540002802,1000,165.87019540002802,1000,1000,1000,1000,1,num_2,0.5675046999822371,,27,2,2026-03-05_13h15.56.306,2026A_exp2,2022.2.4,59.87213708018492,
1000,1,0.0,6.1,1,0,45,45,62,,,,,166.46993410005234,167.10397630004445,167.10397630004445,167.60524330002954,315,45,167.60524330002954,167.60524330002954,167.60524330002954,167.60524330002954,167.60524330002954,167.60524330002954,167.60524330002954,167.60524330002954,167.60524330002954,167.9714237000444,167.9714237000444,167.9714237000444,167.9714237000444,167.9714237000444,167.9714237000444,167.9714237000444,167.9714237000444,167.9714237000444,23,0,,,167.9714237000444,168.17204650002532,1000,168.17204650002532,1000,1000,1000,1000,1,num_2,0.46520069998223335,,27,2,2026-03-05_13h15.56.306,2026A_exp2,2022.2.4,59.87213708018492,
1,0,3.7,0.0,0,0,46,46,3,,,,,168.65577490004944,169.30652350001037,169.30652350001037,169.80776310001966,45,45,169.80776310001966,169.80776310001966,169.80776310001966,169.80776310001966,169.80776310001966,169.80776310001966,169.80776310001966,169.80776310001966,169.80776310001966,170.17355630005477,170.17355630005477,170.17355630005477,170.17355630005477,170.17355630005477,170.17355630005477,170.17355630005477,170.17355630005477,170.17355630005477,23,0,,,170.17355630005477,170.37380500003928,3.7,170.37380500003928,1,3.7,1,1,1000,num_4,1.8718791999854147,,27,2,2026-03-05_13h15.56.306,2026A_exp2,2022.2.4,59.87213708018492,
1000,1,6.1,0.0,1,0,47,47,75,,,,,172.27595290000318,172.92682920000516,172.92682920000516,173.41119850001996,45,45,173.41119850001996,173.41119850001996,173.41119850001996,173.41119850001996,173.41119850001996,173.41119850001996,173.41119850001996,173.41119850001996,173.41119850001996,173.77757230005227,173.77757230005227,173.77757230005227,173.77757230005227,173.77757230005227,173.77757230005227,173.77757230005227,173.77757230005227,173.77757230005227,23,0,,,173.77757230005227,173.97967520001112,1000,173.97967520001112,1000,1000,1000,1000,0,num_3,0.6907855999888852,,27,2,2026-03-05_13h15.56.306,2026A_exp2,2022.2.4,59.87213708018492,
1,0,0.0,3.7,0,0,48,48,35,,,,,174.6950861000223,175.34573980001733,175.34573980001733,175.8468638000195,45,45,175.8468638000195,175.8468638000195,175.8468638000195,175.8468638000195,175.8468638000195,175.8468638000195,175.8468638000195,175.8468638000195,175.8468638000195,176.19668850000016,176.19668850000016,176.19668850000016,176.19668850000016,176.19668850000016,176.19668850000016,176.19668850000016,176.19668850000016,176.19668850000016,22,0,,,176.19668850000016,176.3968223000411,0.0,176.3968223000411,0,0.0,0,1,1000,num_1,1.1054147999966517,,27,2,2026-03-05_13h15.56.306,2026A_exp2,2022.2.4,59.87213708018492,
1000,1,0.0,4.9,1,0,49,49,76,,,,,177.53123340004822,178.18200150004122,178.18200150004122,178.66643959999783,45,315,178.66643959999783,178.66643959999783,178.66643959999783,178.66643959999783,178.66643959999783,178.66643959999783,178.66643959999783,178.66643959999783,178.66643959999783,179.0325227000285,179.0325227000285,179.0325227000285,179.0325227000285,179.0325227000285,179.0325227000285,179.0325227000285,179.0325227000285,179.0325227000285,23,0,,,179.0325227000285,179.2346438000095,1000,179.2346438000095,1000,1000,1000,1000,1,num_2,0.611809300025925,,27,2,2026-03-05_13h15.56.306,2026A_exp2,2022.2.4,59.87213708018492,
1,0,6.1,0.0,0,0,50,50,56,,,,,179.8668403000338,180.51757770002587,180.51757770002587,181.01878930005478,45,315,181.01878930005478,181.01878930005478,181.01878930005478,181.01878930005478,181.01878930005478,181.01878930005478,181.01878930005478,181.01878930005478,181.01878930005478,181.3684723000042,181.3684723000042,181.3684723000042,181.3684723000042,181.3684723000042,181.3684723000042,181.3684723000042,181.3684723000042,181.3684723000042,22,0,,,181.3684723000042,181.56878960004542,6.1,181.56878960004542,1,6.1,1,1,1000,num_4,0.7812295000185259,,27,2,2026-03-05_13h15.56.306,2026A_exp2,2022.2.4,59.87213708018492,
0,0,4.9,0.0,1,0,51,51,25,,,,,182.36931960005313,183.0201292000129,183.0201292000129,183.50454380002338,315,315,183.50454380002338,183.50454380002338,183.50454380002338,183.50454380002338,183.50454380002338,183.50454380002338,183.50454380002338,183.50454380002338,183.50454380002338,183.8709737000172,183.8709737000172,183.8709737000172,183.8709737000172,183.8709737000172,183.8709737000172,183.8709737000172,183.8709737000172,183.8709737000172,23,0,,,183.8709737000172,184.07103300001472,4.9,184.07103300001472,1,4.9,1,1,1000,num_4,1.4310715000028722,,27,2,2026-03-05_13h15.56.306,2026A_exp2,2022.2.4,59.87213708018492,
1000,1,0.0,3.7,0,0,52,52,51,,,,,185.52249250002205,186.17318690003594,186.17318690003594,186.6576280000154,315,315,186.6576280000154,186.6576280000154,186.6576280000154,186.6576280000154,186.6576280000154,186.6576280000154,186.6576280000154,186.6576280000154,186.6576280000154,187.02404080005363,187.02404080005363,187.02404080005363,187.02404080005363,187.02404080005363,187.02404080005363,187.02404080005363,187.02404080005363,187.02404080005363,23,0,,,187.02404080005363,187.2262818000163,1000,187.2262818000163,1000,1000,1000,1000,1,num_2,0.587914899981115,,27,2,2026-03-05_13h15.56.306,2026A_exp2,2022.2.4,59.87213708018492,
1,0,0.0,6.1,1,0,53,53,40,,,,,187.84206630004337,188.49234980001347,188.49234980001347,188.99341480003204,45,315,188.99341480003204,188.99341480003204,188.99341480003204,188.99341480003204,188.99341480003204,188.99341480003204,188.99341480003204,188.99341480003204,188.99341480003204,189.34319470002083,189.34319470002083,189.34319470002083,189.34319470002083,189.34319470002083,189.34319470002083,189.34319470002083,189.34319470002083,189.34319470002083,20,2,"[0.0501446999842301, 0.31717170000774786]","[0.06693799997447059, 0.3337489999830723]",189.34319470002083,189.54341080004815,6.1,189.54341080004815,1,6.1,1,1,1000,num_4,0.6947086000000127,,27,2,2026-03-05_13h15.56.306,2026A_exp2,2022.2.4,59.87213708018492,
1000,1,0.0,0.0,0,0,54,54,86,,,,,190.26060770003824,190.91125590004958,190.91125590004958,191.39570750005078,45,315,191.39570750005078,191.39570750005078,191.39570750005078,191.39570750005078,191.39570750005078,191.39570750005078,191.39570750005078,191.39570750005078,191.39570750005078,191.76212300005136,191.76212300005136,191.76212300005136,191.76212300005136,191.76212300005136,191.76212300005136,191.76212300005136,191.76212300005136,191.76212300005136,23,0,,,191.76212300005136,191.96441130002495,1000,191.96441130002495,1000,1000,1000,1000,0,num_3,0.6496232000063173,,27,2,2026-03-05_13h15.56.306,2026A_exp2,2022.2.4,59.87213708018492,
1,0,3.7,0.0,0,0,55,55,42,,,,,192.62974110001232,193.28018320002593,193.28018320002593,193.78156970004784,315,45,193.78156970004784,193.78156970004784,193.78156970004784,193.78156970004784,193.78156970004784,193.78156970004784,193.78156970004784,193.78156970004784,193.78156970004784,194.14791970001534,194.14791970001534,194.14791970001534,194.14791970001534,194.14791970001534,194.14791970001534,194.14791970001534,194.14791970001534,194.14791970001534,20,3,"[0.20038599998224527, 0.3005935999681242, 0.3671944999950938]","[0.21680160000687465, 0.31710270000621676, 0.36719899997115135]",194.14791970001534,194.34809540002607,3.7,194.34809540002607,1,3.7,1,1,1000,num_4,0.80206110002473,,27,2,2026-03-05_13h15.56.306,2026A_exp2,2022.2.4,59.87213708018492,
0,0,0.0,3.7,1,0,56,56,10,,,,,195.18228190002264,195.83291029999964,195.83291029999964,196.31735330005176,45,315,196.31735330005176,196.31735330005176,196.31735330005176,196.31735330005176,196.31735330005176,196.31735330005176,196.31735330005176,196.31735330005176,196.31735330005176,196.68391700001666,196.68391700001666,196.68391700001666,196.68391700001666,196.68391700001666,196.68391700001666,196.68391700001666,196.68391700001666,196.68391700001666,23,0,,,196.68391700001666,196.8838611000101,0.0,196.8838611000101,0,0.0,0,1,1000,num_1,0.8588201000238769,,27,2,2026-03-05_13h15.56.306,2026A_exp2,2022.2.4,59.87213708018492,
1000,1,6.1,0.0,1,0,57,57,69,,,,,197.76815140002873,198.40216300002066,198.40216300002066,198.90326580003602,315,45,198.90326580003602,198.90326580003602,198.90326580003602,198.90326580003602,198.90326580003602,198.90326580003602,198.90326580003602,198.90326580003602,198.90326580003602,199.2694839000469,199.2694839000469,199.2694839000469,199.2694839000469,199.2694839000469,199.2694839000469,199.2694839000469,199.2694839000469,199.2694839000469,18,2,"[0.0012169000110588968, 0.3172134999767877]","[0.06683319999137893, 0.3336880999850109]",199.2694839000469,199.4718933000113,1000,199.4718933000113,1000,1000,1000,1000,0,num_3,0.6692119999788702,,27,2,2026-03-05_13h15.56.306,2026A_exp2,2022.2.4,59.87213708018492,
1,0,0.0,6.1,0,0,58,58,34,,,,,200.17092560004676,200.82125900004758,200.82125900004758,201.3224030000274,315,315,201.3224030000274,201.3224030000274,201.3224030000274,201.3224030000274,201.3224030000274,201.3224030000274,201.3224030000274,201.3224030000274,201.3224030000274,201.6887623000075,201.6887623000075,201.6887623000075,201.6887623000075,201.6887623000075,201.6887623000075,201.6887623000075,201.6887623000075,201.6887623000075,19,2,"[0.10040189995197579, 0.25057219999143854]","[0.13374299998395145, 0.2673764999490231]",201.6887623000075,201.88908470002934,0.0,201.88908470002934,0,0.0,0,1,1000,num_1,0.7800652000005357,,27,2,2026-03-05_13h15.56.306,2026A_exp2,2022.2.4,59.87213708018492,
1,0,3.7,3.7,0,0,59,59,13,,,,,202.68977870000526,203.32383590005338,203.32383590005338,203.82479150005383,315,315,203.82479150005383,203.82479150005383,203.82479150005383,203.82479150005383,203.82479150005383,203.82479150005383,203.82479150005383,203.82479150005383,203.82479150005383,204.19136610004352,204.19136610004352,204.19136610004352,204.19136610004352,204.19136610004352,204.19136610004352,204.19136610004352,204.19136610004352,204.19136610004352,23,0,,,204.19136610004352,204.39140940003563,3.7,204.39140940003563,0,3.7,1,0,1000,num_1,0.9504985999665223,,27,2,2026-03-05_13h15.56.306,2026A_exp2,2022.2.4,59.87213708018492,
1,0,4.9,0.0,0,0,60,60,58,,,,,205.35926160000963,206.0095773000503,206.0095773000503,206.4941519999993,315,315,206.4941519999993,206.4941519999993,206.4941519999993,206.4941519999993,206.4941519999993,206.4941519999993,206.4941519999993,206.4941519999993,206.4941519999993,206.86082280002302,206.86082280002302,206.86082280002302,206.86082280002302,206.86082280002302,206.86082280002302,206.86082280002302,206.86082280002302,206.86082280002302,23,0,,,206.86082280002302,207.06468870001845,4.9,207.06468870001845,1,4.9,1,1,1000,num_4,0.8687464999966323,,27,2,2026-03-05_13h15.56.306,2026A_exp2,2022.2.4,59.87213708018492,
1000,1,0.0,3.7,0,0,61,61,78,,,,,207.96163440000964,208.61235210002633,208.61235210002633,209.11349800002063,45,315,209.11349800002063,209.11349800002063,209.11349800002063,209.11349800002063,209.11349800002063,209.11349800002063,209.11349800002063,209.11349800002063,209.11349800002063,209.47977830003947,209.47977830003947,209.47977830003947,209.47977830003947,209.47977830003947,209.47977830003947,209.47977830003947,209.47977830003947,209.47977830003947,23,0,,,209.47977830003947,209.68243890005397,1000,209.68243890005397,1000,1000,1000,1000,1,num_2,0.49072420003358275,,27,2,2026-03-05_13h15.56.306,2026A_exp2,2022.2.4,59.87213708018492,
1000,1,3.7,4.9,1,0,62,62,43,,,,,210.19729300000472,210.84782460000133,210.84782460000133,211.34897530003218,45,45,211.34897530003218,211.34897530003218,211.34897530003218,211.34897530003218,211.34897530003218,211.34897530003218,211.34897530003218,211.34897530003218,211.34897530003218,211.69880390004255,211.69880390004255,211.69880390004255,211.69880390004255,211.69880390004255,211.69880390004255,211.69880390004255,211.69880390004255,211.69880390004255,22,0,,,211.69880390004255,211.90012900001602,1000,211.91580200003227,1000,1000,1000,1000,1,num_2,0.7226483999984339,,27,2,2026-03-05_13h15.56.306,2026A_exp2,2022.2.4,59.87213708018492,
1,0,0.0,0.0,0,0,63,63,63,,,,,212.66630630003056,213.31706090003718,213.31706090003718,213.81811030005338,45,45,213.81811030005338,213.81811030005338,213.81811030005338,213.81811030005338,213.81811030005338,213.81811030005338,213.81811030005338,213.81811030005338,213.81811030005338,214.18469530000584,214.18469530000584,214.18469530000584,214.18469530000584,214.18469530000584,214.18469530000584,214.18469530000584,214.18469530000584,214.18469530000584,23,0,,,214.18469530000584,214.38506590004545,0.0,214.38506590004545,1,0.0,0,0,1000,num_4,1.029369299998507,,27,2,2026-03-05_13h15.56.306,2026A_exp2,2022.2.4,59.87213708018492,
1,0,0.0,3.7,1,0,64,64,66,,,,,215.43571010004962,216.08658800000558,216.08658800000558,216.57062440004665,45,315,216.57062440004665,216.57062440004665,216.57062440004665,216.57062440004665,216.57062440004665,216.57062440004665,216.57062440004665,216.57062440004665,216.57062440004665,216.93741250003222,216.93741250003222,216.93741250003222,216.93741250003222,216.93741250003222,216.93741250003222,216.93741250003222,216.93741250003222,216.93741250003222,23,0,,,216.93741250003222,217.13748260005377,3.7,217.13748260005377,1,3.7,1,1,1000,num_4,0.8358437999850139,,27,2,2026-03-05_13h15.56.306,2026A_exp2,2022.2.4,59.87213708018492,
1000,1,0.0,4.9,1,0,65,65,79,,,,,218.00504820002243,218.65605480002705,218.65605480002705,219.1401942000375,45,315,219.1401942000375,219.1401942000375,219.1401942000375,219.1401942000375,219.1401942000375,219.1401942000375,219.1401942000375,219.1401942000375,219.1401942000375,219.5066387000261,219.5066387000261,219.5066387000261,219.5066387000261,219.5066387000261,219.5066387000261,219.5066387000261,219.5066387000261,219.5066387000261,23,0,,,219.5066387000261,219.70876530004898,1000,219.70876530004898,1000,1000,1000,1000,1,num_2,0.616539400012698,,27,2,2026-03-05_13h15.56.306,2026A_exp2,2022.2.4,59.87213708018492,
1000,1,4.9,0.0,1,0,66,66,72,,,,,220.34070680005243,220.9915050000418,220.9915050000418,221.49259330000496,315,45,221.49259330000496,221.49259330000496,221.49259330000496,221.49259330000496,221.49259330000496,221.49259330000496,221.49259330000496,221.49259330000496,221.49259330000496,221.85898050002288,221.85898050002288,221.85898050002288,221.85898050002288,221.85898050002288,221.85898050002288,221.85898050002288,221.85898050002288,221.85898050002288,23,0,,,221.85898050002288,222.06115240004146,1000,222.06115240004146,1000,1000,1000,1000,0,num_3,0.7769421999691986,,27,2,2026-03-05_13h15.56.306,2026A_exp2,2022.2.4,59.87213708018492,
1000,1,0.0,6.1,0,0,67,67,37,,,,,222.85978910000995,223.51054840005236,223.51054840005236,224.01172180002322,315,315,224.01172180002322,224.01172180002322,224.01172180002322,224.01172180002322,224.01172180002322,224.01172180002322,224.01172180002322,224.01172180002322,224.01172180002322,224.36152770003537,224.36152770003537,224.36152770003537,224.36152770003537,224.36152770003537,224.36152770003537,224.36152770003537,224.36152770003537,224.36152770003537,22,0,,,224.36152770003537,224.5639406000264,1000,224.5639406000264,1000,1000,1000,1000,1,num_2,0.5302394999889657,,27,2,2026-03-05_13h15.56.306,2026A_exp2,2022.2.4,59.87213708018492,
1000,1,0.0,0.0,0,0,68,68,18,,,,,225.1122590000159,225.76289240003098,225.76289240003098,226.26399340003263,45,45,226.26399340003263,226.26399340003263,226.26399340003263,226.26399340003263,226.26399340003263,226.26399340003263,226.26399340003263,226.26399340003263,226.26399340003263,226.6140957000316,226.6140957000316,226.6140957000316,226.6140957000316,226.6140957000316,226.6140957000316,226.6140957000316,226.6140957000316,226.6140957000316,22,0,,,226.6140957000316,226.81372279999778,1000,226.830457700009,1000,1000,1000,1000,1,num_2,0.7516918000183068,,27,2,2026-03-05_13h15.56.306,2026A_exp2,2022.2.4,59.87213708018492,
1000,1,4.9,6.1,1,0,69,69,28,,,,,227.5979639000143,228.24857230001362,228.24857230001362,228.74953980004648,45,315,228.74953980004648,228.74953980004648,228.74953980004648,228.74953980004648,228.74953980004648,228.74953980004648,228.74953980004648,228.74953980004648,228.74953980004648,229.09956970001804,229.09956970001804,229.09956970001804,229.09956970001804,229.09956970001804,229.09956970001804,229.09956970001804,229.09956970001804,229.09956970001804,22,0,,,229.09956970001804,229.30189550004434,1000,229.30189550004434,1000,1000,1000,1000,1,num_2,0.47228940000059083,,27,2,2026-03-05_13h15.56.306,2026A_exp2,2022.2.4,59.87213708018492,
0,0,0.0,0.0,1,0,70,70,71,,,,,229.80013010004768,230.4509459999972,230.4509459999972,230.95197090000147,45,315,230.95197090000147,230.95197090000147,230.95197090000147,230.95197090000147,230.95197090000147,230.95197090000147,230.95197090000147,230.95197090000147,230.95197090000147,231.31848760001594,231.31848760001594,231.31848760001594,231.31848760001594,231.31848760001594,231.31848760001594,231.31848760001594,231.31848760001594,231.31848760001594,23,0,,,231.31848760001594,231.51850689999992,0.0,231.51850689999992,1,0.0,0,0,1000,num_4,0.8706752000143752,,27,2,2026-03-05_13h15.56.306,2026A_exp2,2022.2.4,59.87213708018492,
1,0,0.0,4.9,1,0,71,71,21,,,,,232.4196435000049,233.07013310003094,233.07013310003094,233.55459559999872,45,315,233.55459559999872,233.55459559999872,233.55459559999872,233.55459559999872,233.55459559999872,233.55459559999872,233.55459559999872,233.55459559999872,233.55459559999872,233.92097150004702,233.92097150004702,233.92097150004702,233.92097150004702,233.92097150004702,233.92097150004702,233.92097150004702,233.92097150004702,233.92097150004702,23,0,,,233.92097150004702,234.1211199000245,4.9,234.1211199000245,1,4.9,1,1,1000,num_4,0.8043544000247493,,27,2,2026-03-05_13h15.56.306,2026A_exp2,2022.2.4,59.87213708018492,
1000,1,0.0,0.0,0,0,72,72,80,,,,,234.9555798000074,235.60598420002498,235.60598420002498,236.0905659000273,315,315,236.0905659000273,236.0905659000273,236.0905659000273,236.0905659000273,236.0905659000273,236.0905659000273,236.0905659000273,236.0905659000273,236.0905659000273,236.4567604000331,236.4567604000331,236.4567604000331,236.4567604000331,236.4567604000331,236.4567604000331,236.4567604000331,236.4567604000331,236.4567604000331,20,2,"[0.050262700009625405, 0.10035650001373142]","[0.06682790000922978, 0.13357800000812858]",236.4567604000331,236.65903200005414,1000,236.65903200005414,1000,1000,1000,1000,0,num_3,0.6669204999925569,,27,2,2026-03-05_13h15.56.306,2026A_exp2,2022.2.4,59.87213708018492,
1,0,3.7,6.1,0,0,73,73,55,,,,,237.3412771000294,237.99166080000577,237.99166080000577,238.4929324000259,45,45,238.4929324000259,238.4929324000259,238.4929324000259,238.4929324000259,238.4929324000259,238.4929324000259,238.4929324000259,238.4929324000259,238.4929324000259,238.85933150001802,238.85933150001802,238.85933150001802,238.85933150001802,238.85933150001802,238.85933150001802,238.85933150001802,238.85933150001802,238.85933150001802,23,0,,,238.85933150001802,239.05930770002306,3.7,239.05930770002306,0,3.7,1,0,1000,num_1,0.7953237000037916,,27,2,2026-03-05_13h15.56.306,2026A_exp2,2022.2.4,59.87213708018492,
1000,1,0.0,0.0,1,0,74,74,12,,,,,239.87689760001376,240.52763850003248,240.52763850003248,241.0287991000223,45,45,241.0287991000223,241.0287991000223,241.0287991000223,241.0287991000223,241.0287991000223,241.0287991000223,241.0287991000223,241.0287991000223,241.0287991000223,241.37854400003562,241.37854400003562,241.37854400003562,241.37854400003562,241.37854400003562,241.37854400003562,241.37854400003562,241.37854400003562,241.37854400003562,20,2,"[0.13310430001001805, 0.20029420003993437]","[0.15019790001679212, 0.21711470000445843]",241.37854400003562,241.5807120000245,1000,241.5807120000245,1000,1000,1000,1000,0,num_3,0.6407303999876603,,27,2,2026-03-05_13h15.56.306,2026A_exp2,2022.2.4,59.87213708018492,
1000,1,4.9,6.1,0,0,75,75,20,,,,,242.24594670004444,242.89662030001637,242.89662030001637,243.39789850002853,315,315,243.39789850002853,243.39789850002853,243.39789850002853,243.39789850002853,243.39789850002853,243.39789850002853,243.39789850002853,243.39789850002853,243.39789850002853,243.74712770001497,243.74712770001497,243.74712770001497,243.74712770001497,243.74712770001497,243.74712770001497,243.74712770001497,243.74712770001497,243.74712770001497,22,0,,,243.74712770001497,243.94997720001265,1000,243.94997720001265,1000,1000,1000,1000,1,num_2,0.49570179998409003,,27,2,2026-03-05_13h15.56.306,2026A_exp2,2022.2.4,59.87213708018492,
1000,1,4.9,0.0,1,0,76,76,22,,,,,244.46525080001447,245.1157262000488,245.1157262000488,245.59985870000673,45,45,245.59985870000673,245.59985870000673,245.59985870000673,245.59985870000673,245.59985870000673,245.59985870000673,245.59985870000673,245.59985870000673,245.59985870000673,245.96644560003188,245.96644560003188,245.96644560003188,245.96644560003188,245.96644560003188,245.96644560003188,245.96644560003188,245.96644560003188,245.96644560003188,23,0,,,245.96644560003188,246.16907140001422,1000,246.16907140001422,1000,1000,1000,1000,0,num_3,0.5802504000021145,,27,2,2026-03-05_13h15.56.306,2026A_exp2,2022.2.4,59.87213708018492,
1000,1,6.1,0.0,1,0,77,77,16,,,,,246.76700110000093,247.41803340002662,247.41803340002662,247.9190422000247,315,45,247.9190422000247,247.9190422000247,247.9190422000247,247.9190422000247,247.9190422000247,247.9190422000247,247.9190422000247,247.9190422000247,247.9190422000247,248.28540170000633,248.28540170000633,248.28540170000633,248.28540170000633,248.28540170000633,248.28540170000633,248.28540170000633,248.28540170000633,248.28540170000633,23,0,,,248.28540170000633,248.48748120001983,1000,248.48748120001983,1000,1000,1000,1000,0,num_3,0.6697671999572776,,27,2,2026-03-05_13h15.56.306,2026A_exp2,2022.2.4,59.87213708018492,
1000,1,3.7,4.9,1,0,78,78,44,,,,,249.18618630000856,249.8368200000259,249.8368200000259,250.33811090001836,45,45,250.33811090001836,250.33811090001836,250.33811090001836,250.33811090001836,250.33811090001836,250.33811090001836,250.33811090001836,250.33811090001836,250.33811090001836,250.70452210004441,250.70452210004441,250.70452210004441,250.70452210004441,250.70452210004441,250.70452210004441,250.70452210004441,250.70452210004441,250.70452210004441,23,0,,,250.70452210004441,250.90701240004273,1000,250.90701240004273,1000,1000,1000,1000,1,num_2,0.5386815000092611,,27,2,2026-03-05_13h15.56.306,2026A_exp2,2022.2.4,59.87213708018492,
1000,1,6.1,0.0,0,0,79,79,14,,,,,251.47216730000218,252.12252380000427,252.12252380000427,252.6237134000403,315,45,252.6237134000403,252.6237134000403,252.6237134000403,252.6237134000403,252.6237134000403,252.6237134000403,252.6237134000403,252.6237134000403,252.6237134000403,252.99008860002505,252.99008860002505,252.99008860002505,252.99008860002505,252.99008860002505,252.99008860002505,252.99008860002505,252.99008860002505,252.99008860002505,23,0,,,252.99008860002505,253.192555000016,1000,253.192555000016,1000,1000,1000,1000,0,num_3,0.46859199996106327,,27,2,2026-03-05_13h15.56.306,2026A_exp2,2022.2.4,59.87213708018492,
1000,1,0.0,6.1,0,0,80,80,9,,,,,253.69076650001807,254.34152450005058,254.34152450005058,254.84253740002168,45,315,254.84253740002168,254.84253740002168,254.84253740002168,254.84253740002168,254.84253740002168,254.84253740002168,254.84253740002168,254.84253740002168,254.84253740002168,255.1922730000224,255.1922730000224,255.1922730000224,255.1922730000224,255.1922730000224,255.1922730000224,255.1922730000224,255.1922730000224,255.1922730000224,22,0,,,255.1922730000224,255.39440340001602,1000,255.39440340001602,1000,1000,1000,1000,1,num_2,0.45883899996988475,,27,2,2026-03-05_13h15.56.306,2026A_exp2,2022.2.4,59.87213708018492,
1000,1,3.7,4.9,1,0,81,81,46,,,,,255.8762416000245,256.5268473000033,256.5268473000033,257.02803050004877,315,315,257.02803050004877,257.02803050004877,257.02803050004877,257.02803050004877,257.02803050004877,257.02803050004877,257.02803050004877,257.02803050004877,257.02803050004877,257.3779264000477,257.3779264000477,257.3779264000477,257.3779264000477,257.3779264000477,257.3779264000477,257.3779264000477,257.3779264000477,257.3779264000477,22,0,,,257.3779264000477,257.57933570002206,1000,257.5948173000361,1000,1000,1000,1000,1,num_2,0.38623280002502725,,27,2,2026-03-05_13h15.56.306,2026A_exp2,2022.2.4,59.87213708018492,
1000,1,6.1,0.0,1,0,82,82,30,,,,,258.01171660004184,258.6624747000169,258.6624747000169,259.16350200003944,315,315,259.16350200003944,259.16350200003944,259.16350200003944,259.16350200003944,259.16350200003944,259.16350200003944,259.16350200003944,259.16350200003944,259.16350200003944,259.5299439000082,259.5299439000082,259.5299439000082,259.5299439000082,259.5299439000082,259.5299439000082,259.5299439000082,259.5299439000082,259.5299439000082,23,0,,,259.5299439000082,259.73241320002126,1000,259.73241320002126,1000,1000,1000,1000,0,num_3,0.5613505999790505,,27,2,2026-03-05_13h15.56.306,2026A_exp2,2022.2.4,59.87213708018492,
1000,1,0.0,0.0,0,0,83,83,83,,,,,260.31397750001634,260.96476960001746,260.96476960001746,261.4658241000143,45,315,261.4658241000143,261.4658241000143,261.4658241000143,261.4658241000143,261.4658241000143,261.4658241000143,261.4658241000143,261.4658241000143,261.4658241000143,261.8323032000335,261.8323032000335,261.8323032000335,261.8323032000335,261.8323032000335,261.8323032000335,261.8323032000335,261.8323032000335,261.8323032000335,16,4,"[0.08354949997738004, 0.2003266999963671, 0.2502883999841288, 0.35049839998828247]","[0.1334958999650553, 0.2169478999567218, 0.267239399952814, 0.3669808999984525]",261.8323032000335,262.0345311000128,1000,262.0345311000128,1000,1000,1000,1000,1,num_2,0.5067350000026636,,27,2,2026-03-05_13h15.56.306,2026A_exp2,2022.2.4,59.87213708018492,
1000,1,6.1,0.0,0,0,84,84,82,,,,,262.56642909999937,263.21700740000233,263.21700740000233,263.718131200003,315,315,263.718131200003,263.718131200003,263.718131200003,263.718131200003,263.718131200003,263.718131200003,263.718131200003,263.718131200003,263.718131200003,264.08455630001845,264.08455630001845,264.08455630001845,264.08455630001845,264.08455630001845,264.08455630001845,264.08455630001845,264.08455630001845,264.08455630001845,11,3,"[0.08359059999929741, 0.16679700004169717, 0.283334800042212]","[0.11682470003142953, 0.26652470004046336, 0.35037380002904683]",264.08455630001845,264.28643450001255,1000,264.28643450001255,1000,1000,1000,1000,0,num_3,0.43080720002762973,,27,2,2026-03-05_13h15.56.306,2026A_exp2,2022.2.4,59.87213708018492,
1,0,6.1,4.9,0,0,85,85,39,,,,,264.7351310000522,265.3858063000371,265.3858063000371,265.88701950001996,315,45,265.88701950001996,265.88701950001996,265.88701950001996,265.88701950001996,265.88701950001996,265.88701950001996,265.88701950001996,265.88701950001996,265.88701950001996,266.2532444000244,266.2532444000244,266.2532444000244,266.2532444000244,266.2532444000244,266.2532444000244,266.2532444000244,266.2532444000244,266.2532444000244,20,2,"[0.0012361000408418477, 0.18342170002870262]","[0.0335099000367336, 0.20002880005631596]",266.2532444000244,266.4534156000009,6.1,266.4534156000009,1,6.1,1,1,1000,num_4,0.7450979999848641,,27,2,2026-03-05_13h15.56.306,2026A_exp2,2022.2.4,59.87213708018492,
1000,1,4.9,0.0,1,0,86,86,5,,,,,267.22094520000974,267.87155810004333,267.87155810004333,268.3559507000027,315,45,268.3559507000027,268.3559507000027,268.3559507000027,268.3559507000027,268.3559507000027,268.3559507000027,268.3559507000027,268.3559507000027,268.3559507000027,268.7224312000326,268.7224312000326,268.7224312000326,268.7224312000326,268.7224312000326,268.7224312000326,268.7224312000326,268.7224312000326,268.7224312000326,21,1,[0.20026359998155385],[0.23366319999331608],268.7224312000326,268.92480990005424,1000,268.92480990005424,1000,1000,1000,1000,0,num_3,0.5134236000012606,,27,2,2026-03-05_13h15.56.306,2026A_exp2,2022.2.4,59.87213708018492,
1,0,3.7,0.0,1,0,87,87,19,,,,,269.4564240000327,270.10699490003753,270.10699490003753,270.60823930002516,45,45,270.60823930002516,270.60823930002516,270.60823930002516,270.60823930002516,270.60823930002516,270.60823930002516,270.60823930002516,270.60823930002516,270.60823930002516,270.9580395000521,270.9580395000521,270.9580395000521,270.9580395000521,270.9580395000521,270.9580395000521,270.9580395000521,270.9580395000521,270.9580395000521,8,7,"[0.017281799984630197, 0.050308700010646135, 0.11711300001479685, 0.15031479997560382, 0.21710589999565855, 0.28384500002721325, 0.3506086000124924]","[0.03367390000494197, 0.10020869999425486, 0.13361939997412264, 0.18372799997450784, 0.2669647000147961, 0.3337941999780014, 0.3506135999923572]",270.9580395000521,271.15833160001785,0.0,271.1749239000492,0,0.0,0,1,1000,num_1,0.8461179000441916,,27,2,2026-03-05_13h15.56.306,2026A_exp2,2022.2.4,59.87213708018492,
1000,1,3.7,0.0,1,0,88,88,48,,,,,272.0423051000107,272.6930993000278,272.6930993000278,273.177507000044,45,315,273.177507000044,273.177507000044,273.177507000044,273.177507000044,273.177507000044,273.177507000044,273.177507000044,273.177507000044,273.177507000044,273.5437915000366,273.5437915000366,273.5437915000366,273.5437915000366,273.5437915000366,273.5437915000366,273.5437915000366,273.5437915000366,273.5437915000366,23,0,,,273.5437915000366,273.74593400000595,1000,273.74593400000595,1000,1000,1000,1000,0,num_3,0.4994604000239633,,27,2,2026-03-05_13h15.56.306,2026A_exp2,2022.2.4,59.87213708018492,
1000,1,4.9,3.7,0,0,89,89,32,,,,,274.26122030004626,274.9119094000198,274.9119094000198,275.413188000035,45,315,275.413188000035,275.413188000035,275.413188000035,275.413188000035,275.413188000035,275.413188000035,275.413188000035,275.413188000035,275.413188000035,275.77957750001224,275.77957750001224,275.77957750001224,275.77957750001224,275.77957750001224,275.77957750001224,275.77957750001224,275.77957750001224,275.77957750001224,14,7,"[0.10030130000086501, 0.13363559998106211, 0.16715530003421009, 0.2002784000360407, 0.23353450000286102, 0.2669206000282429, 0.31718750001164153]","[0.11708539997925982, 0.15034599998034537, 0.18368509999709204, 0.21694200002821162, 0.25020960002439097, 0.30038520001107827, 0.3505920000025071]",275.77957750001224,275.98220800003037,1000,275.98220800003037,1000,1000,1000,1000,1,num_2,0.4954962999909185,,27,2,2026-03-05_13h15.56.306,2026A_exp2,2022.2.4,59.87213708018492,
,,,,,,,,,,,,,,,,,,,,,,,,,,,,,,,,,,,,,,,,,,,,,,,,,,,,276.50576590001583,,,,,,,
