validity,detectorcomp,contrastCW,contrastCCW,precueCWorCCW,block_80trials.thisRepN,block_80trials.thisTrialN,block_80trials.thisN,block_80trials.thisIndex,etRecord.started,etRecord.stopped,text.started,text.stopped,text_4.started,text_4.stopped,text_6.started,text_6.stopped,oriCW,oriCCW,roi_2.started,grating_UR.started,grating_UL.started,grating_LR.started,grating_LL.started,noise_UR.started,noise_UL.started,noise_LR.started,noise_LL.started,roi_2.stopped,grating_UR.stopped,grating_UL.stopped,grating_LR.stopped,grating_LL.stopped,noise_UR.stopped,noise_UL.stopped,noise_LR.stopped,noise_LL.stopped,outframe,roi_2.numLooks,roi_2.timesOn,roi_2.timesOff,text_2.started,text_2.stopped,probedcontrast,key_resp.started,respdetect,relevantContrast,correctDetect,TorFdetect,respCWorCCW,key_resp.keys,key_resp.rt,feedback_display_.started,participantNo,blockNo,date,expName,psychopyVersion,frameRate,
1,0,0.0,0.0,0,0,0,0,75,3.320001997053623e-05,3.320001997053623e-05,56.549845200031996,58.57521149981767,58.57521149981767,59.20282080001198,59.20282080001198,59.705704799853265,315,45,59.705704799853265,59.705704799853265,59.705704799853265,59.705704799853265,59.705704799853265,59.705704799853265,59.705704799853265,59.705704799853265,59.705704799853265,60.05373549996875,60.05373549996875,60.05373549996875,60.05373549996875,60.05373549996875,60.05373549996875,60.05373549996875,60.05373549996875,60.05373549996875,0,1,[0.0009312001056969166],[0.3671807001810521],60.05373549996875,60.253844199934974,0.0,60.253844199934974,1,0.0,0,0,1000,num_4,0.8681792998686433,,30,14,2026-03-12_11h22.59.560,2026A_exp2,2022.2.4,60.060817613506565,
1000,1,4.9,6.1,0,0,1,1,59,,,,,61.1381490000058,61.793330000014976,61.793330000014976,62.28196709998883,315,315,62.28196709998883,62.28196709998883,62.28196709998883,62.28196709998883,62.28196709998883,62.28196709998883,62.28196709998883,62.28196709998883,62.28196709998883,62.63936449983157,62.63936449983157,62.63936449983157,62.63936449983157,62.63936449983157,62.63936449983157,62.63936449983157,62.63936449983157,62.63936449983157,23,0,,,62.63936449983157,62.84347920003347,1000,62.84347920003347,1000,1000,1000,1000,1,num_2,0.5348060000687838,,30,14,2026-03-12_11h22.59.560,2026A_exp2,2022.2.4,60.060817613506565,
1000,1,0.0,0.0,1,0,2,2,27,,,,,63.40721039986238,64.05751339998096,64.05751339998096,64.55867889989167,315,45,64.55867889989167,64.55867889989167,64.55867889989167,64.55867889989167,64.55867889989167,64.55867889989167,64.55867889989167,64.55867889989167,64.55867889989167,64.92523889988661,64.92523889988661,64.92523889988661,64.92523889988661,64.92523889988661,64.92523889988661,64.92523889988661,64.92523889988661,64.92523889988661,15,2,"[0.0012707998976111412, 0.050123199820518494]","[0.03351049986667931, 0.14993499987758696]",64.92523889988661,65.12539499998093,1000,65.12539499998093,1000,1000,1000,1000,1,num_2,0.5803862998727709,,30,14,2026-03-12_11h22.59.560,2026A_exp2,2022.2.4,60.060817613506565,
1,0,6.1,0.0,0,0,3,3,58,,,,,65.72601179988123,66.37670139991678,66.37670139991678,66.87781189987436,45,315,66.87781189987436,66.87781189987436,66.87781189987436,66.87781189987436,66.87781189987436,66.87781189987436,66.87781189987436,66.87781189987436,66.87781189987436,67.24411879992113,67.24411879992113,67.24411879992113,67.24411879992113,67.24411879992113,67.24411879992113,67.24411879992113,67.24411879992113,67.24411879992113,23,0,,,67.24411879992113,67.44444089988247,6.1,67.44444089988247,1,6.1,1,1,1000,num_4,0.5983696000184864,,30,14,2026-03-12_11h22.59.560,2026A_exp2,2022.2.4,60.060817613506565,
1,0,3.7,0.0,1,0,4,4,55,,,,,68.0617559000384,68.71236699982546,68.71236699982546,69.19699319987558,45,315,69.19699319987558,69.19699319987558,69.19699319987558,69.19699319987558,69.19699319987558,69.19699319987558,69.19699319987558,69.19699319987558,69.19699319987558,69.56323239998892,69.56323239998892,69.56323239998892,69.56323239998892,69.56323239998892,69.56323239998892,69.56323239998892,69.56323239998892,69.56323239998892,4,5,"[0.0007957001216709614, 0.03370040003210306, 0.08391380007378757, 0.16736069996841252, 0.21711100009270012]","[0.017535499995574355, 0.06721580005250871, 0.150734500028193, 0.20070699998177588, 0.3674546000547707]",69.56323239998892,69.7633747998625,0.0,69.7633747998625,0,0.0,0,1,1000,num_1,1.7744679998140782,,30,14,2026-03-12_11h22.59.560,2026A_exp2,2022.2.4,60.060817613506565,
0,0,4.9,6.1,0,0,5,5,1,,,,,71.5652989000082,72.21591639984399,72.21591639984399,72.71677769999951,45,315,72.71677769999951,72.71677769999951,72.71677769999951,72.71677769999951,72.71677769999951,72.71677769999951,72.71677769999951,72.71677769999951,72.71677769999951,73.06679529999383,73.06679529999383,73.06679529999383,73.06679529999383,73.06679529999383,73.06679529999383,73.06679529999383,73.06679529999383,73.06679529999383,0,1,[0.0008952999487519264],[0.3511049000080675],73.06679529999383,73.26681029982865,6.1,73.26681029982865,1,6.1,1,1,1000,num_4,0.4475499000400305,,30,14,2026-03-12_11h22.59.560,2026A_exp2,2022.2.4,60.060817613506565,
1,0,6.1,3.7,0,0,6,6,79,,,,,73.73380109993741,74.38492410001345,74.38492410001345,74.86901839985512,315,45,74.86901839985512,74.86901839985512,74.86901839985512,74.86901839985512,74.86901839985512,74.86901839985512,74.86901839985512,74.86901839985512,74.86901839985512,75.2355037999805,75.2355037999805,75.2355037999805,75.2355037999805,75.2355037999805,75.2355037999805,75.2355037999805,75.2355037999805,75.2355037999805,0,1,[0.00130690005607903],[0.36709129996597767],75.2355037999805,75.4355514999479,6.1,75.4355514999479,1,6.1,1,1,1000,num_4,0.48672130005434155,,30,14,2026-03-12_11h22.59.560,2026A_exp2,2022.2.4,60.060817613506565,
1,0,0.0,4.9,1,0,7,7,44,,,,,75.95267489994876,76.60340599995106,76.60340599995106,77.08801409997977,45,45,77.08801409997977,77.08801409997977,77.08801409997977,77.08801409997977,77.08801409997977,77.08801409997977,77.08801409997977,77.08801409997977,77.08801409997977,77.45444420003332,77.45444420003332,77.45444420003332,77.45444420003332,77.45444420003332,77.45444420003332,77.45444420003332,77.45444420003332,77.45444420003332,0,1,[0.0012974001001566648],[0.3671174000483006],77.45444420003332,77.65464169997722,4.9,77.65464169997722,1,4.9,1,1,1000,num_4,0.3800057000480592,,30,14,2026-03-12_11h22.59.560,2026A_exp2,2022.2.4,60.060817613506565,
1000,1,4.9,6.1,1,0,8,8,4,,,,,78.0548602999188,78.70569820003584,78.70569820003584,79.189985799836,45,45,79.189985799836,79.189985799836,79.189985799836,79.189985799836,79.189985799836,79.189985799836,79.189985799836,79.189985799836,79.189985799836,79.55647299997509,79.55647299997509,79.55647299997509,79.55647299997509,79.55647299997509,79.55647299997509,79.55647299997509,79.55647299997509,79.55647299997509,3,1,[0.04999840003438294],[0.36717709992080927],79.55647299997509,79.75863879988901,1000,79.75863879988901,1000,1000,1000,1000,1,num_2,0.5800568999256939,,30,14,2026-03-12_11h22.59.560,2026A_exp2,2022.2.4,60.060817613506565,
1000,1,0.0,0.0,1,0,9,9,63,,,,,80.35721779987216,81.00794629985467,81.00794629985467,81.50913179991767,315,315,81.50913179991767,81.50913179991767,81.50913179991767,81.50913179991767,81.50913179991767,81.50913179991767,81.50913179991767,81.50913179991767,81.50913179991767,81.87554149981588,81.87554149981588,81.87554149981588,81.87554149981588,81.87554149981588,81.87554149981588,81.87554149981588,81.87554149981588,81.87554149981588,0,1,[0.001287700142711401],[0.3671466000378132],81.87554149981588,82.07771510002203,1000,82.07771510002203,1000,1000,1000,1000,1,num_2,0.524114599917084,,30,14,2026-03-12_11h22.59.560,2026A_exp2,2022.2.4,60.060817613506565,
1000,1,4.9,4.9,0,0,10,10,6,,,,,82.62624759995379,83.27699689986184,83.27699689986184,83.7780295999255,45,315,83.7780295999255,83.7780295999255,83.7780295999255,83.7780295999255,83.7780295999255,83.7780295999255,83.7780295999255,83.7780295999255,83.7780295999255,84.14439120003954,84.14439120003954,84.14439120003954,84.14439120003954,84.14439120003954,84.14439120003954,84.14439120003954,84.14439120003954,84.14439120003954,11,5,"[0.017372600035741925, 0.06692199991084635, 0.1168907000683248, 0.21715629985556006, 0.30046439985744655]","[0.03354829992167652, 0.08349550003185868, 0.13371520000509918, 0.28389679989777505, 0.3672658000141382]",84.14439120003954,84.34709669998847,1000,84.34709669998847,1000,1000,1000,1000,0,num_3,0.43860429991036654,,30,14,2026-03-12_11h22.59.560,2026A_exp2,2022.2.4,60.060817613506565,
1,0,3.7,6.1,0,0,11,11,74,,,,,84.81159189995378,85.4624434998259,85.4624434998259,85.96343200001866,45,45,85.96343200001866,85.96343200001866,85.96343200001866,85.96343200001866,85.96343200001866,85.96343200001866,85.96343200001866,85.96343200001866,85.96343200001866,86.32996389991604,86.32996389991604,86.32996389991604,86.32996389991604,86.32996389991604,86.32996389991604,86.32996389991604,86.32996389991604,86.32996389991604,0,1,[0.0012672999873757362],[0.36721360008232296],86.32996389991604,86.53027589991689,3.7,86.53027589991689,1,3.7,1,1,1000,num_4,0.703820199938491,,30,14,2026-03-12_11h22.59.560,2026A_exp2,2022.2.4,60.060817613506565,
1000,1,0.0,3.7,1,0,12,12,81,,,,,87.26412019995041,87.91488659987226,87.91488659987226,88.39922029990703,315,45,88.39922029990703,88.39922029990703,88.39922029990703,88.39922029990703,88.39922029990703,88.39922029990703,88.39922029990703,88.39922029990703,88.39922029990703,88.76562049984932,88.76562049984932,88.76562049984932,88.76562049984932,88.76562049984932,88.76562049984932,88.76562049984932,88.76562049984932,88.76562049984932,23,0,,,88.76562049984932,88.96779879997484,1000,88.96779879997484,1000,1000,1000,1000,1,num_2,0.48289139987900853,,30,14,2026-03-12_11h22.59.560,2026A_exp2,2022.2.4,60.060817613506565,
1000,1,6.1,0.0,1,0,13,13,71,,,,,89.46631619986147,90.11697959993035,90.11697959993035,90.61789570003748,315,315,90.61789570003748,90.61789570003748,90.61789570003748,90.61789570003748,90.61789570003748,90.61789570003748,90.61789570003748,90.61789570003748,90.61789570003748,90.98460519989021,90.98460519989021,90.98460519989021,90.98460519989021,90.98460519989021,90.98460519989021,90.98460519989021,90.98460519989021,90.98460519989021,23,0,,,90.98460519989021,91.18663230002858,1000,91.18663230002858,1000,1000,1000,1000,0,num_3,0.5838000001385808,,30,14,2026-03-12_11h22.59.560,2026A_exp2,2022.2.4,60.060817613506565,
1,0,6.1,0.0,0,0,14,14,22,,,,,91.8020212999545,92.45270559983328,92.45270559983328,92.937254199991,45,315,92.937254199991,92.937254199991,92.937254199991,92.937254199991,92.937254199991,92.937254199991,92.937254199991,92.937254199991,92.937254199991,93.30355899990536,93.30355899990536,93.30355899990536,93.30355899990536,93.30355899990536,93.30355899990536,93.30355899990536,93.30355899990536,93.30355899990536,1,2,"[0.0007609999738633633, 0.06685649999417365]","[0.04998480016365647, 0.36718860012479126]",93.30355899990536,93.50374569999985,6.1,93.50374569999985,1,6.1,1,1,1000,num_4,0.7233348998706788,,30,14,2026-03-12_11h22.59.560,2026A_exp2,2022.2.4,60.060817613506565,
1000,1,4.9,3.7,0,0,15,15,26,,,,,94.25435059983283,94.90526489983313,94.90526489983313,95.38967449986376,45,45,95.38967449986376,95.38967449986376,95.38967449986376,95.38967449986376,95.38967449986376,95.38967449986376,95.38967449986376,95.38967449986376,95.38967449986376,95.75610430003144,95.75610430003144,95.75610430003144,95.75610430003144,95.75610430003144,95.75610430003144,95.75610430003144,95.75610430003144,95.75610430003144,4,2,"[0.0012740998063236475, 0.050159099977463484]","[0.01735079986974597, 0.350394899956882]",95.75610430003144,95.95846459991299,1000,95.95846459991299,1000,1000,1000,1000,0,num_3,0.5637404001317918,,30,14,2026-03-12_11h22.59.560,2026A_exp2,2022.2.4,60.060817613506565,
0,0,3.7,0.0,0,0,16,16,16,,,,,96.53992809983902,97.19083380000666,97.19083380000666,97.6918488999363,45,315,97.6918488999363,97.6918488999363,97.6918488999363,97.6918488999363,97.6918488999363,97.6918488999363,97.6918488999363,97.6918488999363,97.6918488999363,98.05823399988003,98.05823399988003,98.05823399988003,98.05823399988003,98.05823399988003,98.05823399988003,98.05823399988003,98.05823399988003,98.05823399988003,18,1,[0.0012752998154610395],[0.08385079982690513],98.05823399988003,98.25860339985229,0.0,98.25860339985229,0,0.0,0,1,1000,num_1,0.7036760000046343,,30,14,2026-03-12_11h22.59.560,2026A_exp2,2022.2.4,60.060817613506565,
1000,1,3.7,3.7,0,0,17,17,76,,,,,98.992418800015,99.64318459993228,99.64318459993228,100.12761239986867,315,315,100.12761239986867,100.12761239986867,100.12761239986867,100.12761239986867,100.12761239986867,100.12761239986867,100.12761239986867,100.12761239986867,100.12761239986867,100.49416180001572,100.49416180001572,100.49416180001572,100.49416180001572,100.49416180001572,100.49416180001572,100.49416180001572,100.49416180001572,100.49416180001572,20,1,[0.0012360999826341867],[0.05026899999938905],100.49416180001572,100.69617539993487,1000,100.69617539993487,1000,1000,1000,1000,0,num_3,0.8015171000733972,,30,14,2026-03-12_11h22.59.560,2026A_exp2,2022.2.4,60.060817613506565,
0,0,3.7,0.0,1,0,18,18,0,,,,,101.52834800002165,102.17912789992988,102.17912789992988,102.68032939988188,45,315,102.68032939988188,102.68032939988188,102.68032939988188,102.68032939988188,102.68032939988188,102.68032939988188,102.68032939988188,102.68032939988188,102.68032939988188,103.04642849997617,103.04642849997617,103.04642849997617,103.04642849997617,103.04642849997617,103.04642849997617,103.04642849997617,103.04642849997617,103.04642849997617,21,1,[0.0012493000831454992],[0.03362950007431209],103.04642849997617,103.2468615998514,3.7,103.2468615998514,1,3.7,1,1,1000,num_4,0.47496220003813505,,30,14,2026-03-12_11h22.59.560,2026A_exp2,2022.2.4,60.060817613506565,
1000,1,0.0,3.7,0,0,19,19,18,,,,,103.74725599982776,104.39791799988598,104.39791799988598,104.88240440003574,315,315,104.88240440003574,104.88240440003574,104.88240440003574,104.88240440003574,104.88240440003574,104.88240440003574,104.88240440003574,104.88240440003574,104.88240440003574,105.24886119994335,105.24886119994335,105.24886119994335,105.24886119994335,105.24886119994335,105.24886119994335,105.24886119994335,105.24886119994335,105.24886119994335,23,0,,,105.24886119994335,105.45107449986972,1000,105.45107449986972,1000,1000,1000,1000,1,num_2,0.5437930000480264,,30,14,2026-03-12_11h22.59.560,2026A_exp2,2022.2.4,60.060817613506565,
1000,1,4.9,6.1,0,0,20,20,35,,,,,106.01616399991326,106.66691010002978,106.66691010002978,107.16786809987389,315,315,107.16786809987389,107.16786809987389,107.16786809987389,107.16786809987389,107.16786809987389,107.16786809987389,107.16786809987389,107.16786809987389,107.16786809987389,107.53453109995462,107.53453109995462,107.53453109995462,107.53453109995462,107.53453109995462,107.53453109995462,107.53453109995462,107.53453109995462,107.53453109995462,23,0,,,107.53453109995462,107.73686539987102,1000,107.73686539987102,1000,1000,1000,1000,1,num_2,0.5220691000577062,,30,14,2026-03-12_11h22.59.560,2026A_exp2,2022.2.4,60.060817613506565,
1,0,4.9,0.0,1,0,21,21,52,,,,,108.28505539987236,108.93601249996573,108.93601249996573,109.43701220001094,315,45,109.43701220001094,109.43701220001094,109.43701220001094,109.43701220001094,109.43701220001094,109.43701220001094,109.43701220001094,109.43701220001094,109.43701220001094,109.80343399988487,109.80343399988487,109.80343399988487,109.80343399988487,109.80343399988487,109.80343399988487,109.80343399988487,109.80343399988487,109.80343399988487,23,0,,,109.80343399988487,110.00369109981693,0.0,110.00369109981693,1,0.0,0,0,1000,num_4,0.8305597000289708,,30,14,2026-03-12_11h22.59.560,2026A_exp2,2022.2.4,60.060817613506565,
1000,1,3.7,3.7,1,0,22,22,25,,,,,110.85463929991238,111.48867210000753,111.48867210000753,111.98950649984181,45,315,111.98950649984181,111.98950649984181,111.98950649984181,111.98950649984181,111.98950649984181,111.98950649984181,111.98950649984181,111.98950649984181,111.98950649984181,112.35592220001854,112.35592220001854,112.35592220001854,112.35592220001854,112.35592220001854,112.35592220001854,112.35592220001854,112.35592220001854,112.35592220001854,22,1,[0.0012953998520970345],[0.01723669981583953],112.35592220001854,112.55826109996997,1000,112.55826109996997,1000,1000,1000,1000,0,num_3,0.508847099961713,,30,14,2026-03-12_11h22.59.560,2026A_exp2,2022.2.4,60.060817613506565,
1000,1,0.0,0.0,1,0,23,23,78,,,,,113.09027799987234,113.7405944999773,113.7405944999773,114.24187519983388,45,45,114.24187519983388,114.24187519983388,114.24187519983388,114.24187519983388,114.24187519983388,114.24187519983388,114.24187519983388,114.24187519983388,114.24187519983388,114.60819609998725,114.60819609998725,114.60819609998725,114.60819609998725,114.60819609998725,114.60819609998725,114.60819609998725,114.60819609998725,114.60819609998725,23,0,,,114.60819609998725,114.81051019998267,1000,114.81051019998267,1000,1000,1000,1000,1,num_2,0.8318951998371631,,30,14,2026-03-12_11h22.59.560,2026A_exp2,2022.2.4,60.060817613506565,
1,0,0.0,3.7,0,0,24,24,34,,,,,115.65923949982971,116.31004569982179,116.31004569982179,116.81096839997917,315,315,116.81096839997917,116.81096839997917,116.81096839997917,116.81096839997917,116.81096839997917,116.81096839997917,116.81096839997917,116.81096839997917,116.81096839997917,117.17738629993983,117.17738629993983,117.17738629993983,117.17738629993983,117.17738629993983,117.17738629993983,117.17738629993983,117.17738629993983,117.17738629993983,23,0,,,117.17738629993983,117.37752859992906,0.0,117.37752859992906,0,0.0,0,1,1000,num_1,0.2808808998670429,,30,14,2026-03-12_11h22.59.560,2026A_exp2,2022.2.4,60.060817613506565,
1,0,3.7,0.0,1,0,25,25,73,,,,,117.67810010001995,118.31192400003783,118.31192400003783,118.81309099984355,315,45,118.81309099984355,118.81309099984355,118.81309099984355,118.81309099984355,118.81309099984355,118.81309099984355,118.81309099984355,118.81309099984355,118.81309099984355,119.17942309984937,119.17942309984937,119.17942309984937,119.17942309984937,119.17942309984937,119.17942309984937,119.17942309984937,119.17942309984937,119.17942309984937,23,0,,,119.17942309984937,119.37972419988364,0.0,119.37972419988364,1,0.0,0,0,1000,num_4,0.6460541998967528,,30,14,2026-03-12_11h22.59.560,2026A_exp2,2022.2.4,60.060817613506565,
1000,1,3.7,0.0,0,0,26,26,28,,,,,120.04952929983847,120.69778089993633,120.69778089993633,121.19876249996014,315,45,121.19876249996014,121.19876249996014,121.19876249996014,121.19876249996014,121.19876249996014,121.19876249996014,121.19876249996014,121.19876249996014,121.19876249996014,121.56517229997553,121.56517229997553,121.56517229997553,121.56517229997553,121.56517229997553,121.56517229997553,121.56517229997553,121.56517229997553,121.56517229997553,23,0,,,121.56517229997553,121.76654849993065,1000,121.76654849993065,1000,1000,1000,1000,1,num_2,0.9962026001885533,,30,14,2026-03-12_11h22.59.560,2026A_exp2,2022.2.4,60.060817613506565,
1,0,0.0,0.0,1,0,27,27,66,,,,,122.78340970003046,123.43381249997765,123.43381249997765,123.93490589992143,45,315,123.93490589992143,123.93490589992143,123.93490589992143,123.93490589992143,123.93490589992143,123.93490589992143,123.93490589992143,123.93490589992143,123.93490589992143,124.30123550002463,124.30123550002463,124.30123550002463,124.30123550002463,124.30123550002463,124.30123550002463,124.30123550002463,124.30123550002463,124.30123550002463,0,1,[0.0012464998289942741],[0.3671794000547379],124.30123550002463,124.50160630000755,0.0,124.50160630000755,0,0.0,0,1,1000,num_1,0.2279858998954296,,30,14,2026-03-12_11h22.59.560,2026A_exp2,2022.2.4,60.060817613506565,
1,0,3.7,3.7,1,0,28,28,11,,,,,124.75180389988236,125.38549249991775,125.38549249991775,125.88653839984909,45,45,125.88653839984909,125.88653839984909,125.88653839984909,125.88653839984909,125.88653839984909,125.88653839984909,125.88653839984909,125.88653839984909,125.88653839984909,126.25327200000174,126.25327200000174,126.25327200000174,126.25327200000174,126.25327200000174,126.25327200000174,126.25327200000174,126.25327200000174,126.25327200000174,0,1,[0.0013154000043869019],[0.3671029000543058],126.25327200000174,126.45344519987702,3.7,126.45344519987702,0,3.7,1,0,1000,num_1,0.42872159997932613,,30,14,2026-03-12_11h22.59.560,2026A_exp2,2022.2.4,60.060817613506565,
1,0,0.0,4.9,0,0,29,29,48,,,,,126.90366630000062,127.55438699992374,127.55438699992374,128.03890159982257,315,315,128.03890159982257,128.03890159982257,128.03890159982257,128.03890159982257,128.03890159982257,128.03890159982257,128.03890159982257,128.03890159982257,128.03890159982257,128.40537399984896,128.40537399984896,128.40537399984896,128.40537399984896,128.40537399984896,128.40537399984896,128.40537399984896,128.40537399984896,128.40537399984896,23,0,,,128.40537399984896,128.60550899989903,0.0,128.60550899989903,0,0.0,0,1,1000,num_1,0.3486690998543054,,30,14,2026-03-12_11h22.59.560,2026A_exp2,2022.2.4,60.060817613506565,
1000,1,0.0,6.1,0,0,30,30,85,,,,,128.97247809986584,129.62329589994624,129.62329589994624,130.10750479996204,45,315,130.10750479996204,130.10750479996204,130.10750479996204,130.10750479996204,130.10750479996204,130.10750479996204,130.10750479996204,130.10750479996204,130.10750479996204,130.47402269998565,130.47402269998565,130.47402269998565,130.47402269998565,130.47402269998565,130.47402269998565,130.47402269998565,130.47402269998565,130.47402269998565,0,1,[0.0012260000221431255],[0.36731770006008446],130.47402269998565,130.67680989997461,1000,130.67680989997461,1000,1000,1000,1000,1,num_2,0.4220354000572115,,30,14,2026-03-12_11h22.59.560,2026A_exp2,2022.2.4,60.060817613506565,
1,0,3.7,0.0,0,0,31,31,15,,,,,131.12468239990994,131.775315299863,131.775315299863,132.27621059981175,45,45,132.27621059981175,132.27621059981175,132.27621059981175,132.27621059981175,132.27621059981175,132.27621059981175,132.27621059981175,132.27621059981175,132.27621059981175,132.62611579988152,132.62611579988152,132.62611579988152,132.62611579988152,132.62611579988152,132.62611579988152,132.62611579988152,132.62611579988152,132.62611579988152,22,0,,,132.62611579988152,132.82628129981458,3.7,132.84301740000956,1,3.7,1,1,1000,num_4,0.7836668998934329,,30,14,2026-03-12_11h22.59.560,2026A_exp2,2022.2.4,60.060817613506565,
1000,1,0.0,6.1,0,0,32,32,5,,,,,133.64377069985494,134.2947096999269,134.2947096999269,134.7791001999285,315,315,134.7791001999285,134.7791001999285,134.7791001999285,134.7791001999285,134.7791001999285,134.7791001999285,134.7791001999285,134.7791001999285,134.7791001999285,135.14532459992915,135.14532459992915,135.14532459992915,135.14532459992915,135.14532459992915,135.14532459992915,135.14532459992915,135.14532459992915,135.14532459992915,22,1,[0.001229400048032403],[0.01750380010344088],135.14532459992915,135.3478690998163,1000,135.3478690998163,1000,1000,1000,1000,1,num_2,0.34244669997133315,,30,14,2026-03-12_11h22.59.560,2026A_exp2,2022.2.4,60.060817613506565,
1,0,0.0,0.0,1,0,33,33,24,,,,,135.71267649997026,136.36327959992923,136.36327959992923,136.8643567999825,45,315,136.8643567999825,136.8643567999825,136.8643567999825,136.8643567999825,136.8643567999825,136.8643567999825,136.8643567999825,136.8643567999825,136.8643567999825,137.23056219983846,137.23056219983846,137.23056219983846,137.23056219983846,137.23056219983846,137.23056219983846,137.23056219983846,137.23056219983846,137.23056219983846,6,1,[0.0667850999161601],[0.35049139987677336],137.23056219983846,137.43101559998468,0.0,137.43101559998468,0,0.0,0,1,1000,num_1,0.7713380998466164,,30,14,2026-03-12_11h22.59.560,2026A_exp2,2022.2.4,60.060817613506565,
1,0,4.9,0.0,0,0,34,34,14,,,,,138.2316268000286,138.88252839981578,138.88252839981578,139.36697089998052,315,315,139.36697089998052,139.36697089998052,139.36697089998052,139.36697089998052,139.36697089998052,139.36697089998052,139.36697089998052,139.36697089998052,139.36697089998052,139.7333335999865,139.7333335999865,139.7333335999865,139.7333335999865,139.7333335999865,139.7333335999865,139.7333335999865,139.7333335999865,139.7333335999865,3,3,"[0.0012619998306035995, 0.09961109980940819, 0.30043999990448356]","[0.06698199990205467, 0.2836765998508781, 0.3671883998904377]",139.7333335999865,139.93350879987702,4.9,139.93350879987702,1,4.9,1,1,1000,num_4,0.5812993000727147,,30,14,2026-03-12_11h22.59.560,2026A_exp2,2022.2.4,60.060817613506565,
1000,1,0.0,0.0,0,0,35,35,33,,,,,140.53389839990996,141.18478689994663,141.18478689994663,141.6692069999408,315,315,141.6692069999408,141.6692069999408,141.6692069999408,141.6692069999408,141.6692069999408,141.6692069999408,141.6692069999408,141.6692069999408,141.6692069999408,142.03569449996576,142.03569449996576,142.03569449996576,142.03569449996576,142.03569449996576,142.03569449996576,142.03569449996576,142.03569449996576,142.03569449996576,6,3,"[0.001263599842786789, 0.10040909983217716, 0.13380869990214705]","[0.03363520000129938, 0.11699329991824925, 0.33378269989043474]",142.03569449996576,142.23764239996672,1000,142.23764239996672,1000,1000,1000,1000,1,num_2,0.45258900010958314,,30,14,2026-03-12_11h22.59.560,2026A_exp2,2022.2.4,60.060817613506565,
1,0,0.0,0.0,1,0,36,36,56,,,,,142.7196096999105,143.3701895000413,143.3701895000413,143.87129849987105,45,45,143.87129849987105,143.87129849987105,143.87129849987105,143.87129849987105,143.87129849987105,143.87129849987105,143.87129849987105,143.87129849987105,143.87129849987105,144.2378761,144.2378761,144.2378761,144.2378761,144.2378761,144.2378761,144.2378761,144.2378761,144.2378761,15,2,"[0.11690889997407794, 0.2670308998785913]","[0.133615099824965, 0.36712950002402067]",144.2378761,144.43812750000507,0.0,144.43812750000507,1,0.0,0,0,1000,num_4,0.6354845999740064,,30,14,2026-03-12_11h22.59.560,2026A_exp2,2022.2.4,60.060817613506565,
1,0,0.0,0.0,1,0,37,37,77,,,,,145.10527319996618,145.75613779993728,145.75613779993728,146.24066679994576,45,45,146.24066679994576,146.24066679994576,146.24066679994576,146.24066679994576,146.24066679994576,146.24066679994576,146.24066679994576,146.24066679994576,146.24066679994576,146.60730759985745,146.60730759985745,146.60730759985745,146.60730759985745,146.60730759985745,146.60730759985745,146.60730759985745,146.60730759985745,146.60730759985745,18,1,[0.0012691998854279518],[0.08352730004116893],146.60730759985745,146.80700739985332,0.0,146.80700739985332,0,0.0,0,1,1000,num_1,0.36355079989880323,,30,14,2026-03-12_11h22.59.560,2026A_exp2,2022.2.4,60.060817613506565,
0,0,4.9,3.7,1,0,38,38,13,,,,,147.1907360998448,147.84150770003907,147.84150770003907,148.32586169987917,315,315,148.32586169987917,148.32586169987917,148.32586169987917,148.32586169987917,148.32586169987917,148.32586169987917,148.32586169987917,148.32586169987917,148.32586169987917,148.69215949997306,148.69215949997306,148.69215949997306,148.69215949997306,148.69215949997306,148.69215949997306,148.69215949997306,148.69215949997306,148.69215949997306,4,3,"[0.03355000005103648, 0.23336170008406043, 0.2670046000275761]","[0.2166389999911189, 0.2501884000375867, 0.36676419991999865]",148.69215949997306,148.89250479987822,4.9,148.89250479987822,1,4.9,1,1,1000,num_4,0.5337729998864233,,30,14,2026-03-12_11h22.59.560,2026A_exp2,2022.2.4,60.060817613506565,
1000,1,0.0,3.7,1,0,39,39,86,,,,,149.4428617998492,150.09372320002876,150.09372320002876,150.59485849994235,315,315,150.59485849994235,150.59485849994235,150.59485849994235,150.59485849994235,150.59485849994235,150.59485849994235,150.59485849994235,150.59485849994235,150.59485849994235,150.94455310003832,150.94455310003832,150.94455310003832,150.94455310003832,150.94455310003832,150.94455310003832,150.94455310003832,150.94455310003832,150.94455310003832,0,1,[0.001301000127568841],[0.35104979993775487],150.94455310003832,151.14671249990351,1000,151.14671249990351,1000,1000,1000,1000,1,num_2,0.5829791000578552,,30,14,2026-03-12_11h22.59.560,2026A_exp2,2022.2.4,60.060817613506565,
1000,1,0.0,0.0,1,0,40,40,37,,,,,151.74525319994427,152.3960575000383,152.3960575000383,152.897199699888,315,315,152.897199699888,152.897199699888,152.897199699888,152.897199699888,152.897199699888,152.897199699888,152.897199699888,152.897199699888,152.897199699888,153.26349549996667,153.26349549996667,153.26349549996667,153.26349549996667,153.26349549996667,153.26349549996667,153.26349549996667,153.26349549996667,153.26349549996667,23,0,,,153.26349549996667,153.46636600000784,1000,153.46636600000784,1000,1000,1000,1000,1,num_2,0.4715527999214828,,30,14,2026-03-12_11h22.59.560,2026A_exp2,2022.2.4,60.060817613506565,
0,0,6.1,0.0,0,0,41,41,65,,,,,153.96442530001514,154.61505439993925,154.61505439993925,155.0992302999366,315,45,155.0992302999366,155.0992302999366,155.0992302999366,155.0992302999366,155.0992302999366,155.0992302999366,155.0992302999366,155.0992302999366,155.0992302999366,155.46578099997714,155.46578099997714,155.46578099997714,155.46578099997714,155.46578099997714,155.46578099997714,155.46578099997714,155.46578099997714,155.46578099997714,23,0,,,155.46578099997714,155.66594629990868,0.0,155.66594629990868,0,0.0,0,1,1000,num_1,0.7759469000156969,,30,14,2026-03-12_11h22.59.560,2026A_exp2,2022.2.4,60.060817613506565,
1000,1,4.9,4.9,1,0,42,42,67,,,,,156.4670883999206,157.10072739981115,157.10072739981115,157.60174690000713,315,45,157.60174690000713,157.60174690000713,157.60174690000713,157.60174690000713,157.60174690000713,157.60174690000713,157.60174690000713,157.60174690000713,157.60174690000713,157.96823799982667,157.96823799982667,157.96823799982667,157.96823799982667,157.96823799982667,157.96823799982667,157.96823799982667,157.96823799982667,157.96823799982667,23,0,,,157.96823799982667,158.17028760001995,1000,158.17028760001995,1000,1000,1000,1000,1,num_2,0.5515654000919312,,30,14,2026-03-12_11h22.59.560,2026A_exp2,2022.2.4,60.060817613506565,
0,0,0.0,6.1,1,0,43,43,84,,,,,158.7525271999184,159.40300079993904,159.40300079993904,159.90412910003215,45,315,159.90412910003215,159.90412910003215,159.90412910003215,159.90412910003215,159.90412910003215,159.90412910003215,159.90412910003215,159.90412910003215,159.90412910003215,160.25385179999284,160.25385179999284,160.25385179999284,160.25385179999284,160.25385179999284,160.25385179999284,160.25385179999284,160.25385179999284,160.25385179999284,20,1,[0.0012249001301825047],[0.03369590011425316],160.25385179999284,160.45414889999665,0.0,160.45414889999665,0,0.0,0,1,1000,num_1,0.6437218999490142,,30,14,2026-03-12_11h22.59.560,2026A_exp2,2022.2.4,60.060817613506565,
1000,1,4.9,0.0,0,0,44,44,82,,,,,161.1213676999323,161.7721132999286,161.7721132999286,162.25644209980965,315,315,162.25644209980965,162.25644209980965,162.25644209980965,162.25644209980965,162.25644209980965,162.25644209980965,162.25644209980965,162.25644209980965,162.25644209980965,162.62303589982912,162.62303589982912,162.62303589982912,162.62303589982912,162.62303589982912,162.62303589982912,162.62303589982912,162.62303589982912,162.62303589982912,23,0,,,162.62303589982912,162.82505379989743,1000,162.82505379989743,1000,1000,1000,1000,0,num_3,0.6568144001066685,,30,14,2026-03-12_11h22.59.560,2026A_exp2,2022.2.4,60.060817613506565,
1000,1,3.7,0.0,1,0,45,45,54,,,,,163.50695859990083,164.15762760001235,164.15762760001235,164.658927799901,45,315,164.658927799901,164.658927799901,164.658927799901,164.658927799901,164.658927799901,164.658927799901,164.658927799901,164.658927799901,164.658927799901,165.02522949990816,165.02522949990816,165.02522949990816,165.02522949990816,165.02522949990816,165.02522949990816,165.02522949990816,165.02522949990816,165.02522949990816,20,1,[0.0012350999750196934],[0.0503626000136137],165.02522949990816,165.22740959981456,1000,165.22740959981456,1000,1000,1000,1000,0,num_3,0.5750491998624057,,30,14,2026-03-12_11h22.59.560,2026A_exp2,2022.2.4,60.060817613506565,
1,0,6.1,4.9,1,0,46,46,38,,,,,165.8259953998495,166.4767722999677,166.4767722999677,166.9778674999252,315,315,166.9778674999252,166.9778674999252,166.9778674999252,166.9778674999252,166.9778674999252,166.9778674999252,166.9778674999252,166.9778674999252,166.9778674999252,167.34443599986844,167.34443599986844,167.34443599986844,167.34443599986844,167.34443599986844,167.34443599986844,167.34443599986844,167.34443599986844,167.34443599986844,0,1,[0.0012310000602155924],[0.36672249995172024],167.34443599986844,167.54463949985802,4.9,167.54463949985802,0,4.9,1,0,1000,num_1,0.6578661000821739,,30,14,2026-03-12_11h22.59.560,2026A_exp2,2022.2.4,60.060817613506565,
1000,1,0.0,3.7,0,0,47,47,21,,,,,168.22839599987492,168.87929009995423,168.87929009995423,169.36344789993018,45,45,169.36344789993018,169.36344789993018,169.36344789993018,169.36344789993018,169.36344789993018,169.36344789993018,169.36344789993018,169.36344789993018,169.36344789993018,169.73003529990092,169.73003529990092,169.73003529990092,169.73003529990092,169.73003529990092,169.73003529990092,169.73003529990092,169.73003529990092,169.73003529990092,23,0,,,169.73003529990092,169.93292009993456,1000,169.93292009993456,1000,1000,1000,1000,1,num_2,0.5487907000351697,,30,14,2026-03-12_11h22.59.560,2026A_exp2,2022.2.4,60.060817613506565,
0,0,0.0,6.1,0,0,48,48,30,,,,,170.49735770002007,171.14818489993922,171.14818489993922,171.6492893998511,315,45,171.6492893998511,171.6492893998511,171.6492893998511,171.6492893998511,171.6492893998511,171.6492893998511,171.6492893998511,171.6492893998511,171.6492893998511,172.01577609986998,172.01577609986998,172.01577609986998,172.01577609986998,172.01577609986998,172.01577609986998,172.01577609986998,172.01577609986998,172.01577609986998,23,0,,,172.01577609986998,172.21827299986035,6.1,172.21827299986035,1,6.1,1,1,1000,num_4,0.3843604000285268,,30,14,2026-03-12_11h22.59.560,2026A_exp2,2022.2.4,60.060817613506565,
1,0,4.9,3.7,0,0,49,49,89,,,,,172.6327769998461,173.28362419991754,173.28362419991754,173.78463199990802,315,315,173.78463199990802,173.78463199990802,173.78463199990802,173.78463199990802,173.78463199990802,173.78463199990802,173.78463199990802,173.78463199990802,173.78463199990802,174.15107659995556,174.15107659995556,174.15107659995556,174.15107659995556,174.15107659995556,174.15107659995556,174.15107659995556,174.15107659995556,174.15107659995556,23,0,,,174.15107659995556,174.35140109993517,4.9,174.35140109993517,1,4.9,1,1,1000,num_4,0.5236722000408918,,30,14,2026-03-12_11h22.59.560,2026A_exp2,2022.2.4,60.060817613506565,
1,0,4.9,0.0,0,0,50,50,19,,,,,174.9016378999222,175.5524784999434,175.5524784999434,176.0366228998173,315,45,176.0366228998173,176.0366228998173,176.0366228998173,176.0366228998173,176.0366228998173,176.0366228998173,176.0366228998173,176.0366228998173,176.0366228998173,176.40324489981867,176.40324489981867,176.40324489981867,176.40324489981867,176.40324489981867,176.40324489981867,176.40324489981867,176.40324489981867,176.40324489981867,0,1,[0.0012370999902486801],[0.3672340998891741],176.40324489981867,176.60343499993905,4.9,176.60343499993905,1,4.9,1,1,1000,num_4,0.4312858998309821,,30,14,2026-03-12_11h22.59.560,2026A_exp2,2022.2.4,60.060817613506565,
1,0,6.1,0.0,1,0,51,51,23,,,,,177.05387769988738,177.7047090998385,177.7047090998385,178.1890922000166,315,315,178.1890922000166,178.1890922000166,178.1890922000166,178.1890922000166,178.1890922000166,178.1890922000166,178.1890922000166,178.1890922000166,178.1890922000166,178.5554785998538,178.5554785998538,178.5554785998538,178.5554785998538,178.5554785998538,178.5554785998538,178.5554785998538,178.5554785998538,178.5554785998538,23,0,,,178.5554785998538,178.75574379996397,0.0,178.75574379996397,0,0.0,0,1,1000,num_1,1.1584735000506043,,30,14,2026-03-12_11h22.59.560,2026A_exp2,2022.2.4,60.060817613506565,
1000,1,4.9,6.1,0,0,52,52,49,,,,,179.94011850003153,180.57467529992573,180.57467529992573,181.0752055000048,315,315,181.0752055000048,181.0752055000048,181.0752055000048,181.0752055000048,181.0752055000048,181.0752055000048,181.0752055000048,181.0752055000048,181.0752055000048,181.44167119986378,181.44167119986378,181.44167119986378,181.44167119986378,181.44167119986378,181.44167119986378,181.44167119986378,181.44167119986378,181.44167119986378,23,0,,,181.44167119986378,181.64197089988738,1000,181.64197089988738,1000,1000,1000,1000,0,num_3,1.8564888001419604,,30,14,2026-03-12_11h22.59.560,2026A_exp2,2022.2.4,60.060817613506565,
1,0,0.0,0.0,1,0,53,53,42,,,,,183.52705030003563,184.17782069998793,184.17782069998793,184.67898779991083,45,45,184.67898779991083,184.67898779991083,184.67898779991083,184.67898779991083,184.67898779991083,184.67898779991083,184.67898779991083,184.67898779991083,184.67898779991083,185.0453864999581,185.0453864999581,185.0453864999581,185.0453864999581,185.0453864999581,185.0453864999581,185.0453864999581,185.0453864999581,185.0453864999581,23,0,,,185.0453864999581,185.24565369985066,0.0,185.24565369985066,0,0.0,0,1,1000,num_1,0.34133030008524656,,30,14,2026-03-12_11h22.59.560,2026A_exp2,2022.2.4,60.060817613506565,
1,0,4.9,0.0,0,0,54,54,57,,,,,185.6125494998414,186.2632531998679,186.2632531998679,186.74767139996402,315,45,186.74767139996402,186.74767139996402,186.74767139996402,186.74767139996402,186.74767139996402,186.74767139996402,186.74767139996402,186.74767139996402,186.74767139996402,187.11387689993717,187.11387689993717,187.11387689993717,187.11387689993717,187.11387689993717,187.11387689993717,187.11387689993717,187.11387689993717,187.11387689993717,12,2,"[0.1335624000057578, 0.1670919000171125]","[0.15027790004387498, 0.3339692000299692]",187.11387689993717,187.3142134998925,4.9,187.3142134998925,1,4.9,1,1,1000,num_4,0.46371900010854006,,30,14,2026-03-12_11h22.59.560,2026A_exp2,2022.2.4,60.060817613506565,
1,0,0.0,0.0,0,0,55,55,31,,,,,187.79798069992103,188.44881129986607,188.44881129986607,188.94984959997237,45,315,188.94984959997237,188.94984959997237,188.94984959997237,188.94984959997237,188.94984959997237,188.94984959997237,188.94984959997237,188.94984959997237,188.94984959997237,189.31622209982015,189.31622209982015,189.31622209982015,189.31622209982015,189.31622209982015,189.31622209982015,189.31622209982015,189.31622209982015,189.31622209982015,23,0,,,189.31622209982015,189.51644929987378,0.0,189.51644929987378,0,0.0,0,1,1000,num_1,0.6056284999940544,,30,14,2026-03-12_11h22.59.560,2026A_exp2,2022.2.4,60.060817613506565,
1000,1,0.0,3.7,1,0,56,56,7,,,,,190.15016600000672,190.80119189992547,190.80119189992547,191.28552649985068,315,315,191.28552649985068,191.28552649985068,191.28552649985068,191.28552649985068,191.28552649985068,191.28552649985068,191.28552649985068,191.28552649985068,191.28552649985068,191.65197539981455,191.65197539981455,191.65197539981455,191.65197539981455,191.65197539981455,191.65197539981455,191.65197539981455,191.65197539981455,191.65197539981455,1,2,"[0.0012574999127537012, 0.26705929986201227]","[0.25032009999267757, 0.36710389982908964]",191.65197539981455,191.8540143999271,1000,191.8540143999271,1000,1000,1000,1000,1,num_2,0.7326382999308407,,30,14,2026-03-12_11h22.59.560,2026A_exp2,2022.2.4,60.060817613506565,
1,0,0.0,6.1,0,0,57,57,3,,,,,192.60272659990005,193.2534523999784,193.2534523999784,193.75458049983718,315,45,193.75458049983718,193.75458049983718,193.75458049983718,193.75458049983718,193.75458049983718,193.75458049983718,193.75458049983718,193.75458049983718,193.75458049983718,194.1214540998917,194.1214540998917,194.1214540998917,194.1214540998917,194.1214540998917,194.1214540998917,194.1214540998917,194.1214540998917,194.1214540998917,3,3,"[0.0012278999201953411, 0.10022179991938174, 0.1502625998109579]","[0.06660819984972477, 0.13353389990516007, 0.3671179998200387]",194.1214540998917,194.32128429994918,0.0,194.32128429994918,0,0.0,0,1,1000,num_1,0.6897921001072973,,30,14,2026-03-12_11h22.59.560,2026A_exp2,2022.2.4,60.060817613506565,
1000,1,0.0,0.0,1,0,58,58,72,,,,,195.0385545999743,195.68947310000658,195.68947310000658,196.17373709985986,315,315,196.17373709985986,196.17373709985986,196.17373709985986,196.17373709985986,196.17373709985986,196.17373709985986,196.17373709985986,196.17373709985986,196.17373709985986,196.54008219996467,196.54008219996467,196.54008219996467,196.54008219996467,196.54008219996467,196.54008219996467,196.54008219996467,196.54008219996467,196.54008219996467,0,1,[0.001298600109294057],[0.3671518999617547],196.54008219996467,196.74278959981166,1000,196.74278959981166,1000,1000,1000,1000,1,num_2,0.49906400009058416,,30,14,2026-03-12_11h22.59.560,2026A_exp2,2022.2.4,60.060817613506565,
1,0,0.0,3.7,1,0,59,59,83,,,,,197.2574732999783,197.90818269993179,197.90818269993179,198.4089873000048,45,45,198.4089873000048,198.4089873000048,198.4089873000048,198.4089873000048,198.4089873000048,198.4089873000048,198.4089873000048,198.4089873000048,198.4089873000048,198.77568520000204,198.77568520000204,198.77568520000204,198.77568520000204,198.77568520000204,198.77568520000204,198.77568520000204,198.77568520000204,198.77568520000204,23,0,,,198.77568520000204,198.9759430999402,3.7,198.9759430999402,0,3.7,1,0,1000,num_1,0.25844780006445944,,30,14,2026-03-12_11h22.59.560,2026A_exp2,2022.2.4,60.060817613506565,
1,0,4.9,6.1,1,0,60,60,62,,,,,199.25934230000712,199.91023659985512,199.91023659985512,200.41125370003283,315,315,200.41125370003283,200.41125370003283,200.41125370003283,200.41125370003283,200.41125370003283,200.41125370003283,200.41125370003283,200.41125370003283,200.41125370003283,200.777753100032,200.777753100032,200.777753100032,200.777753100032,200.777753100032,200.777753100032,200.777753100032,200.777753100032,200.777753100032,16,1,[0.0011475000064820051],[0.11657400010153651],200.777753100032,200.9778741998598,6.1,200.9778741998598,0,6.1,1,0,1000,num_1,0.5051043999847025,,30,14,2026-03-12_11h22.59.560,2026A_exp2,2022.2.4,60.060817613506565,
1,0,6.1,0.0,1,0,61,61,41,,,,,201.51167869986966,202.14581859996542,202.14581859996542,202.64679939998314,45,45,202.64679939998314,202.64679939998314,202.64679939998314,202.64679939998314,202.64679939998314,202.64679939998314,202.64679939998314,202.64679939998314,202.64679939998314,203.01333649992011,203.01333649992011,203.01333649992011,203.01333649992011,203.01333649992011,203.01333649992011,203.01333649992011,203.01333649992011,203.01333649992011,6,2,"[0.067150300135836, 0.2506998002063483]","[0.21734380000270903, 0.36744599998928607]",203.01333649992011,203.21341079985723,0.0,203.21341079985723,0,0.0,0,1,1000,num_1,1.01322660013102,,30,14,2026-03-12_11h22.59.560,2026A_exp2,2022.2.4,60.060817613506565,
1000,1,0.0,6.1,1,0,62,62,40,,,,,204.2476174000185,204.8985194999259,204.8985194999259,205.38299699989147,45,315,205.38299699989147,205.38299699989147,205.38299699989147,205.38299699989147,205.38299699989147,205.38299699989147,205.38299699989147,205.38299699989147,205.38299699989147,205.74936769995838,205.74936769995838,205.74936769995838,205.74936769995838,205.74936769995838,205.74936769995838,205.74936769995838,205.74936769995838,205.74936769995838,23,0,,,205.74936769995838,205.95194119983353,1000,205.95194119983353,1000,1000,1000,1000,1,num_2,0.6269251999910921,,30,14,2026-03-12_11h22.59.560,2026A_exp2,2022.2.4,60.060817613506565,
1000,1,0.0,4.9,1,0,63,63,51,,,,,206.60011069988832,207.25078539992683,207.25078539992683,207.75177079997957,315,315,207.75177079997957,207.75177079997957,207.75177079997957,207.75177079997957,207.75177079997957,207.75177079997957,207.75177079997957,207.75177079997957,207.75177079997957,208.10160529986024,208.10160529986024,208.10160529986024,208.10160529986024,208.10160529986024,208.10160529986024,208.10160529986024,208.10160529986024,208.10160529986024,22,0,,,208.10160529986024,208.30360789992847,1000,208.31858720001765,1000,1000,1000,1000,1,num_2,1.0763021998573095,,30,14,2026-03-12_11h22.59.560,2026A_exp2,2022.2.4,60.060817613506565,
0,0,0.0,0.0,0,0,64,64,20,,,,,209.41968049993739,210.07031189999543,210.07031189999543,210.5713460999541,315,45,210.5713460999541,210.5713460999541,210.5713460999541,210.5713460999541,210.5713460999541,210.5713460999541,210.5713460999541,210.5713460999541,210.5713460999541,210.9211657999549,210.9211657999549,210.9211657999549,210.9211657999549,210.9211657999549,210.9211657999549,210.9211657999549,210.9211657999549,210.9211657999549,22,0,,,210.9211657999549,211.1213135998696,0.0,211.13811239995994,0,0.0,0,1,1000,num_1,0.3449679999612272,,30,14,2026-03-12_11h22.59.560,2026A_exp2,2022.2.4,60.060817613506565,
1,0,3.7,4.9,0,0,65,65,70,,,,,211.50507989991456,212.1559935999103,212.1559935999103,212.64040010003373,45,45,212.64040010003373,212.64040010003373,212.64040010003373,212.64040010003373,212.64040010003373,212.64040010003373,212.64040010003373,212.64040010003373,212.64040010003373,213.00654869992286,213.00654869992286,213.00654869992286,213.00654869992286,213.00654869992286,213.00654869992286,213.00654869992286,213.00654869992286,213.00654869992286,23,0,,,213.00654869992286,213.20687999995425,3.7,213.20687999995425,1,3.7,1,1,1000,num_4,0.5311964999418706,,30,14,2026-03-12_11h22.59.560,2026A_exp2,2022.2.4,60.060817613506565,
1,0,6.1,0.0,1,0,66,66,53,,,,,213.75718029984273,214.40801259991713,214.40801259991713,214.89245809987187,45,45,214.89245809987187,214.89245809987187,214.89245809987187,214.89245809987187,214.89245809987187,214.89245809987187,214.89245809987187,214.89245809987187,214.89245809987187,215.25886149983853,215.25886149983853,215.25886149983853,215.25886149983853,215.25886149983853,215.25886149983853,215.25886149983853,215.25886149983853,215.25886149983853,23,0,,,215.25886149983853,215.472252599895,0.0,215.472252599895,0,0.0,0,1,1000,num_1,0.6334601999260485,,30,14,2026-03-12_11h22.59.560,2026A_exp2,2022.2.4,60.060817613506565,
1,0,6.1,3.7,1,0,67,67,45,,,,,216.12626599986106,216.77705979999155,216.77705979999155,217.2613317000214,315,315,217.2613317000214,217.2613317000214,217.2613317000214,217.2613317000214,217.2613317000214,217.2613317000214,217.2613317000214,217.2613317000214,217.2613317000214,217.62786059989594,217.62786059989594,217.62786059989594,217.62786059989594,217.62786059989594,217.62786059989594,217.62786059989594,217.62786059989594,217.62786059989594,23,0,,,217.62786059989594,217.82806039997377,3.7,217.82806039997377,0,3.7,1,0,1000,num_1,0.6376459000166506,,30,14,2026-03-12_11h22.59.560,2026A_exp2,2022.2.4,60.060817613506565,
1000,1,4.9,4.9,0,0,68,68,36,,,,,218.49525119992904,219.1459544999525,219.1459544999525,219.6305643999949,315,45,219.6305643999949,219.6305643999949,219.6305643999949,219.6305643999949,219.6305643999949,219.6305643999949,219.6305643999949,219.6305643999949,219.6305643999949,219.99691500002518,219.99691500002518,219.99691500002518,219.99691500002518,219.99691500002518,219.99691500002518,219.99691500002518,219.99691500002518,219.99691500002518,23,0,,,219.99691500002518,220.19918049988337,1000,220.19918049988337,1000,1000,1000,1000,1,num_2,1.0343963999766856,,30,14,2026-03-12_11h22.59.560,2026A_exp2,2022.2.4,60.060817613506565,
1,0,3.7,3.7,0,0,69,69,69,,,,,221.26480709994212,221.91555489995517,221.91555489995517,222.39987559989095,45,315,222.39987559989095,222.39987559989095,222.39987559989095,222.39987559989095,222.39987559989095,222.39987559989095,222.39987559989095,222.39987559989095,222.39987559989095,222.7663457999006,222.7663457999006,222.7663457999006,222.7663457999006,222.7663457999006,222.7663457999006,222.7663457999006,222.7663457999006,222.7663457999006,23,0,,,222.7663457999006,222.96652149991132,3.7,222.96652149991132,1,3.7,1,1,1000,num_4,1.1557134999893606,,30,14,2026-03-12_11h22.59.560,2026A_exp2,2022.2.4,60.060817613506565,
0,0,4.9,4.9,0,0,70,70,88,,,,,224.15090280002914,224.80175939993933,224.80175939993933,225.28620209987275,315,315,225.28620209987275,225.28620209987275,225.28620209987275,225.28620209987275,225.28620209987275,225.28620209987275,225.28620209987275,225.28620209987275,225.28620209987275,225.65254349983297,225.65254349983297,225.65254349983297,225.65254349983297,225.65254349983297,225.65254349983297,225.65254349983297,225.65254349983297,225.65254349983297,23,0,,,225.65254349983297,225.85274749994278,4.9,225.85274749994278,1,4.9,1,1,1000,num_4,1.1338427001610398,,30,14,2026-03-12_11h22.59.560,2026A_exp2,2022.2.4,60.060817613506565,
1,0,0.0,0.0,1,0,71,71,60,,,,,227.00381319993176,227.65453529986553,227.65453529986553,228.13901970000006,315,45,228.13901970000006,228.13901970000006,228.13901970000006,228.13901970000006,228.13901970000006,228.13901970000006,228.13901970000006,228.13901970000006,228.13901970000006,228.50553740002215,228.50553740002215,228.50553740002215,228.50553740002215,228.50553740002215,228.50553740002215,228.50553740002215,228.50553740002215,228.50553740002215,23,0,,,228.50553740002215,228.70565689983778,0.0,228.70565689983778,0,0.0,0,1,1000,num_1,0.3367461001034826,,30,14,2026-03-12_11h22.59.560,2026A_exp2,2022.2.4,60.060817613506565,
1,0,0.0,4.9,1,0,72,72,2,,,,,229.072530800011,229.72335909982212,229.72335909982212,230.2077090998646,45,315,230.2077090998646,230.2077090998646,230.2077090998646,230.2077090998646,230.2077090998646,230.2077090998646,230.2077090998646,230.2077090998646,230.2077090998646,230.57421349990182,230.57421349990182,230.57421349990182,230.57421349990182,230.57421349990182,230.57421349990182,230.57421349990182,230.57421349990182,230.57421349990182,21,1,[0.0012474998366087675],[0.033503899816423655],230.57421349990182,230.7743972998578,4.9,230.7743972998578,0,4.9,1,0,1000,num_1,0.33139030006714165,,30,14,2026-03-12_11h22.59.560,2026A_exp2,2022.2.4,60.060817613506565,
1,0,0.0,6.1,1,0,73,73,39,,,,,231.12458499986678,231.77548479987308,231.77548479987308,232.25986539991572,315,45,232.25986539991572,232.25986539991572,232.25986539991572,232.25986539991572,232.25986539991572,232.25986539991572,232.25986539991572,232.25986539991572,232.25986539991572,232.6262764998246,232.6262764998246,232.6262764998246,232.6262764998246,232.6262764998246,232.6262764998246,232.6262764998246,232.6262764998246,232.6262764998246,23,0,,,232.6262764998246,232.82640799996443,6.1,232.82640799996443,1,6.1,1,1,1000,num_4,0.36768409982323647,,30,14,2026-03-12_11h22.59.560,2026A_exp2,2022.2.4,60.060817613506565,
1000,1,0.0,4.9,0,0,74,74,50,,,,,233.20998869999312,233.86083409981802,233.86083409981802,234.34515940002166,45,315,234.34515940002166,234.34515940002166,234.34515940002166,234.34515940002166,234.34515940002166,234.34515940002166,234.34515940002166,234.34515940002166,234.34515940002166,234.7115464999806,234.7115464999806,234.7115464999806,234.7115464999806,234.7115464999806,234.7115464999806,234.7115464999806,234.7115464999806,234.7115464999806,0,1,[0.0012347998563200235],[0.36715509998612106],234.7115464999806,234.9137581998948,1000,234.9137581998948,1000,1000,1000,1000,1,num_2,0.7440710000228137,,30,14,2026-03-12_11h22.59.560,2026A_exp2,2022.2.4,60.060817613506565,
1,0,0.0,6.1,1,0,75,75,17,,,,,235.67911239992827,236.32984939985909,236.32984939985909,236.83095679990947,45,315,236.83095679990947,236.83095679990947,236.83095679990947,236.83095679990947,236.83095679990947,236.83095679990947,236.83095679990947,236.83095679990947,236.83095679990947,237.19750629994087,237.19750629994087,237.19750629994087,237.19750629994087,237.19750629994087,237.19750629994087,237.19750629994087,237.19750629994087,237.19750629994087,23,0,,,237.19750629994087,237.39773019985296,6.1,237.39773019985296,1,6.1,1,1,1000,num_4,0.7890735999681056,,30,14,2026-03-12_11h22.59.560,2026A_exp2,2022.2.4,60.060817613506565,
1,0,6.1,0.0,1,0,76,76,29,,,,,238.2149668999482,238.86572909983806,238.86572909983806,239.35016649984755,45,45,239.35016649984755,239.35016649984755,239.35016649984755,239.35016649984755,239.35016649984755,239.35016649984755,239.35016649984755,239.35016649984755,239.35016649984755,239.71659699990414,239.71659699990414,239.71659699990414,239.71659699990414,239.71659699990414,239.71659699990414,239.71659699990414,239.71659699990414,239.71659699990414,21,1,[0.05015340005047619],[0.0834272000938654],239.71659699990414,239.91687309998088,0.0,239.91687309998088,0,0.0,0,1,1000,num_1,0.8695888000074774,,30,14,2026-03-12_11h22.59.560,2026A_exp2,2022.2.4,60.060817613506565,
1000,1,4.9,3.7,1,0,77,77,46,,,,,240.817512499867,241.46832109987736,241.46832109987736,241.96985719981603,315,45,241.96985719981603,241.96985719981603,241.96985719981603,241.96985719981603,241.96985719981603,241.96985719981603,241.96985719981603,241.96985719981603,241.96985719981603,242.31898629991338,242.31898629991338,242.31898629991338,242.31898629991338,242.31898629991338,242.31898629991338,242.31898629991338,242.31898629991338,242.31898629991338,0,1,[0.0009385999292135239],[0.3503300999291241],242.31898629991338,242.51976009993814,1000,242.51976009993814,1000,1000,1000,1000,1,num_2,0.5866427000146359,,30,14,2026-03-12_11h22.59.560,2026A_exp2,2022.2.4,60.060817613506565,
1000,1,6.1,0.0,1,0,78,78,61,,,,,243.13669479987584,243.78738510003313,243.78738510003313,244.2883819998242,315,45,244.2883819998242,244.2883819998242,244.2883819998242,244.2883819998242,244.2883819998242,244.2883819998242,244.2883819998242,244.2883819998242,244.2883819998242,244.6548851998523,244.6548851998523,244.6548851998523,244.6548851998523,244.6548851998523,244.6548851998523,244.6548851998523,244.6548851998523,244.6548851998523,12,2,"[0.001235799863934517, 0.16710929991677403]","[0.11700570001266897, 0.23375190002843738]",244.6548851998523,244.85708509990945,1000,244.85708509990945,1000,1000,1000,1000,0,num_3,0.7057715998962522,,30,14,2026-03-12_11h22.59.560,2026A_exp2,2022.2.4,60.060817613506565,
1,0,4.9,0.0,0,0,79,79,47,,,,,245.58910979982466,246.23983909981325,246.23983909981325,246.74090850003995,315,45,246.74090850003995,246.74090850003995,246.74090850003995,246.74090850003995,246.74090850003995,246.74090850003995,246.74090850003995,246.74090850003995,246.74090850003995,247.10741129983217,247.10741129983217,247.10741129983217,247.10741129983217,247.10741129983217,247.10741129983217,247.10741129983217,247.10741129983217,247.10741129983217,23,0,,,247.10741129983217,247.3075208000373,4.9,247.3075208000373,1,4.9,1,1,1000,num_4,0.51910540019162,,30,14,2026-03-12_11h22.59.560,2026A_exp2,2022.2.4,60.060817613506565,
1,0,0.0,0.0,0,0,80,80,64,,,,,247.85794829996303,248.50868199998513,248.50868199998513,248.99319169996306,315,45,248.99319169996306,248.99319169996306,248.99319169996306,248.99319169996306,248.99319169996306,248.99319169996306,248.99319169996306,248.99319169996306,248.99319169996306,249.35950579983182,249.35950579983182,249.35950579983182,249.35950579983182,249.35950579983182,249.35950579983182,249.35950579983182,249.35950579983182,249.35950579983182,21,2,"[0.18357019987888634, 0.3666598000563681]","[0.2003633000422269, 0.36666259984485805]",249.35950579983182,249.5597015998792,0.0,249.5597015998792,0,0.0,0,1,1000,num_1,0.46654920000582933,,30,14,2026-03-12_11h22.59.560,2026A_exp2,2022.2.4,60.060817613506565,
1000,1,6.1,3.7,0,0,81,81,43,,,,,250.04359170002863,250.69433559989557,250.69433559989557,251.17876599985175,45,45,251.17876599985175,251.17876599985175,251.17876599985175,251.17876599985175,251.17876599985175,251.17876599985175,251.17876599985175,251.17876599985175,251.17876599985175,251.5451856998261,251.5451856998261,251.5451856998261,251.5451856998261,251.5451856998261,251.5451856998261,251.5451856998261,251.5451856998261,251.5451856998261,23,0,,,251.5451856998261,251.74763150000945,1000,251.74763150000945,1000,1000,1000,1000,0,num_3,0.678786699892953,,30,14,2026-03-12_11h22.59.560,2026A_exp2,2022.2.4,60.060817613506565,
1,0,0.0,0.0,1,0,82,82,68,,,,,252.4459331999533,253.09665489988402,253.09665489988402,253.5978561998345,315,45,253.5978561998345,253.5978561998345,253.5978561998345,253.5978561998345,253.5978561998345,253.5978561998345,253.5978561998345,253.5978561998345,253.5978561998345,253.96387909981422,253.96387909981422,253.96387909981422,253.96387909981422,253.96387909981422,253.96387909981422,253.96387909981422,253.96387909981422,253.96387909981422,23,0,,,253.96387909981422,254.16417719982564,0.0,254.16417719982564,0,0.0,0,1,1000,num_1,0.3739929001312703,,30,14,2026-03-12_11h22.59.560,2026A_exp2,2022.2.4,60.060817613506565,
1,0,4.9,4.9,1,0,83,83,32,,,,,254.5647009999957,255.21542149991728,255.21542149991728,255.69998989999294,315,315,255.69998989999294,255.69998989999294,255.69998989999294,255.69998989999294,255.69998989999294,255.69998989999294,255.69998989999294,255.69998989999294,255.69998989999294,256.06616599997506,256.06616599997506,256.06616599997506,256.06616599997506,256.06616599997506,256.06616599997506,256.06616599997506,256.06616599997506,256.06616599997506,23,0,,,256.06616599997506,256.2666156999767,4.9,256.2666156999767,0,4.9,1,0,1000,num_1,1.127705299993977,,30,14,2026-03-12_11h22.59.560,2026A_exp2,2022.2.4,60.060817613506565,
0,0,0.0,6.1,0,0,84,84,12,,,,,257.4175038000103,258.06827799999155,258.06827799999155,258.55273170000874,45,45,258.55273170000874,258.55273170000874,258.55273170000874,258.55273170000874,258.55273170000874,258.55273170000874,258.55273170000874,258.55273170000874,258.55273170000874,258.9191905998159,258.9191905998159,258.9191905998159,258.9191905998159,258.9191905998159,258.9191905998159,258.9191905998159,258.9191905998159,258.9191905998159,7,1,[0.11667250003665686],[0.3666838000062853],258.9191905998159,259.11943099997006,6.1,259.11943099997006,1,6.1,1,1,1000,num_4,0.37095260014757514,,30,14,2026-03-12_11h22.59.560,2026A_exp2,2022.2.4,60.060817613506565,
1,0,0.0,4.9,0,0,85,85,9,,,,,259.5197312999517,260.170553999953,260.170553999953,260.6547824998852,315,45,260.6547824998852,260.6547824998852,260.6547824998852,260.6547824998852,260.6547824998852,260.6547824998852,260.6547824998852,260.6547824998852,260.6547824998852,261.02132509998046,261.02132509998046,261.02132509998046,261.02132509998046,261.02132509998046,261.02132509998046,261.02132509998046,261.02132509998046,261.02132509998046,5,1,[0.08289000019431114],[0.36720890016295016],261.02132509998046,261.2215793998912,0.0,261.2215793998912,0,0.0,0,1,1000,num_1,0.5162473998498172,,30,14,2026-03-12_11h22.59.560,2026A_exp2,2022.2.4,60.060817613506565,
1000,1,0.0,0.0,1,0,86,86,80,,,,,261.75522449985147,262.4062287998386,262.4062287998386,262.9070128998719,315,315,262.9070128998719,262.9070128998719,262.9070128998719,262.9070128998719,262.9070128998719,262.9070128998719,262.9070128998719,262.9070128998719,262.9070128998719,263.256684999913,263.256684999913,263.256684999913,263.256684999913,263.256684999913,263.256684999913,263.256684999913,263.256684999913,263.256684999913,1,2,"[0.001242700032889843, 0.10020309989340603]","[0.0835359999909997, 0.3502968999091536]",263.256684999913,263.4594947998412,1000,263.4594947998412,1000,1000,1000,1000,1,num_2,0.5354241000022739,,30,14,2026-03-12_11h22.59.560,2026A_exp2,2022.2.4,60.060817613506565,
1000,1,0.0,0.0,1,0,87,87,8,,,,,264.0244022998959,264.6747138998471,264.6747138998471,265.1759856999852,45,45,265.1759856999852,265.1759856999852,265.1759856999852,265.1759856999852,265.1759856999852,265.1759856999852,265.1759856999852,265.1759856999852,265.1759856999852,265.5424768999219,265.5424768999219,265.5424768999219,265.5424768999219,265.5424768999219,265.5424768999219,265.5424768999219,265.5424768999219,265.5424768999219,0,1,[0.001295299967750907],[0.36711889994330704],265.5424768999219,265.7434184998274,1000,265.7434184998274,1000,1000,1000,1000,1,num_2,0.5710216001607478,,30,14,2026-03-12_11h22.59.560,2026A_exp2,2022.2.4,60.060817613506565,
0,0,0.0,0.0,0,0,88,88,10,,,,,266.3433732998092,266.993924099952,266.993924099952,267.49508999986574,315,315,267.49508999986574,267.49508999986574,267.49508999986574,267.49508999986574,267.49508999986574,267.49508999986574,267.49508999986574,267.49508999986574,267.49508999986574,267.8448204000015,267.8448204000015,267.8448204000015,267.8448204000015,267.8448204000015,267.8448204000015,267.8448204000015,267.8448204000015,267.8448204000015,11,4,"[0.01739020016975701, 0.2670156001113355, 0.3005087000783533, 0.3338025000412017]","[0.15034890011884272, 0.2836275000590831, 0.3170913001522422, 0.3505536001175642]",267.8448204000015,268.0449957998935,0.0,268.0449957998935,0,0.0,0,1,1000,num_1,0.3646071997936815,,30,14,2026-03-12_11h22.59.560,2026A_exp2,2022.2.4,60.060817613506565,
1,0,0.0,0.0,0,0,89,89,87,,,,,268.42867079982534,269.07937839999795,269.07937839999795,269.5636887999717,315,45,269.5636887999717,269.5636887999717,269.5636887999717,269.5636887999717,269.5636887999717,269.5636887999717,269.5636887999717,269.5636887999717,269.5636887999717,269.9302043998614,269.9302043998614,269.9302043998614,269.9302043998614,269.9302043998614,269.9302043998614,269.9302043998614,269.9302043998614,269.9302043998614,23,0,,,269.9302043998614,270.13042249996215,0.0,270.13042249996215,0,0.0,0,1,1000,num_1,0.4002454001456499,,30,14,2026-03-12_11h22.59.560,2026A_exp2,2022.2.4,60.060817613506565,
,,,,,,,,,,,,,,,,,,,,,,,,,,,,,,,,,,,,,,,,,,,,,,,,,,,,270.5561126000248,,,,,,,
