validity,detectorcomp,contrastCW,contrastCCW,precueCWorCCW,block_80trials.thisRepN,block_80trials.thisTrialN,block_80trials.thisN,block_80trials.thisIndex,etRecord.started,etRecord.stopped,text.started,text.stopped,text_4.started,text_4.stopped,text_6.started,text_6.stopped,oriCW,oriCCW,roi_2.started,grating_UR.started,grating_UL.started,grating_LR.started,grating_LL.started,noise_UR.started,noise_UL.started,noise_LR.started,noise_LL.started,roi_2.stopped,grating_UR.stopped,grating_UL.stopped,grating_LR.stopped,grating_LL.stopped,noise_UR.stopped,noise_UL.stopped,noise_LR.stopped,noise_LL.stopped,outframe,roi_2.numLooks,roi_2.timesOn,roi_2.timesOff,text_2.started,text_2.stopped,probedcontrast,key_resp.started,respdetect,relevantContrast,correctDetect,TorFdetect,respCWorCCW,key_resp.keys,key_resp.rt,feedback_display_.started,participantNo,blockNo,date,expName,psychopyVersion,frameRate,
1000,1,0.0,0.0,0,0,0,0,5,3.5899924114346504e-05,3.5899924114346504e-05,52.82939479989,54.839787299977615,54.839787299977615,55.465969199780375,55.465969199780375,55.99362249998376,45,45,55.99362249998376,55.99362249998376,55.99362249998376,55.99362249998376,55.99362249998376,55.99362249998376,55.99362249998376,55.99362249998376,55.99362249998376,56.33333229995333,56.33333229995333,56.33333229995333,56.33333229995333,56.33333229995333,56.33333229995333,56.33333229995333,56.33333229995333,56.33333229995333,23,0,,,56.33333229995333,56.53971709986217,1000,56.53971709986217,1000,1000,1000,1000,0,num_3,0.48260050010867417,,32,8,2026-03-12_15h49.23.431,2026A_exp2,2022.2.4,59.80821899465125,
1,0,0.0,4.9,1,0,1,1,65,,,,,57.05071329977363,57.70158709981479,57.70158709981479,58.185861699981615,315,315,58.185861699981615,58.185861699981615,58.185861699981615,58.185861699981615,58.185861699981615,58.185861699981615,58.185861699981615,58.185861699981615,58.185861699981615,58.5523368997965,58.5523368997965,58.5523368997965,58.5523368997965,58.5523368997965,58.5523368997965,58.5523368997965,58.5523368997965,58.5523368997965,23,0,,,58.5523368997965,58.752438799943775,4.9,58.752438799943775,1,4.9,1,1,1000,num_4,0.742968300357461,,32,8,2026-03-12_15h49.23.431,2026A_exp2,2022.2.4,59.80821899465125,
1000,1,0.0,6.1,0,0,2,2,83,,,,,59.52002249984071,60.170683699892834,60.170683699892834,60.65494249993935,45,315,60.65494249993935,60.65494249993935,60.65494249993935,60.65494249993935,60.65494249993935,60.65494249993935,60.65494249993935,60.65494249993935,60.65494249993935,61.02152829989791,61.02152829989791,61.02152829989791,61.02152829989791,61.02152829989791,61.02152829989791,61.02152829989791,61.02152829989791,61.02152829989791,0,1,[0.0012650999706238508],[0.36703429999761283],61.02152829989791,61.223716699983925,1000,61.223716699983925,1000,1000,1000,1000,1,num_2,0.6948203002102673,,32,8,2026-03-12_15h49.23.431,2026A_exp2,2022.2.4,59.80821899465125,
0,0,0.0,0.0,0,0,3,3,69,,,,,61.93922509998083,62.58971449988894,62.58971449988894,63.09070369997062,45,315,63.09070369997062,63.09070369997062,63.09070369997062,63.09070369997062,63.09070369997062,63.09070369997062,63.09070369997062,63.09070369997062,63.09070369997062,63.45740269985981,63.45740269985981,63.45740269985981,63.45740269985981,63.45740269985981,63.45740269985981,63.45740269985981,63.45740269985981,63.45740269985981,0,1,[0.0013062998186796904],[0.36714149988256395],63.45740269985981,63.657415699912235,0.0,63.657415699912235,1,0.0,0,0,1000,num_4,1.094050600193441,,32,8,2026-03-12_15h49.23.431,2026A_exp2,2022.2.4,59.80821899465125,
0,0,3.7,6.1,1,0,4,4,17,,,,,64.77529349992983,65.42573689995334,65.42573689995334,65.92709249979816,315,315,65.92709249979816,65.92709249979816,65.92709249979816,65.92709249979816,65.92709249979816,65.92709249979816,65.92709249979816,65.92709249979816,65.92709249979816,66.29347029980272,66.29347029980272,66.29347029980272,66.29347029980272,66.29347029980272,66.29347029980272,66.29347029980272,66.29347029980272,66.29347029980272,5,3,"[0.017397499876096845, 0.20020259986631572, 0.33374079992063344]","[0.16692139999940991, 0.31710670003667474, 0.36709409998729825]",66.29347029980272,66.49346989998594,3.7,66.49346989998594,0,3.7,1,0,1000,num_1,0.6496077002957463,,32,8,2026-03-12_15h49.23.431,2026A_exp2,2022.2.4,59.80821899465125,
1000,1,4.9,3.7,1,0,5,5,14,,,,,67.16078589996323,67.81148739997298,67.81148739997298,68.29604579997249,45,315,68.29604579997249,68.29604579997249,68.29604579997249,68.29604579997249,68.29604579997249,68.29604579997249,68.29604579997249,68.29604579997249,68.29604579997249,68.66250469977967,68.66250469977967,68.66250469977967,68.66250469977967,68.66250469977967,68.66250469977967,68.66250469977967,68.66250469977967,68.66250469977967,23,0,,,68.66250469977967,68.8646363997832,1000,68.8646363997832,1000,1000,1000,1000,1,num_2,0.6778640002012253,,32,8,2026-03-12_15h49.23.431,2026A_exp2,2022.2.4,59.80821899465125,
1,0,4.9,0.0,0,0,6,6,87,,,,,69.56327229994349,70.21401729993522,70.21401729993522,70.7152682999149,315,315,70.7152682999149,70.7152682999149,70.7152682999149,70.7152682999149,70.7152682999149,70.7152682999149,70.7152682999149,70.7152682999149,70.7152682999149,71.08146989997476,71.08146989997476,71.08146989997476,71.08146989997476,71.08146989997476,71.08146989997476,71.08146989997476,71.08146989997476,71.08146989997476,23,0,,,71.08146989997476,71.2816863998305,4.9,71.2816863998305,0,4.9,1,0,1000,num_1,0.5812042001634836,,32,8,2026-03-12_15h49.23.431,2026A_exp2,2022.2.4,59.80821899465125,
1000,1,4.9,4.9,1,0,7,7,60,,,,,71.88218359998427,72.53294689999893,72.53294689999893,73.01731949998066,315,315,73.01731949998066,73.01731949998066,73.01731949998066,73.01731949998066,73.01731949998066,73.01731949998066,73.01731949998066,73.01731949998066,73.01731949998066,73.38370069977827,73.38370069977827,73.38370069977827,73.38370069977827,73.38370069977827,73.38370069977827,73.38370069977827,73.38370069977827,73.38370069977827,23,0,,,73.38370069977827,73.5851578998845,1000,73.5851578998845,1000,1000,1000,1000,1,num_2,0.47794620017521083,,32,8,2026-03-12_15h49.23.431,2026A_exp2,2022.2.4,59.80821899465125,
1,0,0.0,4.9,1,0,8,8,36,,,,,74.08448979980312,74.73529729992151,74.73529729992151,75.2362108998932,45,315,75.2362108998932,75.2362108998932,75.2362108998932,75.2362108998932,75.2362108998932,75.2362108998932,75.2362108998932,75.2362108998932,75.2362108998932,75.602548699826,75.602548699826,75.602548699826,75.602548699826,75.602548699826,75.602548699826,75.602548699826,75.602548699826,75.602548699826,23,0,,,75.602548699826,75.8028895999305,4.9,75.8028895999305,1,4.9,1,1,1000,num_4,0.4679071002174169,,32,8,2026-03-12_15h49.23.431,2026A_exp2,2022.2.4,59.80821899465125,
1000,1,0.0,0.0,0,0,9,9,41,,,,,76.28656429983675,76.93738059978932,76.93738059978932,77.43539529992267,315,315,77.43539529992267,77.43539529992267,77.43539529992267,77.43539529992267,77.43539529992267,77.43539529992267,77.43539529992267,77.43539529992267,77.43539529992267,77.78831349988468,77.78831349988468,77.78831349988468,77.78831349988468,77.78831349988468,77.78831349988468,77.78831349988468,77.78831349988468,77.78831349988468,23,0,,,77.78831349988468,77.9901719999034,1000,77.9901719999034,1000,1000,1000,1000,0,num_3,0.6324640002567321,,32,8,2026-03-12_15h49.23.431,2026A_exp2,2022.2.4,59.80821899465125,
1000,1,0.0,3.7,1,0,10,10,43,,,,,78.63908229977824,79.27306549996138,79.27306549996138,79.7739561998751,315,315,79.7739561998751,79.7739561998751,79.7739561998751,79.7739561998751,79.7739561998751,79.7739561998751,79.7739561998751,79.7739561998751,79.7739561998751,80.14052699995227,80.14052699995227,80.14052699995227,80.14052699995227,80.14052699995227,80.14052699995227,80.14052699995227,80.14052699995227,80.14052699995227,22,1,[0.03351610014215112],[0.05036190012469888],80.14052699995227,80.34081709990278,1000,80.34081709990278,1000,1000,1000,1000,1,num_2,0.9218526002950966,,32,8,2026-03-12_15h49.23.431,2026A_exp2,2022.2.4,59.80821899465125,
1,0,6.1,0.0,1,0,11,11,54,,,,,81.2781726999674,81.92573999986053,81.92573999986053,82.42673059995286,45,45,82.42673059995286,82.42673059995286,82.42673059995286,82.42673059995286,82.42673059995286,82.42673059995286,82.42673059995286,82.42673059995286,82.42673059995286,82.79331399989314,82.79331399989314,82.79331399989314,82.79331399989314,82.79331399989314,82.79331399989314,82.79331399989314,82.79331399989314,82.79331399989314,20,2,"[0.01714039989747107, 0.28353109979070723]","[0.05015949998050928, 0.30053269979543984]",82.79331399989314,82.99342069984414,0.0,82.99342069984414,0,0.0,0,1,1000,num_1,0.7338159002829343,,32,8,2026-03-12_15h49.23.431,2026A_exp2,2022.2.4,59.80821899465125,
1000,1,4.9,0.0,1,0,12,12,28,,,,,83.74407699983567,84.37821029988118,84.37821029988118,84.87976619997062,45,45,84.87976619997062,84.87976619997062,84.87976619997062,84.87976619997062,84.87976619997062,84.87976619997062,84.87976619997062,84.87976619997062,84.87976619997062,85.24575259978883,85.24575259978883,85.24575259978883,85.24575259978883,85.24575259978883,85.24575259978883,85.24575259978883,85.24575259978883,85.24575259978883,23,0,,,85.24575259978883,85.44760299986228,1000,85.44760299986228,1000,1000,1000,1000,0,num_3,0.479264700319618,,32,8,2026-03-12_15h49.23.431,2026A_exp2,2022.2.4,59.80821899465125,
1,0,3.7,4.9,0,0,13,13,84,,,,,85.94617469981313,86.59679899993353,86.59679899993353,87.08108929987065,45,45,87.08108929987065,87.08108929987065,87.08108929987065,87.08108929987065,87.08108929987065,87.08108929987065,87.08108929987065,87.08108929987065,87.08108929987065,87.44746039994061,87.44746039994061,87.44746039994061,87.44746039994061,87.44746039994061,87.44746039994061,87.44746039994061,87.44746039994061,87.44746039994061,23,0,,,87.44746039994061,87.64790099998936,3.7,87.64790099998936,1,3.7,1,1,1000,num_4,0.9269572000484914,,32,8,2026-03-12_15h49.23.431,2026A_exp2,2022.2.4,59.80821899465125,
1000,1,3.7,3.7,1,0,14,14,88,,,,,88.59865689999424,89.23296029982157,89.23296029982157,89.73437759978697,45,45,89.73437759978697,89.73437759978697,89.73437759978697,89.73437759978697,89.73437759978697,89.73437759978697,89.73437759978697,89.73437759978697,89.73437759978697,90.10030309995636,90.10030309995636,90.10030309995636,90.10030309995636,90.10030309995636,90.10030309995636,90.10030309995636,90.10030309995636,90.10030309995636,23,0,,,90.10030309995636,90.30149240000173,1000,90.30149240000173,1000,1000,1000,1000,1,num_2,0.6013998002745211,,32,8,2026-03-12_15h49.23.431,2026A_exp2,2022.2.4,59.80821899465125,
1,0,6.1,0.0,1,0,15,15,38,,,,,90.9351871998515,91.58558229985647,91.58558229985647,92.06974059995264,45,45,92.06974059995264,92.06974059995264,92.06974059995264,92.06974059995264,92.06974059995264,92.06974059995264,92.06974059995264,92.06974059995264,92.06974059995264,92.43622349994257,92.43622349994257,92.43622349994257,92.43622349994257,92.43622349994257,92.43622349994257,92.43622349994257,92.43622349994257,92.43622349994257,23,0,,,92.43622349994257,92.63643249985762,0.0,92.63643249985762,0,0.0,0,1,1000,num_1,0.5463184001855552,,32,8,2026-03-12_15h49.23.431,2026A_exp2,2022.2.4,59.80821899465125,
1,0,0.0,3.7,0,0,16,16,2,,,,,93.20344109996222,93.85437419987284,93.85437419987284,94.33889039978385,45,45,94.33889039978385,94.33889039978385,94.33889039978385,94.33889039978385,94.33889039978385,94.33889039978385,94.33889039978385,94.33889039978385,94.33889039978385,94.70509439986199,94.70509439986199,94.70509439986199,94.70509439986199,94.70509439986199,94.70509439986199,94.70509439986199,94.70509439986199,94.70509439986199,23,0,,,94.70509439986199,94.90522139985114,0.0,94.90522139985114,0,0.0,0,1,1000,num_1,0.6457021001260728,,32,8,2026-03-12_15h49.23.431,2026A_exp2,2022.2.4,59.80821899465125,
1,0,3.7,6.1,0,0,17,17,55,,,,,95.57283489988185,96.20670409989543,96.20670409989543,96.7076885998249,45,315,96.7076885998249,96.7076885998249,96.7076885998249,96.7076885998249,96.7076885998249,96.7076885998249,96.7076885998249,96.7076885998249,96.7076885998249,97.07406169991009,97.07406169991009,97.07406169991009,97.07406169991009,97.07406169991009,97.07406169991009,97.07406169991009,97.07406169991009,97.07406169991009,23,0,,,97.07406169991009,97.2743794999551,3.7,97.2743794999551,0,3.7,1,0,1000,num_1,0.5800589001737535,,32,8,2026-03-12_15h49.23.431,2026A_exp2,2022.2.4,59.80821899465125,
1000,1,4.9,4.9,1,0,18,18,85,,,,,97.87494979985058,98.52568739978597,98.52568739978597,99.01018379977904,45,45,99.01018379977904,99.01018379977904,99.01018379977904,99.01018379977904,99.01018379977904,99.01018379977904,99.01018379977904,99.01018379977904,99.01018379977904,99.37650509993546,99.37650509993546,99.37650509993546,99.37650509993546,99.37650509993546,99.37650509993546,99.37650509993546,99.37650509993546,99.37650509993546,23,0,,,99.37650509993546,99.57843379979022,1000,99.57843379979022,1000,1000,1000,1000,1,num_2,0.6042499002069235,,32,8,2026-03-12_15h49.23.431,2026A_exp2,2022.2.4,59.80821899465125,
1,0,6.1,4.9,0,0,19,19,30,,,,,100.21045659994707,100.84468949981965,100.84468949981965,101.34577029990032,45,315,101.34577029990032,101.34577029990032,101.34577029990032,101.34577029990032,101.34577029990032,101.34577029990032,101.34577029990032,101.34577029990032,101.34577029990032,101.71207849984057,101.71207849984057,101.71207849984057,101.71207849984057,101.71207849984057,101.71207849984057,101.71207849984057,101.71207849984057,101.71207849984057,23,0,,,101.71207849984057,101.9123501998838,6.1,101.9123501998838,1,6.1,1,1,1000,num_4,0.6460077003575861,,32,8,2026-03-12_15h49.23.431,2026A_exp2,2022.2.4,59.80821899465125,
1,0,6.1,6.1,0,0,20,20,51,,,,,102.57954329997301,103.23033709987067,103.23033709987067,103.7148418999277,45,45,103.7148418999277,103.7148418999277,103.7148418999277,103.7148418999277,103.7148418999277,103.7148418999277,103.7148418999277,103.7148418999277,103.7148418999277,104.08118329988793,104.08118329988793,104.08118329988793,104.08118329988793,104.08118329988793,104.08118329988793,104.08118329988793,104.08118329988793,104.08118329988793,23,0,,,104.08118329988793,104.28143119998276,6.1,104.28143119998276,1,6.1,1,1,1000,num_4,0.5096507002599537,,32,8,2026-03-12_15h49.23.431,2026A_exp2,2022.2.4,59.80821899465125,
1000,1,6.1,4.9,1,0,21,21,76,,,,,104.8151681998279,105.46600159979425,105.46600159979425,105.95024759997614,315,315,105.95024759997614,105.95024759997614,105.95024759997614,105.95024759997614,105.95024759997614,105.95024759997614,105.95024759997614,105.95024759997614,105.95024759997614,106.31683819997124,106.31683819997124,106.31683819997124,106.31683819997124,106.31683819997124,106.31683819997124,106.31683819997124,106.31683819997124,106.31683819997124,23,0,,,106.31683819997124,106.51891079987399,1000,106.51891079987399,1000,1000,1000,1000,0,num_3,1.0153339002281427,,32,8,2026-03-12_15h49.23.431,2026A_exp2,2022.2.4,59.80821899465125,
1000,1,6.1,6.1,0,0,22,22,50,,,,,107.55123259988613,108.20202049985528,108.20202049985528,108.70293169980869,45,315,108.70293169980869,108.70293169980869,108.70293169980869,108.70293169980869,108.70293169980869,108.70293169980869,108.70293169980869,108.70293169980869,108.70293169980869,109.06958979996853,109.06958979996853,109.06958979996853,109.06958979996853,109.06958979996853,109.06958979996853,109.06958979996853,109.06958979996853,109.06958979996853,23,0,,,109.06958979996853,109.27157269977033,1000,109.27157269977033,1000,1000,1000,1000,0,num_3,0.6960639001335949,,32,8,2026-03-12_15h49.23.431,2026A_exp2,2022.2.4,59.80821899465125,
0,0,0.0,0.0,0,0,23,23,67,,,,,109.98699939996004,110.63780079991557,110.63780079991557,111.13893839996308,315,45,111.13893839996308,111.13893839996308,111.13893839996308,111.13893839996308,111.13893839996308,111.13893839996308,111.13893839996308,111.13893839996308,111.13893839996308,111.50523519981652,111.50523519981652,111.50523519981652,111.50523519981652,111.50523519981652,111.50523519981652,111.50523519981652,111.50523519981652,111.50523519981652,23,0,,,111.50523519981652,111.70547189982608,0.0,111.70547189982608,1,0.0,0,0,1000,num_4,0.6690216001588851,,32,8,2026-03-12_15h49.23.431,2026A_exp2,2022.2.4,59.80821899465125,
1,0,4.9,0.0,0,0,24,24,23,,,,,112.40620399988256,113.0568974998314,113.0568974998314,113.54150129994377,45,315,113.54150129994377,113.54150129994377,113.54150129994377,113.54150129994377,113.54150129994377,113.54150129994377,113.54150129994377,113.54150129994377,113.54150129994377,113.90796369989403,113.90796369989403,113.90796369989403,113.90796369989403,113.90796369989403,113.90796369989403,113.90796369989403,113.90796369989403,113.90796369989403,20,3,"[0.017540999921038747, 0.15012969984672964, 0.25017410004511476]","[0.033450699876993895, 0.1668171000201255, 0.2835710998624563]",113.90796369989403,114.10787949990481,4.9,114.10787949990481,1,4.9,1,1,1000,num_4,0.6912198001518846,,32,8,2026-03-12_15h49.23.431,2026A_exp2,2022.2.4,59.80821899465125,
1000,1,0.0,4.9,1,0,25,25,73,,,,,114.82546119997278,115.47602289984934,115.47602289984934,115.96033089980483,315,315,115.96033089980483,115.96033089980483,115.96033089980483,115.96033089980483,115.96033089980483,115.96033089980483,115.96033089980483,115.96033089980483,115.96033089980483,116.32673259987496,116.32673259987496,116.32673259987496,116.32673259987496,116.32673259987496,116.32673259987496,116.32673259987496,116.32673259987496,116.32673259987496,23,0,,,116.32673259987496,116.52889079996385,1000,116.52889079996385,1000,1000,1000,1000,1,num_2,0.535223200218752,,32,8,2026-03-12_15h49.23.431,2026A_exp2,2022.2.4,59.80821899465125,
1000,1,3.7,0.0,1,0,26,26,21,,,,,117.09416899993084,117.74489769991487,117.74489769991487,118.24601589981467,315,45,118.24601589981467,118.24601589981467,118.24601589981467,118.24601589981467,118.24601589981467,118.24601589981467,118.24601589981467,118.24601589981467,118.24601589981467,118.59571499982849,118.59571499982849,118.59571499982849,118.59571499982849,118.59571499982849,118.59571499982849,118.59571499982849,118.59571499982849,118.59571499982849,22,0,,,118.59571499982849,118.79765529977158,1000,118.79765529977158,1000,1000,1000,1000,1,num_2,1.0812945002689958,,32,8,2026-03-12_15h49.23.431,2026A_exp2,2022.2.4,59.80821899465125,
1,0,0.0,0.0,0,0,27,27,49,,,,,119.89701329986565,120.54770819982514,120.54770819982514,121.04885709984228,45,45,121.04885709984228,121.04885709984228,121.04885709984228,121.04885709984228,121.04885709984228,121.04885709984228,121.04885709984228,121.04885709984228,121.04885709984228,121.39853539993055,121.39853539993055,121.39853539993055,121.39853539993055,121.39853539993055,121.39853539993055,121.39853539993055,121.39853539993055,121.39853539993055,22,0,,,121.39853539993055,121.59863889985718,0.0,121.6154963998124,0,0.0,0,1,1000,num_1,1.2070210000965744,,32,8,2026-03-12_15h49.23.431,2026A_exp2,2022.2.4,59.80821899465125,
1000,1,0.0,0.0,1,0,28,28,42,,,,,122.84992179996334,123.50063379993662,123.50063379993662,124.00151119986549,315,45,124.00151119986549,124.00151119986549,124.00151119986549,124.00151119986549,124.00151119986549,124.00151119986549,124.00151119986549,124.00151119986549,124.00151119986549,124.35130249988288,124.35130249988288,124.35130249988288,124.35130249988288,124.35130249988288,124.35130249988288,124.35130249988288,124.35130249988288,124.35130249988288,22,0,,,124.35130249988288,124.55174199980684,1000,124.55174199980684,1000,1000,1000,1000,0,num_3,0.7835216003004462,,32,8,2026-03-12_15h49.23.431,2026A_exp2,2022.2.4,59.80821899465125,
1000,1,6.1,0.0,0,0,29,29,80,,,,,125.35390349989757,126.00316289998591,126.00316289998591,126.5038324999623,45,45,126.5038324999623,126.5038324999623,126.5038324999623,126.5038324999623,126.5038324999623,126.5038324999623,126.5038324999623,126.5038324999623,126.5038324999623,126.87070839991793,126.87070839991793,126.87070839991793,126.87070839991793,126.87070839991793,126.87070839991793,126.87070839991793,126.87070839991793,126.87070839991793,23,0,,,126.87070839991793,127.07286369986832,1000,127.07286369986832,1000,1000,1000,1000,0,num_3,0.5339383000973612,,32,8,2026-03-12_15h49.23.431,2026A_exp2,2022.2.4,59.80821899465125,
1000,1,6.1,3.7,1,0,30,30,45,,,,,127.6381548999343,128.28878829977475,128.28878829977475,128.79008609987795,315,315,128.79008609987795,128.79008609987795,128.79008609987795,128.79008609987795,128.79008609987795,128.79008609987795,128.79008609987795,128.79008609987795,128.79008609987795,129.13964839978144,129.13964839978144,129.13964839978144,129.13964839978144,129.13964839978144,129.13964839978144,129.13964839978144,129.13964839978144,129.13964839978144,22,0,,,129.13964839978144,129.34168949979357,1000,129.35658659995534,1000,1000,1000,1000,1,num_2,0.4180450001731515,,32,8,2026-03-12_15h49.23.431,2026A_exp2,2022.2.4,59.80821899465125,
1000,1,0.0,0.0,1,0,31,31,40,,,,,129.79033949994482,130.44042529980652,130.44042529980652,130.94192099990323,315,315,130.94192099990323,130.94192099990323,130.94192099990323,130.94192099990323,130.94192099990323,130.94192099990323,130.94192099990323,130.94192099990323,130.94192099990323,131.30852299998514,131.30852299998514,131.30852299998514,131.30852299998514,131.30852299998514,131.30852299998514,131.30852299998514,131.30852299998514,131.30852299998514,21,2,"[0.08355340012349188, 0.2838649000041187]","[0.10018800012767315, 0.3004148001782596]",131.30852299998514,131.5105140998494,1000,131.5105140998494,1000,1000,1000,1000,0,num_3,2.8163841001223773,,32,8,2026-03-12_15h49.23.431,2026A_exp2,2022.2.4,59.80821899465125,
1000,1,3.7,0.0,0,0,32,32,37,,,,,134.3446854997892,134.9954879998695,134.9954879998695,135.49645499978215,315,45,135.49645499978215,135.49645499978215,135.49645499978215,135.49645499978215,135.49645499978215,135.49645499978215,135.49645499978215,135.49645499978215,135.49645499978215,135.86299749999307,135.86299749999307,135.86299749999307,135.86299749999307,135.86299749999307,135.86299749999307,135.86299749999307,135.86299749999307,135.86299749999307,23,0,,,135.86299749999307,136.06494889990427,1000,136.06494889990427,1000,1000,1000,1000,0,num_3,0.733632700284943,,32,8,2026-03-12_15h49.23.431,2026A_exp2,2022.2.4,59.80821899465125,
1000,1,3.7,4.9,0,0,33,33,13,,,,,136.81394579983316,137.46454829978757,137.46454829978757,137.98126379982568,315,45,137.98126379982568,137.98126379982568,137.98126379982568,137.98126379982568,137.98126379982568,137.98126379982568,137.98126379982568,137.98126379982568,137.98126379982568,138.33178289979696,138.33178289979696,138.33178289979696,138.33178289979696,138.33178289979696,138.33178289979696,138.33178289979696,138.33178289979696,138.33178289979696,23,0,,,138.33178289979696,138.53237499995157,1000,138.53237499995157,1000,1000,1000,1000,0,num_3,1.2984100002795458,,32,8,2026-03-12_15h49.23.431,2026A_exp2,2022.2.4,59.80821899465125,
1,0,0.0,6.1,0,0,34,34,72,,,,,139.8502100999467,140.50047999992967,140.50047999992967,141.00200929981656,315,315,141.00200929981656,141.00200929981656,141.00200929981656,141.00200929981656,141.00200929981656,141.00200929981656,141.00200929981656,141.00200929981656,141.00200929981656,141.35196769982576,141.35196769982576,141.35196769982576,141.35196769982576,141.35196769982576,141.35196769982576,141.35196769982576,141.35196769982576,141.35196769982576,22,0,,,141.35196769982576,141.5526108997874,0.0,141.5526108997874,0,0.0,0,1,1000,num_1,0.6779386003036052,,32,8,2026-03-12_15h49.23.431,2026A_exp2,2022.2.4,59.80821899465125,
1,0,6.1,6.1,0,0,35,35,11,,,,,142.25252259988338,142.9033635999076,142.9033635999076,143.38784629991278,45,45,143.38784629991278,143.38784629991278,143.38784629991278,143.38784629991278,143.38784629991278,143.38784629991278,143.38784629991278,143.38784629991278,143.38784629991278,143.7541998999659,143.7541998999659,143.7541998999659,143.7541998999659,143.7541998999659,143.7541998999659,143.7541998999659,143.7541998999659,143.7541998999659,23,0,,,143.7541998999659,143.95452719996683,6.1,143.95452719996683,1,6.1,1,1,1000,num_4,0.6843905001878738,,32,8,2026-03-12_15h49.23.431,2026A_exp2,2022.2.4,59.80821899465125,
1,0,6.1,0.0,0,0,36,36,24,,,,,144.6551177999936,145.30582439992577,145.30582439992577,145.79023509984836,45,315,145.79023509984836,145.79023509984836,145.79023509984836,145.79023509984836,145.79023509984836,145.79023509984836,145.79023509984836,145.79023509984836,145.79023509984836,146.15670859999955,146.15670859999955,146.15670859999955,146.15670859999955,146.15670859999955,146.15670859999955,146.15670859999955,146.15670859999955,146.15670859999955,21,2,"[0.117207600036636, 0.300473399925977]","[0.15041729994118214, 0.31735490006394684]",146.15670859999955,146.35686909989454,6.1,146.35686909989454,1,6.1,1,1,1000,num_4,0.4334750003181398,,32,8,2026-03-12_15h49.23.431,2026A_exp2,2022.2.4,59.80821899465125,
1,0,3.7,4.9,0,0,37,37,31,,,,,146.80737579986453,147.45789569988847,147.45789569988847,147.94247069978155,45,45,147.94247069978155,147.94247069978155,147.94247069978155,147.94247069978155,147.94247069978155,147.94247069978155,147.94247069978155,147.94247069978155,147.94247069978155,148.30872139986604,148.30872139986604,148.30872139986604,148.30872139986604,148.30872139986604,148.30872139986604,148.30872139986604,148.30872139986604,148.30872139986604,23,0,,,148.30872139986604,148.50901179993525,3.7,148.50901179993525,0,3.7,1,0,1000,num_1,0.46566960006020963,,32,8,2026-03-12_15h49.23.431,2026A_exp2,2022.2.4,59.80821899465125,
1000,1,3.7,0.0,1,0,38,38,33,,,,,148.9925840999931,149.64343079994433,149.64343079994433,150.1279379997868,315,315,150.1279379997868,150.1279379997868,150.1279379997868,150.1279379997868,150.1279379997868,150.1279379997868,150.1279379997868,150.1279379997868,150.1279379997868,150.49434869992547,150.49434869992547,150.49434869992547,150.49434869992547,150.49434869992547,150.49434869992547,150.49434869992547,150.49434869992547,150.49434869992547,23,0,,,150.49434869992547,150.69621219998226,1000,150.69621219998226,1000,1000,1000,1000,0,num_3,0.7108388002961874,,32,8,2026-03-12_15h49.23.431,2026A_exp2,2022.2.4,59.80821899465125,
1,0,0.0,3.7,1,0,39,39,25,,,,,151.42850489984266,152.0792092999909,152.0792092999909,152.58023089985363,315,315,152.58023089985363,152.58023089985363,152.58023089985363,152.58023089985363,152.58023089985363,152.58023089985363,152.58023089985363,152.58023089985363,152.58023089985363,152.94665209995583,152.94665209995583,152.94665209995583,152.94665209995583,152.94665209995583,152.94665209995583,152.94665209995583,152.94665209995583,152.94665209995583,21,2,"[0.001255400013178587, 0.2504598000086844]","[0.01727300020866096, 0.2672145999968052]",152.94665209995583,153.14693739986978,3.7,153.14693739986978,1,3.7,1,1,1000,num_4,0.836108900140971,,32,8,2026-03-12_15h49.23.431,2026A_exp2,2022.2.4,59.80821899465125,
1000,1,0.0,0.0,1,0,40,40,70,,,,,154.01437749993056,154.66503039980307,154.66503039980307,155.14960669982247,45,45,155.14960669982247,155.14960669982247,155.14960669982247,155.14960669982247,155.14960669982247,155.14960669982247,155.14960669982247,155.14960669982247,155.14960669982247,155.51598709984683,155.51598709984683,155.51598709984683,155.51598709984683,155.51598709984683,155.51598709984683,155.51598709984683,155.51598709984683,155.51598709984683,21,1,[0.35059499996714294],[0.3675029999576509],155.51598709984683,155.71638999995776,1000,155.71638999995776,1000,1000,1000,1000,0,num_3,0.9699069003108889,,32,8,2026-03-12_15h49.23.431,2026A_exp2,2022.2.4,59.80821899465125,
1,0,0.0,0.0,0,0,41,41,29,,,,,156.71709659998305,157.36784019996412,157.36784019996412,157.86900639999658,315,315,157.86900639999658,157.86900639999658,157.86900639999658,157.86900639999658,157.86900639999658,157.86900639999658,157.86900639999658,157.86900639999658,157.86900639999658,158.23536549997516,158.23536549997516,158.23536549997516,158.23536549997516,158.23536549997516,158.23536549997516,158.23536549997516,158.23536549997516,158.23536549997516,21,2,"[0.18345479993149638, 0.23311059991829097]","[0.21648889989592135, 0.24974379991181195]",158.23536549997516,158.43545739981346,0.0,158.43545739981346,0,0.0,0,1,1000,num_1,1.0763246002607048,,32,8,2026-03-12_15h49.23.431,2026A_exp2,2022.2.4,59.80821899465125,
1000,1,4.9,0.0,0,0,42,42,78,,,,,159.53638509986922,160.18726209993474,160.18726209993474,160.67164809978567,315,45,160.67164809978567,160.67164809978567,160.67164809978567,160.67164809978567,160.67164809978567,160.67164809978567,160.67164809978567,160.67164809978567,160.67164809978567,161.03820849978365,161.03820849978365,161.03820849978365,161.03820849978365,161.03820849978365,161.03820849978365,161.03820849978365,161.03820849978365,161.03820849978365,17,3,"[0.1675551999360323, 0.2845009998418391, 0.3511000999715179]","[0.20108529995195568, 0.33455429994501173, 0.3678766000084579]",161.03820849978365,161.24020339990966,1000,161.24020339990966,1000,1000,1000,1000,0,num_3,1.1981008001603186,,32,8,2026-03-12_15h49.23.431,2026A_exp2,2022.2.4,59.80821899465125,
1000,1,6.1,0.0,1,0,43,43,79,,,,,162.4561636999715,163.1065397998318,163.1065397998318,163.60788969998248,315,45,163.60788969998248,163.60788969998248,163.60788969998248,163.60788969998248,163.60788969998248,163.60788969998248,163.60788969998248,163.60788969998248,163.60788969998248,163.97443099995144,163.97443099995144,163.97443099995144,163.97443099995144,163.97443099995144,163.97443099995144,163.97443099995144,163.97443099995144,163.97443099995144,23,0,,,163.97443099995144,164.1768566998653,1000,164.1768566998653,1000,1000,1000,1000,0,num_3,0.4868748001754284,,32,8,2026-03-12_15h49.23.431,2026A_exp2,2022.2.4,59.80821899465125,
1000,1,0.0,0.0,0,0,44,44,47,,,,,164.69188429997303,165.34238069993444,165.34238069993444,165.84360259980895,315,45,165.84360259980895,165.84360259980895,165.84360259980895,165.84360259980895,165.84360259980895,165.84360259980895,165.84360259980895,165.84360259980895,165.84360259980895,166.20997339999303,166.20997339999303,166.20997339999303,166.20997339999303,166.20997339999303,166.20997339999303,166.20997339999303,166.20997339999303,166.20997339999303,23,0,,,166.20997339999303,166.41213309997693,1000,166.41213309997693,1000,1000,1000,1000,0,num_3,0.5553255002014339,,32,8,2026-03-12_15h49.23.431,2026A_exp2,2022.2.4,59.80821899465125,
1000,1,4.9,0.0,0,0,45,45,20,,,,,166.9940230997745,167.6447430998087,167.6447430998087,168.14569559996016,315,45,168.14569559996016,168.14569559996016,168.14569559996016,168.14569559996016,168.14569559996016,168.14569559996016,168.14569559996016,168.14569559996016,168.14569559996016,168.51212839991786,168.51212839991786,168.51212839991786,168.51212839991786,168.51212839991786,168.51212839991786,168.51212839991786,168.51212839991786,168.51212839991786,19,3,"[0.0007350000087171793, 0.23333660000935197, 0.26701369998045266]","[0.03330929996445775, 0.25012519978918135, 0.28349879989400506]",168.51212839991786,168.71231350000016,1000,168.71231350000016,1000,1000,1000,1000,0,num_3,0.4786998003255576,,32,8,2026-03-12_15h49.23.431,2026A_exp2,2022.2.4,59.80821899465125,
1000,1,6.1,0.0,1,0,46,46,52,,,,,169.21294109988958,169.86365469987504,169.86365469987504,170.3646744999569,315,45,170.3646744999569,170.3646744999569,170.3646744999569,170.3646744999569,170.3646744999569,170.3646744999569,170.3646744999569,170.3646744999569,170.3646744999569,170.7311537999194,170.7311537999194,170.7311537999194,170.7311537999194,170.7311537999194,170.7311537999194,170.7311537999194,170.7311537999194,170.7311537999194,23,0,,,170.7311537999194,170.9331967998296,1000,170.9331967998296,1000,1000,1000,1000,0,num_3,0.4733986002393067,,32,8,2026-03-12_15h49.23.431,2026A_exp2,2022.2.4,59.80821899465125,
1,0,0.0,3.7,0,0,47,47,1,,,,,171.43171269982122,172.08255349984393,172.08255349984393,172.5837147999555,315,45,172.5837147999555,172.5837147999555,172.5837147999555,172.5837147999555,172.5837147999555,172.5837147999555,172.5837147999555,172.5837147999555,172.5837147999555,172.9334588998463,172.9334588998463,172.9334588998463,172.9334588998463,172.9334588998463,172.9334588998463,172.9334588998463,172.9334588998463,172.9334588998463,14,4,"[0.1004147999919951, 0.13365380000323057, 0.1838499999139458, 0.25062599987722933]","[0.11684149992652237, 0.1669419000390917, 0.2170776000712067, 0.300503300037235]",172.9334588998463,173.13347679981962,0.0,173.13347679981962,0,0.0,0,1,1000,num_1,0.6981967000756413,,32,8,2026-03-12_15h49.23.431,2026A_exp2,2022.2.4,59.80821899465125,
1,0,0.0,6.1,0,0,48,48,57,,,,,173.85085679986514,174.5016676997766,174.5016676997766,174.98612089990638,315,315,174.98612089990638,174.98612089990638,174.98612089990638,174.98612089990638,174.98612089990638,174.98612089990638,174.98612089990638,174.98612089990638,174.98612089990638,175.35240879980847,175.35240879980847,175.35240879980847,175.35240879980847,175.35240879980847,175.35240879980847,175.35240879980847,175.35240879980847,175.35240879980847,23,0,,,175.35240879980847,175.55270109977573,0.0,175.55270109977573,0,0.0,0,1,1000,num_1,0.6146955001167953,,32,8,2026-03-12_15h49.23.431,2026A_exp2,2022.2.4,59.80821899465125,
1000,1,4.9,0.0,1,0,49,49,7,,,,,176.18645539996214,176.83140989998356,176.83140989998356,177.32374089979567,315,315,177.32374089979567,177.32374089979567,177.32374089979567,177.32374089979567,177.32374089979567,177.32374089979567,177.32374089979567,177.32374089979567,177.32374089979567,177.68809019983746,177.68809019983746,177.68809019983746,177.68809019983746,177.68809019983746,177.68809019983746,177.68809019983746,177.68809019983746,177.68809019983746,19,2,"[0.002108899876475334, 0.11592489993199706]","[0.03301179991103709, 0.14928619982674718]",177.68809019983746,177.89942049980164,1000,177.89942049980164,1000,1000,1000,1000,0,num_3,0.4836854003369808,,32,8,2026-03-12_15h49.23.431,2026A_exp2,2022.2.4,59.80821899465125,
1,0,0.0,0.0,0,0,50,50,0,,,,,178.40570929995738,179.0562154999934,179.0562154999934,179.55752739985473,315,315,179.55752739985473,179.55752739985473,179.55752739985473,179.55752739985473,179.55752739985473,179.55752739985473,179.55752739985473,179.55752739985473,179.55752739985473,179.92368139978498,179.92368139978498,179.92368139978498,179.92368139978498,179.92368139978498,179.92368139978498,179.92368139978498,179.92368139978498,179.92368139978498,21,1,[0.08359370008111],[0.11688310001045465],179.92368139978498,180.1240231997799,0.0,180.1240231997799,1,0.0,0,0,1000,num_4,0.7785855003166944,,32,8,2026-03-12_15h49.23.431,2026A_exp2,2022.2.4,59.80821899465125,
0,0,3.7,3.7,0,0,51,51,63,,,,,180.9245649999939,181.5754227999132,181.5754227999132,182.0597429999616,315,45,182.0597429999616,182.0597429999616,182.0597429999616,182.0597429999616,182.0597429999616,182.0597429999616,182.0597429999616,182.0597429999616,182.0597429999616,182.4261301998049,182.4261301998049,182.4261301998049,182.4261301998049,182.4261301998049,182.4261301998049,182.4261301998049,182.4261301998049,182.4261301998049,23,0,,,182.4261301998049,182.62644759984687,3.7,182.62644759984687,0,3.7,1,0,1000,num_1,2.420839900150895,,32,8,2026-03-12_15h49.23.431,2026A_exp2,2022.2.4,59.80821899465125,
1,0,3.7,6.1,1,0,52,52,6,,,,,185.0787378998939,185.7295320997946,185.7295320997946,186.2139885998331,45,315,186.2139885998331,186.2139885998331,186.2139885998331,186.2139885998331,186.2139885998331,186.2139885998331,186.2139885998331,186.2139885998331,186.2139885998331,186.5803455999121,186.5803455999121,186.5803455999121,186.5803455999121,186.5803455999121,186.5803455999121,186.5803455999121,186.5803455999121,186.5803455999121,23,0,,,186.5803455999121,186.78042159997858,6.1,186.78042159997858,1,6.1,1,1,1000,num_4,0.4905244002584368,,32,8,2026-03-12_15h49.23.431,2026A_exp2,2022.2.4,59.80821899465125,
1,0,6.1,3.7,0,0,53,53,86,,,,,187.2975545998197,187.94843119988218,187.94843119988218,188.43280579987913,45,315,188.43280579987913,188.43280579987913,188.43280579987913,188.43280579987913,188.43280579987913,188.43280579987913,188.43280579987913,188.43280579987913,188.43280579987913,188.79897339991294,188.79897339991294,188.79897339991294,188.79897339991294,188.79897339991294,188.79897339991294,188.79897339991294,188.79897339991294,188.79897339991294,23,0,,,188.79897339991294,189.01277809985913,6.1,189.01277809985913,1,6.1,1,1,1000,num_4,0.6655864000786096,,32,8,2026-03-12_15h49.23.431,2026A_exp2,2022.2.4,59.80821899465125,
1000,1,6.1,3.7,0,0,54,54,61,,,,,189.7001076999586,190.35086919995956,190.35086919995956,190.83511669980362,45,45,190.83511669980362,190.83511669980362,190.83511669980362,190.83511669980362,190.83511669980362,190.83511669980362,190.83511669980362,190.83511669980362,190.83511669980362,191.2016499999445,191.2016499999445,191.2016499999445,191.2016499999445,191.2016499999445,191.2016499999445,191.2016499999445,191.2016499999445,191.2016499999445,23,0,,,191.2016499999445,191.40355419996195,1000,191.40355419996195,1000,1000,1000,1000,0,num_3,0.8429608002770692,,32,8,2026-03-12_15h49.23.431,2026A_exp2,2022.2.4,59.80821899465125,
1000,1,3.7,3.7,1,0,55,55,46,,,,,192.26933269994333,192.9199932999909,192.9199932999909,193.4212210997939,315,45,193.4212210997939,193.4212210997939,193.4212210997939,193.4212210997939,193.4212210997939,193.4212210997939,193.4212210997939,193.4212210997939,193.4212210997939,193.78745019994676,193.78745019994676,193.78745019994676,193.78745019994676,193.78745019994676,193.78745019994676,193.78745019994676,193.78745019994676,193.78745019994676,12,4,"[0.10004130005836487, 0.18385080015286803, 0.30089650000445545, 0.3340765000320971]","[0.13361490005627275, 0.2673774999566376, 0.31760110007598996, 0.36767380009405315]",193.78745019994676,193.98943879990838,1000,193.98943879990838,1000,1000,1000,1000,1,num_2,0.8090263002086431,,32,8,2026-03-12_15h49.23.431,2026A_exp2,2022.2.4,59.80821899465125,
1000,1,6.1,4.9,0,0,56,56,77,,,,,194.82201139978133,195.4725865998771,195.4725865998771,195.9738848998677,315,315,195.9738848998677,195.9738848998677,195.9738848998677,195.9738848998677,195.9738848998677,195.9738848998677,195.9738848998677,195.9738848998677,195.9738848998677,196.3401329999324,196.3401329999324,196.3401329999324,196.3401329999324,196.3401329999324,196.3401329999324,196.3401329999324,196.3401329999324,196.3401329999324,23,0,,,196.3401329999324,196.54214069992304,1000,196.54214069992304,1000,1000,1000,1000,0,num_3,0.5362016002181917,,32,8,2026-03-12_15h49.23.431,2026A_exp2,2022.2.4,59.80821899465125,
1,0,4.9,0.0,1,0,57,57,15,,,,,197.10763409989886,197.75821849983186,197.75821849983186,198.2591445997823,315,315,198.2591445997823,198.2591445997823,198.2591445997823,198.2591445997823,198.2591445997823,198.2591445997823,198.2591445997823,198.2591445997823,198.2591445997823,198.62566009978764,198.62566009978764,198.62566009978764,198.62566009978764,198.62566009978764,198.62566009978764,198.62566009978764,198.62566009978764,198.62566009978764,23,0,,,198.62566009978764,198.82618749979883,0.0,198.82618749979883,0,0.0,0,1,1000,num_1,0.5485723002348095,,32,8,2026-03-12_15h49.23.431,2026A_exp2,2022.2.4,59.80821899465125,
1,0,0.0,0.0,0,0,58,58,19,,,,,199.39303859998472,200.04380139987916,200.04380139987916,200.54486199980602,315,45,200.54486199980602,200.54486199980602,200.54486199980602,200.54486199980602,200.54486199980602,200.54486199980602,200.54486199980602,200.54486199980602,200.54486199980602,200.91114829992875,200.91114829992875,200.91114829992875,200.91114829992875,200.91114829992875,200.91114829992875,200.91114829992875,200.91114829992875,200.91114829992875,23,0,,,200.91114829992875,201.1116449998226,0.0,201.1116449998226,0,0.0,0,1,1000,num_1,0.7513179001398385,,32,8,2026-03-12_15h49.23.431,2026A_exp2,2022.2.4,59.80821899465125,
0,0,0.0,0.0,0,0,59,59,4,,,,,201.87891869992018,202.5296685998328,202.5296685998328,203.03071719990112,315,45,203.03071719990112,203.03071719990112,203.03071719990112,203.03071719990112,203.03071719990112,203.03071719990112,203.03071719990112,203.03071719990112,203.03071719990112,203.397230199771,203.397230199771,203.397230199771,203.397230199771,203.397230199771,203.397230199771,203.397230199771,203.397230199771,203.397230199771,23,0,,,203.397230199771,203.59756169980392,0.0,203.59756169980392,1,0.0,0,0,1000,num_4,1.7690447003114969,,32,8,2026-03-12_15h49.23.431,2026A_exp2,2022.2.4,59.80821899465125,
1,0,0.0,3.7,1,0,60,60,12,,,,,205.38360149995424,206.03312409995124,206.03312409995124,206.53419549996033,45,315,206.53419549996033,206.53419549996033,206.53419549996033,206.53419549996033,206.53419549996033,206.53419549996033,206.53419549996033,206.53419549996033,206.53419549996033,206.90066970000044,206.90066970000044,206.90066970000044,206.90066970000044,206.90066970000044,206.90066970000044,206.90066970000044,206.90066970000044,206.90066970000044,21,2,"[0.03370969998650253, 0.250590399838984]","[0.050083599984645844, 0.26739989989437163]",206.90066970000044,207.10093469987623,3.7,207.10093469987623,1,3.7,1,1,1000,num_4,0.6334722002502531,,32,8,2026-03-12_15h49.23.431,2026A_exp2,2022.2.4,59.80821899465125,
1000,1,0.0,0.0,1,0,61,61,62,,,,,207.75140309985727,208.4022567998618,208.4022567998618,208.88652009982616,45,315,208.88652009982616,208.88652009982616,208.88652009982616,208.88652009982616,208.88652009982616,208.88652009982616,208.88652009982616,208.88652009982616,208.88652009982616,209.25308129983023,209.25308129983023,209.25308129983023,209.25308129983023,209.25308129983023,209.25308129983023,209.25308129983023,209.25308129983023,209.25308129983023,23,0,,,209.25308129983023,209.45502889994532,1000,209.45502889994532,1000,1000,1000,1000,0,num_3,0.8234166002366692,,32,8,2026-03-12_15h49.23.431,2026A_exp2,2022.2.4,59.80821899465125,
1000,1,0.0,0.0,1,0,62,62,39,,,,,210.3039984998759,210.95485569979064,210.95485569979064,211.4557944999542,45,45,211.4557944999542,211.4557944999542,211.4557944999542,211.4557944999542,211.4557944999542,211.4557944999542,211.4557944999542,211.4557944999542,211.4557944999542,211.82221399992704,211.82221399992704,211.82221399992704,211.82221399992704,211.82221399992704,211.82221399992704,211.82221399992704,211.82221399992704,211.82221399992704,3,2,"[0.0007475998718291521, 0.0842492999508977]","[0.03411349980160594, 0.3677567997947335]",211.82221399992704,212.02269739983603,1000,212.02269739983603,1000,1000,1000,1000,0,num_3,0.6402564002200961,,32,8,2026-03-12_15h49.23.431,2026A_exp2,2022.2.4,59.80821899465125,
1000,1,6.1,6.1,0,0,63,63,74,,,,,212.69003839977086,213.34036079980433,213.34036079980433,213.84170129988343,315,45,213.84170129988343,213.84170129988343,213.84170129988343,213.84170129988343,213.84170129988343,213.84170129988343,213.84170129988343,213.84170129988343,213.84170129988343,214.19134989986196,214.19134989986196,214.19134989986196,214.19134989986196,214.19134989986196,214.19134989986196,214.19134989986196,214.19134989986196,214.19134989986196,0,1,[0.0011987998150289059],[0.35057449992746115],214.19134989986196,214.393417699961,1000,214.393417699961,1000,1000,1000,1000,0,num_3,0.6614907002076507,,32,8,2026-03-12_15h49.23.431,2026A_exp2,2022.2.4,59.80821899465125,
1000,1,0.0,0.0,1,0,64,64,71,,,,,215.07545059989206,215.7261802998837,215.7261802998837,216.22731939982623,45,315,216.22731939982623,216.22731939982623,216.22731939982623,216.22731939982623,216.22731939982623,216.22731939982623,216.22731939982623,216.22731939982623,216.22731939982623,216.593672899995,216.593672899995,216.593672899995,216.593672899995,216.593672899995,216.593672899995,216.593672899995,216.593672899995,216.593672899995,23,0,,,216.593672899995,216.7958472999744,1000,216.7958472999744,1000,1000,1000,1000,1,num_2,0.4509791003074497,,32,8,2026-03-12_15h49.23.431,2026A_exp2,2022.2.4,59.80821899465125,
1,0,4.9,0.0,1,0,65,65,48,,,,,217.27766409981996,217.92841289984062,217.92841289984062,218.42940149991773,45,315,218.42940149991773,218.42940149991773,218.42940149991773,218.42940149991773,218.42940149991773,218.42940149991773,218.42940149991773,218.42940149991773,218.42940149991773,218.79583499999717,218.79583499999717,218.79583499999717,218.79583499999717,218.79583499999717,218.79583499999717,218.79583499999717,218.79583499999717,218.79583499999717,22,1,[0.08349420013837516],[0.10012770001776516],218.79583499999717,218.99604859994724,0.0,218.99604859994724,1,0.0,0,0,1000,num_4,1.563055600039661,,32,8,2026-03-12_15h49.23.431,2026A_exp2,2022.2.4,59.80821899465125,
1,0,3.7,3.7,1,0,66,66,64,,,,,220.58090599998832,221.23157789977267,221.23157789977267,221.7162053999491,45,315,221.7162053999491,221.7162053999491,221.7162053999491,221.7162053999491,221.7162053999491,221.7162053999491,221.7162053999491,221.7162053999491,221.7162053999491,222.08253139979206,222.08253139979206,222.08253139979206,222.08253139979206,222.08253139979206,222.08253139979206,222.08253139979206,222.08253139979206,222.08253139979206,23,0,,,222.08253139979206,222.2825957997702,3.7,222.2825957997702,1,3.7,1,1,1000,num_4,0.3243130003102124,,32,8,2026-03-12_15h49.23.431,2026A_exp2,2022.2.4,59.80821899465125,
1,0,0.0,3.7,0,0,67,67,22,,,,,222.63296879990958,223.28378249984235,223.28378249984235,223.76803039992228,315,315,223.76803039992228,223.76803039992228,223.76803039992228,223.76803039992228,223.76803039992228,223.76803039992228,223.76803039992228,223.76803039992228,223.76803039992228,224.13456959999166,224.13456959999166,224.13456959999166,224.13456959999166,224.13456959999166,224.13456959999166,224.13456959999166,224.13456959999166,224.13456959999166,23,0,,,224.13456959999166,224.3346647999715,0.0,224.3346647999715,0,0.0,0,1,1000,num_1,0.7846270001027733,,32,8,2026-03-12_15h49.23.431,2026A_exp2,2022.2.4,59.80821899465125,
1000,1,0.0,3.7,1,0,68,68,75,,,,,225.1354159999173,225.7861217998434,225.7861217998434,226.28736359998584,45,315,226.28736359998584,226.28736359998584,226.28736359998584,226.28736359998584,226.28736359998584,226.28736359998584,226.28736359998584,226.28736359998584,226.28736359998584,226.63716469984502,226.63716469984502,226.63716469984502,226.63716469984502,226.63716469984502,226.63716469984502,226.63716469984502,226.63716469984502,226.63716469984502,22,0,,,226.63716469984502,226.8389880999457,1000,226.8389880999457,1000,1000,1000,1000,1,num_2,0.46365170017816126,,32,8,2026-03-12_15h49.23.431,2026A_exp2,2022.2.4,59.80821899465125,
1000,1,6.1,6.1,0,0,69,69,56,,,,,227.32108359993435,227.97183829988353,227.97183829988353,228.47280399990268,315,45,228.47280399990268,228.47280399990268,228.47280399990268,228.47280399990268,228.47280399990268,228.47280399990268,228.47280399990268,228.47280399990268,228.47280399990268,228.8391820997931,228.8391820997931,228.8391820997931,228.8391820997931,228.8391820997931,228.8391820997931,228.8391820997931,228.8391820997931,228.8391820997931,23,0,,,228.8391820997931,229.07005699980073,1000,229.07005699980073,1000,1000,1000,1000,0,num_3,0.44911720021627843,,32,8,2026-03-12_15h49.23.431,2026A_exp2,2022.2.4,59.80821899465125,
1,0,0.0,0.0,1,0,70,70,53,,,,,229.53975279978476,230.19070919998921,230.19070919998921,230.69151239981875,315,45,230.69151239981875,230.69151239981875,230.69151239981875,230.69151239981875,230.69151239981875,230.69151239981875,230.69151239981875,230.69151239981875,230.69151239981875,231.0581926999148,231.0581926999148,231.0581926999148,231.0581926999148,231.0581926999148,231.0581926999148,231.0581926999148,231.0581926999148,231.0581926999148,22,1,[0.0012405000161379576],[0.01708150003105402],231.0581926999148,231.258368199924,0.0,231.258368199924,1,0.0,0,0,1000,num_4,0.6199522002134472,,32,8,2026-03-12_15h49.23.431,2026A_exp2,2022.2.4,59.80821899465125,
1000,1,3.7,3.7,0,0,71,71,16,,,,,231.90890869987197,232.5597790000029,232.5597790000029,233.04400999983773,45,45,233.04400999983773,233.04400999983773,233.04400999983773,233.04400999983773,233.04400999983773,233.04400999983773,233.04400999983773,233.04400999983773,233.04400999983773,233.4105633997824,233.4105633997824,233.4105633997824,233.4105633997824,233.4105633997824,233.4105633997824,233.4105633997824,233.4105633997824,233.4105633997824,23,0,,,233.4105633997824,233.61240559979342,1000,233.61240559979342,1000,1000,1000,1000,0,num_3,1.1139107004273683,,32,8,2026-03-12_15h49.23.431,2026A_exp2,2022.2.4,59.80821899465125,
1000,1,0.0,6.1,1,0,72,72,3,,,,,234.74503829982132,235.39584019989707,235.39584019989707,235.89693979988806,45,315,235.89693979988806,235.89693979988806,235.89693979988806,235.89693979988806,235.89693979988806,235.89693979988806,235.89693979988806,235.89693979988806,235.89693979988806,236.26339459978044,236.26339459978044,236.26339459978044,236.26339459978044,236.26339459978044,236.26339459978044,236.26339459978044,236.26339459978044,236.26339459978044,23,0,,,236.26339459978044,236.46545469993725,1000,236.46545469993725,1000,1000,1000,1000,1,num_2,0.5819627002347261,,32,8,2026-03-12_15h49.23.431,2026A_exp2,2022.2.4,59.80821899465125,
1,0,6.1,6.1,1,0,73,73,89,,,,,237.06410209997557,237.71490119979717,237.71490119979717,238.2158969999291,45,315,238.2158969999291,238.2158969999291,238.2158969999291,238.2158969999291,238.2158969999291,238.2158969999291,238.2158969999291,238.2158969999291,238.2158969999291,238.58203129982576,238.58203129982576,238.58203129982576,238.58203129982576,238.58203129982576,238.58203129982576,238.58203129982576,238.58203129982576,238.58203129982576,23,0,,,238.58203129982576,238.7825412999373,6.1,238.7825412999373,1,6.1,1,1,1000,num_4,0.7928852003533393,,32,8,2026-03-12_15h49.23.431,2026A_exp2,2022.2.4,59.80821899465125,
1000,1,3.7,6.1,0,0,74,74,81,,,,,239.59990359982476,240.25081619992852,240.25081619992852,240.73532979981974,315,45,240.73532979981974,240.73532979981974,240.73532979981974,240.73532979981974,240.73532979981974,240.73532979981974,240.73532979981974,240.73532979981974,240.73532979981974,241.10159549978562,241.10159549978562,241.10159549978562,241.10159549978562,241.10159549978562,241.10159549978562,241.10159549978562,241.10159549978562,241.10159549978562,13,3,"[0.0007235999219119549, 0.1507534000556916, 0.2508706001099199]","[0.13399580004625022, 0.16729369992390275, 0.2675457999575883]",241.10159549978562,241.3018010999076,1000,241.3018010999076,1000,1000,1000,1000,0,num_3,1.2087512002326548,,32,8,2026-03-12_15h49.23.431,2026A_exp2,2022.2.4,59.80821899465125,
1,0,3.7,0.0,1,0,75,75,59,,,,,242.5363346999511,243.18705709977075,243.18705709977075,243.68800479988568,45,315,243.68800479988568,243.68800479988568,243.68800479988568,243.68800479988568,243.68800479988568,243.68800479988568,243.68800479988568,243.68800479988568,243.68800479988568,244.0542004997842,244.0542004997842,244.0542004997842,244.0542004997842,244.0542004997842,244.0542004997842,244.0542004997842,244.0542004997842,244.0542004997842,23,0,,,244.0542004997842,244.2545372999739,0.0,244.2545372999739,0,0.0,0,1,1000,num_1,0.5924299000762403,,32,8,2026-03-12_15h49.23.431,2026A_exp2,2022.2.4,59.80821899465125,
1000,1,0.0,4.9,0,0,76,76,9,,,,,244.87217219988815,245.50620749988593,245.50620749988593,246.00711849983782,315,315,246.00711849983782,246.00711849983782,246.00711849983782,246.00711849983782,246.00711849983782,246.00711849983782,246.00711849983782,246.00711849983782,246.00711849983782,246.3734501998406,246.3734501998406,246.3734501998406,246.3734501998406,246.3734501998406,246.3734501998406,246.3734501998406,246.3734501998406,246.3734501998406,22,1,[0.1670274999924004],[0.18370080017484725],246.3734501998406,246.57551559992135,1000,246.57551559992135,1000,1000,1000,1000,1,num_2,0.8078815001063049,,32,8,2026-03-12_15h49.23.431,2026A_exp2,2022.2.4,59.80821899465125,
1000,1,4.9,4.9,1,0,77,77,26,,,,,247.40785189997405,248.0584803998936,248.0584803998936,248.55959569988772,45,45,248.55959569988772,248.55959569988772,248.55959569988772,248.55959569988772,248.55959569988772,248.55959569988772,248.55959569988772,248.55959569988772,248.55959569988772,248.90941689978354,248.90941689978354,248.90941689978354,248.90941689978354,248.90941689978354,248.90941689978354,248.90941689978354,248.90941689978354,248.90941689978354,20,2,"[0.3173208001535386, 0.3505999001208693]","[0.333904700120911, 0.35060700005851686]",248.90941689978354,249.11123709985986,1000,249.11123709985986,1000,1000,1000,1000,1,num_2,0.4234526001382619,,32,8,2026-03-12_15h49.23.431,2026A_exp2,2022.2.4,59.80821899465125,
1000,1,6.1,0.0,0,0,78,78,8,,,,,249.55995119991712,250.21073199994862,250.21073199994862,250.71159279998392,45,315,250.71159279998392,250.71159279998392,250.71159279998392,250.71159279998392,250.71159279998392,250.71159279998392,250.71159279998392,250.71159279998392,250.71159279998392,251.0614813999273,251.0614813999273,251.0614813999273,251.0614813999273,251.0614813999273,251.0614813999273,251.0614813999273,251.0614813999273,251.0614813999273,22,0,,,251.0614813999273,251.26208029990084,1000,251.27848039986566,1000,1000,1000,1000,0,num_3,0.31191370030865073,,32,8,2026-03-12_15h49.23.431,2026A_exp2,2022.2.4,59.80821899465125,
1000,1,0.0,3.7,0,0,79,79,32,,,,,251.61187289981171,252.26273919991218,252.26273919991218,252.76380159985274,315,315,252.76380159985274,252.76380159985274,252.76380159985274,252.76380159985274,252.76380159985274,252.76380159985274,252.76380159985274,252.76380159985274,252.76380159985274,253.1303850999102,253.1303850999102,253.1303850999102,253.1303850999102,253.1303850999102,253.1303850999102,253.1303850999102,253.1303850999102,253.1303850999102,7,4,"[0.05021280003711581, 0.08374610007740557, 0.11712660011835396, 0.15066220005974174]","[0.0671123000793159, 0.10056450008414686, 0.13413340016268194, 0.36711480002850294]",253.1303850999102,253.33217719988897,1000,253.33217719988897,1000,1000,1000,1000,0,num_3,0.4340869002044201,,32,8,2026-03-12_15h49.23.431,2026A_exp2,2022.2.4,59.80821899465125,
1000,1,3.7,0.0,1,0,80,80,44,,,,,253.79770199977793,254.4575954999309,254.4575954999309,254.95455759996548,315,45,254.95455759996548,254.95455759996548,254.95455759996548,254.95455759996548,254.95455759996548,254.95455759996548,254.95455759996548,254.95455759996548,254.95455759996548,255.2991082998924,255.2991082998924,255.2991082998924,255.2991082998924,255.2991082998924,255.2991082998924,255.2991082998924,255.2991082998924,255.2991082998924,20,1,[0.0025849000085145235],[0.03514910000376403],255.2991082998924,255.50329049979337,1000,255.50329049979337,1000,1000,1000,1000,1,num_2,0.975632700137794,,32,8,2026-03-12_15h49.23.431,2026A_exp2,2022.2.4,59.80821899465125,
1,0,0.0,0.0,0,0,81,81,66,,,,,256.50021019997075,257.1509695998393,257.1509695998393,257.652108799899,315,315,257.652108799899,257.652108799899,257.652108799899,257.652108799899,257.652108799899,257.652108799899,257.652108799899,257.652108799899,257.652108799899,258.0185047998093,258.0185047998093,258.0185047998093,258.0185047998093,258.0185047998093,258.0185047998093,258.0185047998093,258.0185047998093,258.0185047998093,22,1,[0.35040470003150403],[0.36720509990118444],258.0185047998093,258.2185908998363,0.0,258.2185908998363,0,0.0,0,1,1000,num_1,0.643826600164175,,32,8,2026-03-12_15h49.23.431,2026A_exp2,2022.2.4,59.80821899465125,
1000,1,6.1,0.0,0,0,82,82,58,,,,,258.8860578997992,259.52349999989383,259.52349999989383,260.0287953999359,315,315,260.0287953999359,260.0287953999359,260.0287953999359,260.0287953999359,260.0287953999359,260.0287953999359,260.0287953999359,260.0287953999359,260.0287953999359,260.3875098999124,260.3875098999124,260.3875098999124,260.3875098999124,260.3875098999124,260.3875098999124,260.3875098999124,260.3875098999124,260.3875098999124,14,2,"[0.08194639999419451, 0.16491800011135638]","[0.1145941000431776, 0.2814962000120431]",260.3875098999124,260.58943219995126,1000,260.58943219995126,1000,1000,1000,1000,0,num_3,0.8890214001294225,,32,8,2026-03-12_15h49.23.431,2026A_exp2,2022.2.4,59.80821899465125,
1000,1,0.0,4.9,0,0,83,83,27,,,,,261.5054541998543,262.15601049992256,262.15601049992256,262.6402862998657,315,315,262.6402862998657,262.6402862998657,262.6402862998657,262.6402862998657,262.6402862998657,262.6402862998657,262.6402862998657,262.6402862998657,262.6402862998657,263.00673869997263,263.00673869997263,263.00673869997263,263.00673869997263,263.00673869997263,263.00673869997263,263.00673869997263,263.00673869997263,263.00673869997263,21,1,[0.0012435000389814377],[0.033517600037157536],263.00673869997263,263.2085858997889,1000,263.2085858997889,1000,1000,1000,1000,1,num_2,0.28617900027893484,,32,8,2026-03-12_15h49.23.431,2026A_exp2,2022.2.4,59.80821899465125,
1,0,0.0,4.9,0,0,84,84,35,,,,,263.52399199991487,264.17474879999645,264.17474879999645,264.6755332998,45,315,264.6755332998,264.6755332998,264.6755332998,264.6755332998,264.6755332998,264.6755332998,264.6755332998,264.6755332998,264.6755332998,265.0421083997935,265.0421083997935,265.0421083997935,265.0421083997935,265.0421083997935,265.0421083997935,265.0421083997935,265.0421083997935,265.0421083997935,17,4,"[0.01742629986256361, 0.10041069984436035, 0.2009159999433905, 0.3342527998611331]","[0.06699940003454685, 0.11744900001212955, 0.2343987999483943, 0.35089710005559027]",265.0421083997935,265.2423972999677,0.0,265.2423972999677,0,0.0,0,1,1000,num_1,0.5567986001260579,,32,8,2026-03-12_15h49.23.431,2026A_exp2,2022.2.4,59.80821899465125,
1000,1,6.1,0.0,0,0,85,85,68,,,,,265.82775799999945,266.4788130999077,266.4788130999077,266.97805809997953,45,45,266.97805809997953,266.97805809997953,266.97805809997953,266.97805809997953,266.97805809997953,266.97805809997953,266.97805809997953,266.97805809997953,266.97805809997953,267.3444909998216,267.3444909998216,267.3444909998216,267.3444909998216,267.3444909998216,267.3444909998216,267.3444909998216,267.3444909998216,267.3444909998216,23,0,,,267.3444909998216,267.5466223999392,1000,267.5466223999392,1000,1000,1000,1000,0,num_3,0.9008927003014833,,32,8,2026-03-12_15h49.23.431,2026A_exp2,2022.2.4,59.80821899465125,
1,0,0.0,0.0,1,0,86,86,82,,,,,268.4790030999575,269.12962059979327,269.12962059979327,269.63062069984153,45,45,269.63062069984153,269.63062069984153,269.63062069984153,269.63062069984153,269.63062069984153,269.63062069984153,269.63062069984153,269.63062069984153,269.63062069984153,269.99715919978917,269.99715919978917,269.99715919978917,269.99715919978917,269.99715919978917,269.99715919978917,269.99715919978917,269.99715919978917,269.99715919978917,23,0,,,269.99715919978917,270.19726099981926,0.0,270.19726099981926,0,0.0,0,1,1000,num_1,1.0572254003491253,,32,8,2026-03-12_15h49.23.431,2026A_exp2,2022.2.4,59.80821899465125,
1,0,0.0,3.7,1,0,87,87,10,,,,,271.2817950998433,271.9322717997711,271.9322717997711,272.41686329990625,45,45,272.41686329990625,272.41686329990625,272.41686329990625,272.41686329990625,272.41686329990625,272.41686329990625,272.41686329990625,272.41686329990625,272.41686329990625,272.78323869989254,272.78323869989254,272.78323869989254,272.78323869989254,272.78323869989254,272.78323869989254,272.78323869989254,272.78323869989254,272.78323869989254,23,0,,,272.78323869989254,272.98334479983896,3.7,272.98334479983896,1,3.7,1,1,1000,num_4,0.7912433000747114,,32,8,2026-03-12_15h49.23.431,2026A_exp2,2022.2.4,59.80821899465125,
1000,1,4.9,4.9,0,0,88,88,34,,,,,273.80098529998213,274.4515911999624,274.4515911999624,274.93607319984585,315,315,274.93607319984585,274.93607319984585,274.93607319984585,274.93607319984585,274.93607319984585,274.93607319984585,274.93607319984585,274.93607319984585,274.93607319984585,275.30248889978975,275.30248889978975,275.30248889978975,275.30248889978975,275.30248889978975,275.30248889978975,275.30248889978975,275.30248889978975,275.30248889978975,23,0,,,275.30248889978975,275.5046877998393,1000,275.5046877998393,1000,1000,1000,1000,0,num_3,0.4382730000652373,,32,8,2026-03-12_15h49.23.431,2026A_exp2,2022.2.4,59.80821899465125,
1000,1,4.9,6.1,1,0,89,89,18,,,,,275.96988329989836,276.6036646999419,276.6036646999419,277.1046733998228,315,45,277.1046733998228,277.1046733998228,277.1046733998228,277.1046733998228,277.1046733998228,277.1046733998228,277.1046733998228,277.1046733998228,277.1046733998228,277.47131639998406,277.47131639998406,277.47131639998406,277.47131639998406,277.47131639998406,277.47131639998406,277.47131639998406,277.47131639998406,277.47131639998406,23,0,,,277.47131639998406,277.67330249981023,1000,277.67330249981023,1000,1000,1000,1000,1,num_2,0.19040380022488534,,32,8,2026-03-12_15h49.23.431,2026A_exp2,2022.2.4,59.80821899465125,
,,,,,,,,,,,,,,,,,,,,,,,,,,,,,,,,,,,,,,,,,,,,,,,,,,,,277.8985434998758,,,,,,,
