validity,detectorcomp,contrastCW,contrastCCW,precueCWorCCW,block_80trials.thisRepN,block_80trials.thisTrialN,block_80trials.thisN,block_80trials.thisIndex,etRecord.started,etRecord.stopped,text.started,text.stopped,text_4.started,text_4.stopped,text_6.started,text_6.stopped,oriCW,oriCCW,roi_2.started,grating_UR.started,grating_UL.started,grating_LR.started,grating_LL.started,noise_UR.started,noise_UL.started,noise_LR.started,noise_LL.started,roi_2.stopped,grating_UR.stopped,grating_UL.stopped,grating_LR.stopped,grating_LL.stopped,noise_UR.stopped,noise_UL.stopped,noise_LR.stopped,noise_LL.stopped,outframe,roi_2.numLooks,roi_2.timesOn,roi_2.timesOff,text_2.started,text_2.stopped,probedcontrast,key_resp.started,respdetect,relevantContrast,correctDetect,TorFdetect,respCWorCCW,key_resp.keys,key_resp.rt,feedback_display_.started,participantNo,blockNo,date,expName,psychopyVersion,frameRate,
1000,1,0.0,0.0,0,0,0,0,45,5.2799994591623545e-05,5.2799994591623545e-05,56.589513599989004,58.5941460999893,58.5941460999893,59.22742029998335,59.22742029998335,59.74622470000759,45,315,59.74622470000759,59.74622470000759,59.74622470000759,59.74622470000759,59.74622470000759,59.74622470000759,59.74622470000759,59.74622470000759,59.74622470000759,60.094988299999386,60.094988299999386,60.094988299999386,60.094988299999386,60.094988299999386,60.094988299999386,60.094988299999386,60.094988299999386,60.094988299999386,0,1,[0.0009064000041689724],[0.3672018999932334],60.094988299999386,60.30252909997944,1000,60.30252909997944,1000,1000,1000,1000,0,num_3,1.36983730000793,,21,13,2026-03-02_18h22.05.267,2026A_exp2,2022.2.4,59.93410843832533,
1,0,0.0,6.1,1,0,1,1,19,,,,,61.69677079998655,62.347100099985255,62.347100099985255,62.83160089998273,45,45,62.83160089998273,62.83160089998273,62.83160089998273,62.83160089998273,62.83160089998273,62.83160089998273,62.83160089998273,62.83160089998273,62.83160089998273,63.19810489998781,63.19810489998781,63.19810489998781,63.19810489998781,63.19810489998781,63.19810489998781,63.19810489998781,63.19810489998781,63.19810489998781,0,1,[0.001248600019607693],[0.3671770000073593],63.19810489998781,63.39824569999473,6.1,63.39824569999473,1,6.1,1,1,1000,num_4,0.857967899995856,,21,13,2026-03-02_18h22.05.267,2026A_exp2,2022.2.4,59.93410843832533,
1000,1,0.0,3.7,0,0,2,2,63,,,,,64.28249979999964,64.93316859999322,64.93316859999322,65.41756639999221,45,315,65.41756639999221,65.41756639999221,65.41756639999221,65.41756639999221,65.41756639999221,65.41756639999221,65.41756639999221,65.41756639999221,65.41756639999221,65.78388219999033,65.78388219999033,65.78388219999033,65.78388219999033,65.78388219999033,65.78388219999033,65.78388219999033,65.78388219999033,65.78388219999033,0,1,[0.0012289999867789447],[0.3669250999810174],65.78388219999033,65.98580039999797,1000,65.98580039999797,1000,1000,1000,1000,1,num_2,0.7587531000026502,,21,13,2026-03-02_18h22.05.267,2026A_exp2,2022.2.4,59.93410843832533,
1000,1,0.0,3.7,0,0,3,3,21,,,,,66.76845549998689,67.41898550000042,67.41898550000042,67.92010570000275,315,315,67.92010570000275,67.92010570000275,67.92010570000275,67.92010570000275,67.92010570000275,67.92010570000275,67.92010570000275,67.92010570000275,67.92010570000275,68.2699565999792,68.2699565999792,68.2699565999792,68.2699565999792,68.2699565999792,68.2699565999792,68.2699565999792,68.2699565999792,68.2699565999792,0,1,[0.0012027000193484128],[0.35030779999215156],68.2699565999792,68.47162769999704,1000,68.47162769999704,1000,1000,1000,1000,1,num_2,0.9612970000016503,,21,13,2026-03-02_18h22.05.267,2026A_exp2,2022.2.4,59.93410843832533,
1,0,3.7,0.0,0,0,4,4,10,,,,,69.45444460000726,70.10497099999338,70.10497099999338,70.60619479999878,45,45,70.60619479999878,70.60619479999878,70.60619479999878,70.60619479999878,70.60619479999878,70.60619479999878,70.60619479999878,70.60619479999878,70.60619479999878,70.97257680000621,70.97257680000621,70.97257680000621,70.97257680000621,70.97257680000621,70.97257680000621,70.97257680000621,70.97257680000621,70.97257680000621,0,1,[0.0011978000111412257],[0.367136400018353],70.97257680000621,71.17254189998494,3.7,71.17254189998494,1,3.7,1,1,1000,num_4,1.2352278000034858,,21,13,2026-03-02_18h22.05.267,2026A_exp2,2022.2.4,59.93410843832533,
1000,1,0.0,3.7,0,0,5,5,23,,,,,72.42396569999983,73.07461619999958,73.07461619999958,73.5589393999835,315,45,73.5589393999835,73.5589393999835,73.5589393999835,73.5589393999835,73.5589393999835,73.5589393999835,73.5589393999835,73.5589393999835,73.5589393999835,73.92550179999671,73.92550179999671,73.92550179999671,73.92550179999671,73.92550179999671,73.92550179999671,73.92550179999671,73.92550179999671,73.92550179999671,0,1,[0.0012172000133432448],[0.3671411999966949],73.92550179999671,74.1274741999805,1000,74.1274741999805,1000,1000,1000,1000,1,num_2,0.5846282000129577,,21,13,2026-03-02_18h22.05.267,2026A_exp2,2022.2.4,59.93410843832533,
1000,1,0.0,0.0,1,0,6,6,29,,,,,74.7428413000016,75.39359729998978,75.39359729998978,75.89472339997883,315,315,75.89472339997883,75.89472339997883,75.89472339997883,75.89472339997883,75.89472339997883,75.89472339997883,75.89472339997883,75.89472339997883,75.89472339997883,76.2610664999811,76.2610664999811,76.2610664999811,76.2610664999811,76.2610664999811,76.2610664999811,76.2610664999811,76.2610664999811,76.2610664999811,0,1,[0.0012089000083506107],[0.36731229998986237],76.2610664999811,76.46344409999438,1000,76.46344409999438,1000,1000,1000,1000,1,num_2,1.0886395999987144,,21,13,2026-03-02_18h22.05.267,2026A_exp2,2022.2.4,59.93410843832533,
0,0,3.7,0.0,1,0,7,7,1,,,,,77.57899369997904,78.22995109998737,78.22995109998737,78.73093200000585,315,45,78.73093200000585,78.73093200000585,78.73093200000585,78.73093200000585,78.73093200000585,78.73093200000585,78.73093200000585,78.73093200000585,78.73093200000585,79.08025780000025,79.08025780000025,79.08025780000025,79.08025780000025,79.08025780000025,79.08025780000025,79.08025780000025,79.08025780000025,79.08025780000025,0,1,[0.001211800001328811],[0.35066970001207665],79.08025780000025,79.28070979999029,3.7,79.28070979999029,0,3.7,1,0,1000,num_1,0.7838145999994595,,21,13,2026-03-02_18h22.05.267,2026A_exp2,2022.2.4,59.93410843832533,
0,0,0.0,0.0,1,0,8,8,44,,,,,80.08153789999778,80.73237939999672,80.73237939999672,81.21667930000694,45,45,81.21667930000694,81.21667930000694,81.21667930000694,81.21667930000694,81.21667930000694,81.21667930000694,81.21667930000694,81.21667930000694,81.21667930000694,81.58314400000381,81.58314400000381,81.58314400000381,81.58314400000381,81.58314400000381,81.58314400000381,81.58314400000381,81.58314400000381,81.58314400000381,0,1,[0.0013261999993119389],[0.3673373000056017],81.58314400000381,81.78330909999204,0.0,81.78330909999204,0,0.0,0,1,1000,num_1,0.4409581999934744,,21,13,2026-03-02_18h22.05.267,2026A_exp2,2022.2.4,59.93410843832533,
1000,1,4.9,0.0,0,0,9,9,50,,,,,82.2503533999843,82.9010244999954,82.9010244999954,83.38547710000421,45,45,83.38547710000421,83.38547710000421,83.38547710000421,83.38547710000421,83.38547710000421,83.38547710000421,83.38547710000421,83.38547710000421,83.38547710000421,83.75195669999812,83.75195669999812,83.75195669999812,83.75195669999812,83.75195669999812,83.75195669999812,83.75195669999812,83.75195669999812,83.75195669999812,0,1,[0.0012066000199411064],[0.36705200001597404],83.75195669999812,83.95382289998815,1000,83.95382289998815,1000,1000,1000,1000,0,num_3,0.5428602999891154,,21,13,2026-03-02_18h22.05.267,2026A_exp2,2022.2.4,59.93410843832533,
1,0,0.0,0.0,1,0,10,10,38,,,,,84.51933159999317,85.17005270000664,85.17005270000664,85.67111359999399,315,45,85.67111359999399,85.67111359999399,85.67111359999399,85.67111359999399,85.67111359999399,85.67111359999399,85.67111359999399,85.67111359999399,85.67111359999399,86.03760700000566,86.03760700000566,86.03760700000566,86.03760700000566,86.03760700000566,86.03760700000566,86.03760700000566,86.03760700000566,86.03760700000566,1,1,[0.001212700008181855],[0.36733590002404526],86.03760700000566,86.23772699999972,0.0,86.23772699999972,0,0.0,0,1,1000,num_1,0.4178290999843739,,21,13,2026-03-02_18h22.05.267,2026A_exp2,2022.2.4,59.93410843832533,
1,0,4.9,4.9,1,0,11,11,9,,,,,86.67150789999869,87.32223769999109,87.32223769999109,87.80671869998332,315,45,87.80671869998332,87.80671869998332,87.80671869998332,87.80671869998332,87.80671869998332,87.80671869998332,87.80671869998332,87.80671869998332,87.80671869998332,88.17303939998965,88.17303939998965,88.17303939998965,88.17303939998965,88.17303939998965,88.17303939998965,88.17303939998965,88.17303939998965,88.17303939998965,0,1,[0.0013222999987192452],[0.3670980999886524],88.17303939998965,88.37339309998788,4.9,88.37339309998788,1,4.9,1,1,1000,num_4,0.411693700007163,,21,13,2026-03-02_18h22.05.267,2026A_exp2,2022.2.4,59.93410843832533,
1,0,6.1,6.1,1,0,12,12,47,,,,,88.80708999998751,89.45773779999581,89.45773779999581,89.9421505999926,315,45,89.9421505999926,89.9421505999926,89.9421505999926,89.9421505999926,89.9421505999926,89.9421505999926,89.9421505999926,89.9421505999926,89.9421505999926,90.3085601000057,90.3085601000057,90.3085601000057,90.3085601000057,90.3085601000057,90.3085601000057,90.3085601000057,90.3085601000057,90.3085601000057,0,1,[0.001227899978403002],[0.36722569999983534],90.3085601000057,90.50876269998844,6.1,90.50876269998844,1,6.1,1,1,1000,num_4,0.7070599000144284,,21,13,2026-03-02_18h22.05.267,2026A_exp2,2022.2.4,59.93410843832533,
1000,1,3.7,6.1,0,0,13,13,60,,,,,91.24271449999651,91.89346429999568,91.89346429999568,92.3779424999957,315,45,92.3779424999957,92.3779424999957,92.3779424999957,92.3779424999957,92.3779424999957,92.3779424999957,92.3779424999957,92.3779424999957,92.3779424999957,92.74421089998214,92.74421089998214,92.74421089998214,92.74421089998214,92.74421089998214,92.74421089998214,92.74421089998214,92.74421089998214,92.74421089998214,0,1,[0.0012052999809384346],[0.3670118000009097],92.74421089998214,92.94638670000131,1000,92.94638670000131,1000,1000,1000,1000,0,num_3,0.9255240999918897,,21,13,2026-03-02_18h22.05.267,2026A_exp2,2022.2.4,59.93410843832533,
1,0,6.1,0.0,0,0,14,14,85,,,,,93.89542089999304,94.54613909998443,94.54613909998443,95.04719280000427,315,315,95.04719280000427,95.04719280000427,95.04719280000427,95.04719280000427,95.04719280000427,95.04719280000427,95.04719280000427,95.04719280000427,95.04719280000427,95.41368379999767,95.41368379999767,95.41368379999767,95.41368379999767,95.41368379999767,95.41368379999767,95.41368379999767,95.41368379999767,95.41368379999767,20,2,"[0.0502697000047192, 0.3504294999875128]","[0.06682649999856949, 0.3672276999859605]",95.41368379999767,95.61392979999073,6.1,95.61392979999073,1,6.1,1,1,1000,num_4,0.4664627999882214,,21,13,2026-03-02_18h22.05.267,2026A_exp2,2022.2.4,59.93410843832533,
1000,1,0.0,4.9,1,0,15,15,37,,,,,96.09751009999309,96.74808709998615,96.74808709998615,97.23233020000043,315,45,97.23233020000043,97.23233020000043,97.23233020000043,97.23233020000043,97.23233020000043,97.23233020000043,97.23233020000043,97.23233020000043,97.23233020000043,97.59917020000285,97.59917020000285,97.59917020000285,97.59917020000285,97.59917020000285,97.59917020000285,97.59917020000285,97.59917020000285,97.59917020000285,0,1,[0.0006946000212337822],[0.36771620000945404],97.59917020000285,97.80121559998952,1000,97.80121559998952,1000,1000,1000,1000,1,num_2,0.6154647000075784,,21,13,2026-03-02_18h22.05.267,2026A_exp2,2022.2.4,59.93410843832533,
1000,1,6.1,0.0,0,0,16,16,27,,,,,98.43325000000186,99.08394300000509,99.08394300000509,99.59793339998578,315,45,99.59793339998578,99.59793339998578,99.59793339998578,99.59793339998578,99.59793339998578,99.59793339998578,99.59793339998578,99.59793339998578,99.59793339998578,99.95165499998257,99.95165499998257,99.95165499998257,99.95165499998257,99.95165499998257,99.95165499998257,99.95165499998257,99.95165499998257,99.95165499998257,20,2,"[0.003910900006303564, 0.3328136999916751]","[0.047121499985223636, 0.3492221999913454]",99.95165499998257,100.16313410000294,1000,100.16313410000294,1000,1000,1000,1000,0,num_3,1.077273700007936,,21,13,2026-03-02_18h22.05.267,2026A_exp2,2022.2.4,59.93410843832533,
1000,1,6.1,0.0,0,0,17,17,58,,,,,101.26948089999496,101.92035489997943,101.92035489997943,102.42132349999156,315,315,102.42132349999156,102.42132349999156,102.42132349999156,102.42132349999156,102.42132349999156,102.42132349999156,102.42132349999156,102.42132349999156,102.42132349999156,102.78768340000533,102.78768340000533,102.78768340000533,102.78768340000533,102.78768340000533,102.78768340000533,102.78768340000533,102.78768340000533,102.78768340000533,0,1,[0.001435799989849329],[0.3672427000128664],102.78768340000533,102.98794950000593,1000,102.98794950000593,1000,1000,1000,1000,0,num_3,0.41229969999403693,,21,13,2026-03-02_18h22.05.267,2026A_exp2,2022.2.4,59.93410843832533,
1000,1,0.0,4.9,0,0,18,18,8,,,,,103.42155699999421,104.07232809998095,104.07232809998095,104.56224269999075,315,315,104.56224269999075,104.56224269999075,104.56224269999075,104.56224269999075,104.56224269999075,104.56224269999075,104.56224269999075,104.56224269999075,104.56224269999075,104.9232050999999,104.9232050999999,104.9232050999999,104.9232050999999,104.9232050999999,104.9232050999999,104.9232050999999,104.9232050999999,104.9232050999999,0,1,[0.0025436000141780823],[0.3669207000057213],104.9232050999999,105.1249484999862,1000,105.13995499999146,1000,1000,1000,1000,1,num_2,0.724901299981866,,21,13,2026-03-02_18h22.05.267,2026A_exp2,2022.2.4,59.93410843832533,
1,0,0.0,0.0,1,0,19,19,33,,,,,105.89075789999333,106.52460770000471,106.52460770000471,107.04230579998693,45,315,107.04230579998693,107.04230579998693,107.04230579998693,107.04230579998693,107.04230579998693,107.04230579998693,107.04230579998693,107.04230579998693,107.04230579998693,107.40886090000276,107.40886090000276,107.40886090000276,107.40886090000276,107.40886090000276,107.40886090000276,107.40886090000276,107.40886090000276,107.40886090000276,0,1,[0.0012326999858487397],[0.36661450000246987],107.40886090000276,107.60903880000114,0.0,107.60903880000114,0,0.0,0,1,1000,num_1,0.36659739998867735,,21,13,2026-03-02_18h22.05.267,2026A_exp2,2022.2.4,59.93410843832533,
1,0,4.9,6.1,0,0,20,20,82,,,,,107.99269689997891,108.64357670000754,108.64357670000754,109.12800929998048,45,315,109.12800929998048,109.12800929998048,109.12800929998048,109.12800929998048,109.12800929998048,109.12800929998048,109.12800929998048,109.12800929998048,109.12800929998048,109.49441640000441,109.49441640000441,109.49441640000441,109.49441640000441,109.49441640000441,109.49441640000441,109.49441640000441,109.49441640000441,109.49441640000441,11,2,"[0.0012049000069964677, 0.09999429999152198]","[0.03326620001462288, 0.26684820000082254]",109.49441640000441,109.69464840000728,4.9,109.69464840000728,1,4.9,1,1,1000,num_4,0.9222045999777038,,21,13,2026-03-02_18h22.05.267,2026A_exp2,2022.2.4,59.93410843832533,
1000,1,0.0,0.0,1,0,21,21,56,,,,,110.64539879999938,111.29634380000061,111.29634380000061,111.78052899998147,45,45,111.78052899998147,111.78052899998147,111.78052899998147,111.78052899998147,111.78052899998147,111.78052899998147,111.78052899998147,111.78052899998147,111.78052899998147,112.14702609999222,112.14702609999222,112.14702609999222,112.14702609999222,112.14702609999222,112.14702609999222,112.14702609999222,112.14702609999222,112.14702609999222,0,1,[0.0012318000080995262],[0.3673982000036631],112.14702609999222,112.34918379998999,1000,112.34918379998999,1000,1000,1000,1000,0,num_3,0.7071862999873701,,21,13,2026-03-02_18h22.05.267,2026A_exp2,2022.2.4,59.93410843832533,
0,0,6.1,0.0,1,0,22,22,52,,,,,113.0811948000046,113.73195709998254,113.73195709998254,114.23305069998605,45,45,114.23305069998605,114.23305069998605,114.23305069998605,114.23305069998605,114.23305069998605,114.23305069998605,114.23305069998605,114.23305069998605,114.23305069998605,114.59953700000187,114.59953700000187,114.59953700000187,114.59953700000187,114.59953700000187,114.59953700000187,114.59953700000187,114.59953700000187,114.59953700000187,0,1,[0.001279499992961064],[0.36707720000413246],114.59953700000187,114.79974779998884,6.1,114.79974779998884,1,6.1,1,1,1000,num_4,0.6882645000005141,,21,13,2026-03-02_18h22.05.267,2026A_exp2,2022.2.4,59.93410843832533,
1000,1,4.9,3.7,0,0,23,23,28,,,,,115.51702430000296,116.1677922999952,116.1677922999952,116.65218969999114,315,315,116.65218969999114,116.65218969999114,116.65218969999114,116.65218969999114,116.65218969999114,116.65218969999114,116.65218969999114,116.65218969999114,116.65218969999114,117.0186882999842,117.0186882999842,117.0186882999842,117.0186882999842,117.0186882999842,117.0186882999842,117.0186882999842,117.0186882999842,117.0186882999842,0,1,[0.0012227999977767467],[0.36718559998553246],117.0186882999842,117.22052249999251,1000,117.22052249999251,1000,1000,1000,1000,0,num_3,0.5558329000195954,,21,13,2026-03-02_18h22.05.267,2026A_exp2,2022.2.4,59.93410843832533,
0,0,6.1,3.7,0,0,24,24,49,,,,,117.80247120000422,118.45350829997915,118.45350829997915,118.95447050000075,45,45,118.95447050000075,118.95447050000075,118.95447050000075,118.95447050000075,118.95447050000075,118.95447050000075,118.95447050000075,118.95447050000075,118.95447050000075,119.32087409999804,119.32087409999804,119.32087409999804,119.32087409999804,119.32087409999804,119.32087409999804,119.32087409999804,119.32087409999804,119.32087409999804,0,1,[0.0012283000105526298],[0.3672752999991644],119.32087409999804,119.52109189998009,3.7,119.52109189998009,0,3.7,1,0,1000,num_1,0.5512134999735281,,21,13,2026-03-02_18h22.05.267,2026A_exp2,2022.2.4,59.93410843832533,
1000,1,3.7,4.9,1,0,25,25,71,,,,,120.08856489998288,120.7389484999876,120.7389484999876,121.239918199979,315,315,121.239918199979,121.239918199979,121.239918199979,121.239918199979,121.239918199979,121.239918199979,121.239918199979,121.239918199979,121.239918199979,121.58954929999891,121.58954929999891,121.58954929999891,121.58954929999891,121.58954929999891,121.58954929999891,121.58954929999891,121.58954929999891,121.58954929999891,0,1,[0.0011494999926071614],[0.3505107999953907],121.58954929999891,121.79195429998799,1000,121.80655219999608,1000,1000,1000,1000,0,num_3,1.5624600000155624,,21,13,2026-03-02_18h22.05.267,2026A_exp2,2022.2.4,59.93410843832533,
1,0,4.9,0.0,1,0,26,26,34,,,,,123.39156509999884,124.04214849998243,124.04214849998243,124.54329659999348,45,45,124.54329659999348,124.54329659999348,124.54329659999348,124.54329659999348,124.54329659999348,124.54329659999348,124.54329659999348,124.54329659999348,124.54329659999348,124.90985110000474,124.90985110000474,124.90985110000474,124.90985110000474,124.90985110000474,124.90985110000474,124.90985110000474,124.90985110000474,124.90985110000474,0,1,[0.0012094000121578574],[0.36735919999773614],124.90985110000474,125.11001790000591,0.0,125.11001790000591,0,0.0,0,1,1000,num_1,0.6897676000080537,,21,13,2026-03-02_18h22.05.267,2026A_exp2,2022.2.4,59.93410843832533,
1,0,0.0,4.9,0,0,27,27,70,,,,,125.82728409999982,126.47803509997902,126.47803509997902,126.96251009998377,45,315,126.96251009998377,126.96251009998377,126.96251009998377,126.96251009998377,126.96251009998377,126.96251009998377,126.96251009998377,126.96251009998377,126.96251009998377,127.32872590000625,127.32872590000625,127.32872590000625,127.32872590000625,127.32872590000625,127.32872590000625,127.32872590000625,127.32872590000625,127.32872590000625,14,4,"[0.017440399999031797, 0.08351709999260493, 0.1168805000197608, 0.15034059999743477]","[0.0669560999958776, 0.10028090002015233, 0.1336423000029754, 0.2169718999939505]",127.32872590000625,127.52893460000632,0.0,127.52893460000632,0,0.0,0,1,1000,num_1,0.5352857999969274,,21,13,2026-03-02_18h22.05.267,2026A_exp2,2022.2.4,59.93410843832533,
1,0,3.7,0.0,0,0,28,28,26,,,,,128.0963996000064,128.73025439999765,128.73025439999765,129.23144040000625,45,45,129.23144040000625,129.23144040000625,129.23144040000625,129.23144040000625,129.23144040000625,129.23144040000625,129.23144040000625,129.23144040000625,129.23144040000625,129.59792749999906,129.59792749999906,129.59792749999906,129.59792749999906,129.59792749999906,129.59792749999906,129.59792749999906,129.59792749999906,129.59792749999906,22,1,[0.01734819999546744],[0.03351259999908507],129.59792749999906,129.7979080999794,3.7,129.7979080999794,1,3.7,1,1,1000,num_4,0.3536817999847699,,21,13,2026-03-02_18h22.05.267,2026A_exp2,2022.2.4,59.93410843832533,
1000,1,0.0,0.0,1,0,29,29,2,,,,,130.1817192999879,130.83225939999102,130.83225939999102,131.31666660000337,45,45,131.31666660000337,131.31666660000337,131.31666660000337,131.31666660000337,131.31666660000337,131.31666660000337,131.31666660000337,131.31666660000337,131.31666660000337,131.68323339999188,131.68323339999188,131.68323339999188,131.68323339999188,131.68323339999188,131.68323339999188,131.68323339999188,131.68323339999188,131.68323339999188,2,3,"[0.0007469999836757779, 0.0667319999774918, 0.25095439999131486]","[0.05108739997376688, 0.2341778999834787, 0.3675580999988597]",131.68323339999188,131.88416479999432,1000,131.88416479999432,1000,1000,1000,1000,0,num_3,0.7638860000006389,,21,13,2026-03-02_18h22.05.267,2026A_exp2,2022.2.4,59.93410843832533,
1,0,3.7,6.1,1,0,30,30,68,,,,,132.66744359998847,133.31812429998536,133.31812429998536,133.81918309998582,315,315,133.81918309998582,133.81918309998582,133.81918309998582,133.81918309998582,133.81918309998582,133.81918309998582,133.81918309998582,133.81918309998582,133.81918309998582,134.16913279998698,134.16913279998698,134.16913279998698,134.16913279998698,134.16913279998698,134.16913279998698,134.16913279998698,134.16913279998698,134.16913279998698,0,1,[0.0012367000163067132],[0.3504728999978397],134.16913279998698,134.36921889998484,6.1,134.38580289998208,1,6.1,1,1,1000,num_4,0.5592872999841347,,21,13,2026-03-02_18h22.05.267,2026A_exp2,2022.2.4,59.93410843832533,
1000,1,6.1,3.7,1,0,31,31,11,,,,,134.9697038999875,135.62056579999626,135.62056579999626,136.10503839998273,315,315,136.10503839998273,136.10503839998273,136.10503839998273,136.10503839998273,136.10503839998273,136.10503839998273,136.10503839998273,136.10503839998273,136.10503839998273,136.47129709998262,136.47129709998262,136.47129709998262,136.47129709998262,136.47129709998262,136.47129709998262,136.47129709998262,136.47129709998262,136.47129709998262,23,0,,,136.47129709998262,136.6733983999875,1000,136.6733983999875,1000,1000,1000,1000,0,num_3,0.6953783000062685,,21,13,2026-03-02_18h22.05.267,2026A_exp2,2022.2.4,59.93410843832533,
1000,1,0.0,0.0,1,0,32,32,55,,,,,137.38937399999122,138.03964999999152,138.03964999999152,138.52392859998508,315,45,138.52392859998508,138.52392859998508,138.52392859998508,138.52392859998508,138.52392859998508,138.52392859998508,138.52392859998508,138.52392859998508,138.52392859998508,138.890338600002,138.890338600002,138.890338600002,138.890338600002,138.890338600002,138.890338600002,138.890338600002,138.890338600002,138.890338600002,23,0,,,138.890338600002,139.09266319999006,1000,139.09266319999006,1000,1000,1000,1000,1,num_2,1.050992700009374,,21,13,2026-03-02_18h22.05.267,2026A_exp2,2022.2.4,59.93410843832533,
0,0,3.7,0.0,0,0,33,33,18,,,,,140.1751016000053,140.82566370000131,140.82566370000131,141.32690240000375,315,315,141.32690240000375,141.32690240000375,141.32690240000375,141.32690240000375,141.32690240000375,141.32690240000375,141.32690240000375,141.32690240000375,141.32690240000375,141.6765802000009,141.6765802000009,141.6765802000009,141.6765802000009,141.6765802000009,141.6765802000009,141.6765802000009,141.6765802000009,141.6765802000009,16,1,[0.2672489999968093],[0.3505719999957364],141.6765802000009,141.8767142999859,0.0,141.8767142999859,0,0.0,0,1,1000,num_1,0.5870706000132486,,21,13,2026-03-02_18h22.05.267,2026A_exp2,2022.2.4,59.93410843832533,
1000,1,0.0,3.7,1,0,34,34,4,,,,,142.49391930000274,143.14474849999533,143.14474849999533,143.6292373999895,45,45,143.6292373999895,143.6292373999895,143.6292373999895,143.6292373999895,143.6292373999895,143.6292373999895,143.6292373999895,143.6292373999895,143.6292373999895,143.99529329998768,143.99529329998768,143.99529329998768,143.99529329998768,143.99529329998768,143.99529329998768,143.99529329998768,143.99529329998768,143.99529329998768,23,0,,,143.99529329998768,144.1979333999916,1000,144.1979333999916,1000,1000,1000,1000,1,num_2,0.5062506999820471,,21,13,2026-03-02_18h22.05.267,2026A_exp2,2022.2.4,59.93410843832533,
1000,1,0.0,3.7,0,0,35,35,43,,,,,144.7295427999925,145.3803801999893,145.3803801999893,145.8812109999999,45,315,145.8812109999999,145.8812109999999,145.8812109999999,145.8812109999999,145.8812109999999,145.8812109999999,145.8812109999999,145.8812109999999,145.8812109999999,146.2478168999951,146.2478168999951,146.2478168999951,146.2478168999951,146.2478168999951,146.2478168999951,146.2478168999951,146.2478168999951,146.2478168999951,23,0,,,146.2478168999951,146.44811379999737,1000,146.44811379999737,1000,1000,1000,1000,1,num_2,0.4568400999996811,,21,13,2026-03-02_18h22.05.267,2026A_exp2,2022.2.4,59.93410843832533,
1000,1,0.0,0.0,1,0,36,36,3,,,,,146.9317202999955,147.58236020000186,147.58236020000186,148.0834024999931,45,315,148.0834024999931,148.0834024999931,148.0834024999931,148.0834024999931,148.0834024999931,148.0834024999931,148.0834024999931,148.0834024999931,148.0834024999931,148.44972929998767,148.44972929998767,148.44972929998767,148.44972929998767,148.44972929998767,148.44972929998767,148.44972929998767,148.44972929998767,148.44972929998767,23,0,,,148.44972929998767,148.65213800000492,1000,148.65213800000492,1000,1000,1000,1000,1,num_2,0.9156846000114456,,21,13,2026-03-02_18h22.05.267,2026A_exp2,2022.2.4,59.93410843832533,
1000,1,4.9,6.1,1,0,37,37,5,,,,,149.58458339999197,150.23522299999604,150.23522299999604,150.7361381999799,45,315,150.7361381999799,150.7361381999799,150.7361381999799,150.7361381999799,150.7361381999799,150.7361381999799,150.7361381999799,150.7361381999799,150.7361381999799,151.10265099999378,151.10265099999378,151.10265099999378,151.10265099999378,151.10265099999378,151.10265099999378,151.10265099999378,151.10265099999378,151.10265099999378,23,0,,,151.10265099999378,151.30453239998315,1000,151.30453239998315,1000,1000,1000,1000,0,num_3,0.4723711999831721,,21,13,2026-03-02_18h22.05.267,2026A_exp2,2022.2.4,59.93410843832533,
1,0,0.0,4.9,1,0,38,38,54,,,,,151.8032733,152.45396049998817,152.45396049998817,152.95518540000194,45,315,152.95518540000194,152.95518540000194,152.95518540000194,152.95518540000194,152.95518540000194,152.95518540000194,152.95518540000194,152.95518540000194,152.95518540000194,153.3212464999815,153.3212464999815,153.3212464999815,153.3212464999815,153.3212464999815,153.3212464999815,153.3212464999815,153.3212464999815,153.3212464999815,23,0,,,153.3212464999815,153.53240249998635,4.9,153.53240249998635,1,4.9,1,1,1000,num_4,0.8913555000035558,,21,13,2026-03-02_18h22.05.267,2026A_exp2,2022.2.4,59.93410843832533,
1000,1,0.0,3.7,0,0,39,39,76,,,,,154.43930890000775,155.09195219998946,155.09195219998946,155.59576460000244,315,315,155.59576460000244,155.59576460000244,155.59576460000244,155.59576460000244,155.59576460000244,155.59576460000244,155.59576460000244,155.59576460000244,155.59576460000244,155.95740169999772,155.95740169999772,155.95740169999772,155.95740169999772,155.95740169999772,155.95740169999772,155.95740169999772,155.95740169999772,155.95740169999772,23,0,,,155.95740169999772,156.16310189999058,1000,156.16310189999058,1000,1000,1000,1000,0,num_3,1.3886926000122912,,21,13,2026-03-02_18h22.05.267,2026A_exp2,2022.2.4,59.93410843832533,
1000,1,0.0,0.0,0,0,40,40,62,,,,,157.5757115999877,158.22632489999523,158.22632489999523,158.7274952000007,45,45,158.7274952000007,158.7274952000007,158.7274952000007,158.7274952000007,158.7274952000007,158.7274952000007,158.7274952000007,158.7274952000007,158.7274952000007,159.09398159998818,159.09398159998818,159.09398159998818,159.09398159998818,159.09398159998818,159.09398159998818,159.09398159998818,159.09398159998818,159.09398159998818,23,0,,,159.09398159998818,159.2960538000043,1000,159.2960538000043,1000,1000,1000,1000,1,num_2,1.1367972000152804,,21,13,2026-03-02_18h22.05.267,2026A_exp2,2022.2.4,59.93410843832533,
1,0,0.0,0.0,1,0,41,41,6,,,,,160.46183069999097,161.11272049997933,161.11272049997933,161.61371710000094,315,315,161.61371710000094,161.61371710000094,161.61371710000094,161.61371710000094,161.61371710000094,161.61371710000094,161.61371710000094,161.61371710000094,161.61371710000094,161.9801787000033,161.9801787000033,161.9801787000033,161.9801787000033,161.9801787000033,161.9801787000033,161.9801787000033,161.9801787000033,161.9801787000033,23,0,,,161.9801787000033,162.18032399998629,0.0,162.18032399998629,0,0.0,0,1,1000,num_1,0.379795999993803,,21,13,2026-03-02_18h22.05.267,2026A_exp2,2022.2.4,59.93410843832533,
0,0,4.9,0.0,0,0,42,42,84,,,,,162.58063779998338,163.2314733999956,163.2314733999956,163.71593949999078,315,315,163.71593949999078,163.71593949999078,163.71593949999078,163.71593949999078,163.71593949999078,163.71593949999078,163.71593949999078,163.71593949999078,163.71593949999078,164.08232079999289,164.08232079999289,164.08232079999289,164.08232079999289,164.08232079999289,164.08232079999289,164.08232079999289,164.08232079999289,164.08232079999289,23,0,,,164.08232079999289,164.28247269999702,0.0,164.28247269999702,0,0.0,0,1,1000,num_1,0.5574630000046454,,21,13,2026-03-02_18h22.05.267,2026A_exp2,2022.2.4,59.93410843832533,
1,0,0.0,6.1,1,0,43,43,46,,,,,164.8662420999899,165.51712309999857,165.51712309999857,166.00141149997944,45,315,166.00141149997944,166.00141149997944,166.00141149997944,166.00141149997944,166.00141149997944,166.00141149997944,166.00141149997944,166.00141149997944,166.00141149997944,166.3676477999834,166.3676477999834,166.3676477999834,166.3676477999834,166.3676477999834,166.3676477999834,166.3676477999834,166.3676477999834,166.3676477999834,1,2,"[0.0011952999921049923, 0.2669459999888204]","[0.25034060000325553, 0.36665650000213645]",166.3676477999834,166.56784030000563,6.1,166.56784030000563,1,6.1,1,1,1000,num_4,0.616372099990258,,21,13,2026-03-02_18h22.05.267,2026A_exp2,2022.2.4,59.93410843832533,
1000,1,3.7,0.0,0,0,44,44,39,,,,,167.20203719998244,167.8361876999843,167.8361876999843,168.3371186000004,45,45,168.3371186000004,168.3371186000004,168.3371186000004,168.3371186000004,168.3371186000004,168.3371186000004,168.3371186000004,168.3371186000004,168.3371186000004,168.70505570000387,168.70505570000387,168.70505570000387,168.70505570000387,168.70505570000387,168.70505570000387,168.70505570000387,168.70505570000387,168.70505570000387,23,0,,,168.70505570000387,,1000,168.92065309997997,1000,1000,1000,1000,0,num_3,0.5271704000188038,,21,13,2026-03-02_18h22.05.267,2026A_exp2,2022.2.4,59.93410843832533,
1000,1,0.0,0.0,1,0,45,45,73,,,,,169.47082170000067,170.12126049998915,170.12126049998915,170.60581629999797,315,315,170.60581629999797,170.60581629999797,170.60581629999797,170.60581629999797,170.60581629999797,170.60581629999797,170.60581629999797,170.60581629999797,170.60581629999797,170.97209799999837,170.97209799999837,170.97209799999837,170.97209799999837,170.97209799999837,170.97209799999837,170.97209799999837,170.97209799999837,170.97209799999837,23,0,,,170.97209799999837,171.1725075999857,1000,171.1725075999857,1000,1000,1000,1000,0,num_3,1.0990116000175476,,21,13,2026-03-02_18h22.05.267,2026A_exp2,2022.2.4,59.93410843832533,
1000,1,6.1,4.9,0,0,46,46,51,,,,,172.29034669999965,172.94130529998802,172.94130529998802,173.4421277999936,45,315,173.4421277999936,173.4421277999936,173.4421277999936,173.4421277999936,173.4421277999936,173.4421277999936,173.4421277999936,173.4421277999936,173.4421277999936,173.8086089999997,173.8086089999997,173.8086089999997,173.8086089999997,173.8086089999997,173.8086089999997,173.8086089999997,173.8086089999997,173.8086089999997,23,0,,,173.8086089999997,174.0106453000044,1000,174.0106453000044,1000,1000,1000,1000,0,num_3,0.549462199996924,,21,13,2026-03-02_18h22.05.267,2026A_exp2,2022.2.4,59.93410843832533,
1000,1,0.0,6.1,1,0,47,47,13,,,,,174.57600259999163,175.22669529999257,175.22669529999257,175.71125500000198,45,45,175.71125500000198,175.71125500000198,175.71125500000198,175.71125500000198,175.71125500000198,175.71125500000198,175.71125500000198,175.71125500000198,175.71125500000198,176.0776748000062,176.0776748000062,176.0776748000062,176.0776748000062,176.0776748000062,176.0776748000062,176.0776748000062,176.0776748000062,176.0776748000062,23,0,,,176.0776748000062,176.27964729999076,1000,176.27964729999076,1000,1000,1000,1000,1,num_2,0.4891897999914363,,21,13,2026-03-02_18h22.05.267,2026A_exp2,2022.2.4,59.93410843832533,
1000,1,0.0,0.0,0,0,48,48,64,,,,,176.7949425999832,177.44572789999074,177.44572789999074,177.94669089998933,315,315,177.94669089998933,177.94669089998933,177.94669089998933,177.94669089998933,177.94669089998933,177.94669089998933,177.94669089998933,177.94669089998933,177.94669089998933,178.31330039998284,178.31330039998284,178.31330039998284,178.31330039998284,178.31330039998284,178.31330039998284,178.31330039998284,178.31330039998284,178.31330039998284,23,0,,,178.31330039998284,178.5151424999931,1000,178.5151424999931,1000,1000,1000,1000,1,num_2,1.5252932000148576,,21,13,2026-03-02_18h22.05.267,2026A_exp2,2022.2.4,59.93410843832533,
1,0,0.0,6.1,0,0,49,49,24,,,,,180.0649046000035,180.71567619999405,180.71567619999405,181.21673600000213,315,315,181.21673600000213,181.21673600000213,181.21673600000213,181.21673600000213,181.21673600000213,181.21673600000213,181.21673600000213,181.21673600000213,181.21673600000213,181.5831411999825,181.5831411999825,181.5831411999825,181.5831411999825,181.5831411999825,181.5831411999825,181.5831411999825,181.5831411999825,181.5831411999825,23,0,,,181.5831411999825,181.7832998999802,0.0,181.7832998999802,0,0.0,0,1,1000,num_1,0.864945599983912,,21,13,2026-03-02_18h22.05.267,2026A_exp2,2022.2.4,59.93410843832533,
1000,1,6.1,0.0,1,0,50,50,79,,,,,182.66741699998965,183.31819530000212,183.31819530000212,183.80270400000154,315,315,183.80270400000154,183.80270400000154,183.80270400000154,183.80270400000154,183.80270400000154,183.80270400000154,183.80270400000154,183.80270400000154,183.80270400000154,184.1691259999934,184.1691259999934,184.1691259999934,184.1691259999934,184.1691259999934,184.1691259999934,184.1691259999934,184.1691259999934,184.1691259999934,23,0,,,184.1691259999934,184.37127929998678,1000,184.37127929998678,1000,1000,1000,1000,0,num_3,0.5411257999949157,,21,13,2026-03-02_18h22.05.267,2026A_exp2,2022.2.4,59.93410843832533,
1000,1,0.0,4.9,0,0,51,51,0,,,,,184.93640000000596,185.59058439999353,185.59058439999353,186.0882760999957,45,45,186.0882760999957,186.0882760999957,186.0882760999957,186.0882760999957,186.0882760999957,186.0882760999957,186.0882760999957,186.0882760999957,186.0882760999957,186.45466379998834,186.45466379998834,186.45466379998834,186.45466379998834,186.45466379998834,186.45466379998834,186.45466379998834,186.45466379998834,186.45466379998834,23,0,,,186.45466379998834,186.65749250000226,1000,186.65749250000226,1000,1000,1000,1000,1,num_2,0.5024450000200886,,21,13,2026-03-02_18h22.05.267,2026A_exp2,2022.2.4,59.93410843832533,
1,0,0.0,4.9,0,0,52,52,32,,,,,187.17520239998703,187.82261400000425,187.82261400000425,188.32381109998096,315,45,188.32381109998096,188.32381109998096,188.32381109998096,188.32381109998096,188.32381109998096,188.32381109998096,188.32381109998096,188.32381109998096,188.32381109998096,188.6902388999879,188.6902388999879,188.6902388999879,188.6902388999879,188.6902388999879,188.6902388999879,188.6902388999879,188.6902388999879,188.6902388999879,23,0,,,188.6902388999879,188.89031570000225,0.0,188.89031570000225,0,0.0,0,1,1000,num_1,0.7013593000010587,,21,13,2026-03-02_18h22.05.267,2026A_exp2,2022.2.4,59.93410843832533,
1000,1,3.7,3.7,0,0,53,53,59,,,,,189.60771509999176,190.2584367999807,190.2584367999807,190.7428391999856,45,45,190.7428391999856,190.7428391999856,190.7428391999856,190.7428391999856,190.7428391999856,190.7428391999856,190.7428391999856,190.7428391999856,190.7428391999856,191.10931719999644,191.10931719999644,191.10931719999644,191.10931719999644,191.10931719999644,191.10931719999644,191.10931719999644,191.10931719999644,191.10931719999644,23,0,,,191.10931719999644,191.31187169998884,1000,191.31187169998884,1000,1000,1000,1000,1,num_2,1.1051928999950178,,21,13,2026-03-02_18h22.05.267,2026A_exp2,2022.2.4,59.93410843832533,
1000,1,4.9,6.1,0,0,54,54,36,,,,,192.44390670000575,193.09471069998108,193.09471069998108,193.59578430000693,45,315,193.59578430000693,193.59578430000693,193.59578430000693,193.59578430000693,193.59578430000693,193.59578430000693,193.59578430000693,193.59578430000693,193.59578430000693,193.9621793999977,193.9621793999977,193.9621793999977,193.9621793999977,193.9621793999977,193.9621793999977,193.9621793999977,193.9621793999977,193.9621793999977,23,0,,,193.9621793999977,194.1625256999978,1000,194.1625256999978,1000,1000,1000,1000,0,num_3,0.7098078999842983,,21,13,2026-03-02_18h22.05.267,2026A_exp2,2022.2.4,59.93410843832533,
1000,1,0.0,6.1,1,0,55,55,42,,,,,194.8965166999842,195.54711670000688,195.54711670000688,196.0480658999877,45,315,196.0480658999877,196.0480658999877,196.0480658999877,196.0480658999877,196.0480658999877,196.0480658999877,196.0480658999877,196.0480658999877,196.0480658999877,196.4146611999895,196.4146611999895,196.4146611999895,196.4146611999895,196.4146611999895,196.4146611999895,196.4146611999895,196.4146611999895,196.4146611999895,23,0,,,196.4146611999895,196.61505399999442,1000,196.61505399999442,1000,1000,1000,1000,1,num_2,0.5611147999879904,,21,13,2026-03-02_18h22.05.267,2026A_exp2,2022.2.4,59.93410843832533,
1000,1,3.7,0.0,0,0,56,56,35,,,,,197.19863699999405,197.8493661999819,197.8493661999819,198.35069849999854,315,45,198.35069849999854,198.35069849999854,198.35069849999854,198.35069849999854,198.35069849999854,198.35069849999854,198.35069849999854,198.35069849999854,198.35069849999854,198.70035100000678,198.70035100000678,198.70035100000678,198.70035100000678,198.70035100000678,198.70035100000678,198.70035100000678,198.70035100000678,198.70035100000678,22,0,,,198.70035100000678,198.90234729999793,1000,198.91731590000563,1000,1000,1000,1000,0,num_3,0.8190668000024743,,21,13,2026-03-02_18h22.05.267,2026A_exp2,2022.2.4,59.93410843832533,
1000,1,3.7,6.1,1,0,57,57,75,,,,,199.76811099998304,200.41874379999354,200.41874379999354,200.919796400005,45,45,200.919796400005,200.919796400005,200.919796400005,200.919796400005,200.919796400005,200.919796400005,200.919796400005,200.919796400005,200.919796400005,201.2862022999907,201.2862022999907,201.2862022999907,201.2862022999907,201.2862022999907,201.2862022999907,201.2862022999907,201.2862022999907,201.2862022999907,21,2,"[0.06686710001667961, 0.14963690002332442]","[0.08340100001078099, 0.1669848000165075]",201.2862022999907,201.4880695999891,1000,201.4880695999891,1000,1000,1000,1000,1,num_2,0.44860129998414777,,21,13,2026-03-02_18h22.05.267,2026A_exp2,2022.2.4,59.93410843832533,
0,0,0.0,3.7,1,0,58,58,53,,,,,201.9533329999831,202.60422439998365,202.60422439998365,203.10534179999377,315,315,203.10534179999377,203.10534179999377,203.10534179999377,203.10534179999377,203.10534179999377,203.10534179999377,203.10534179999377,203.10534179999377,203.10534179999377,203.4717088000034,203.4717088000034,203.4717088000034,203.4717088000034,203.4717088000034,203.4717088000034,203.4717088000034,203.4717088000034,203.4717088000034,23,0,,,203.4717088000034,203.67175660000066,0.0,203.67175660000066,0,0.0,0,1,1000,num_1,0.5928003000153694,,21,13,2026-03-02_18h22.05.267,2026A_exp2,2022.2.4,59.93410843832533,
1000,1,0.0,0.0,0,0,59,59,65,,,,,204.28908909999882,204.9397866000072,204.9397866000072,205.42428000000655,45,315,205.42428000000655,205.42428000000655,205.42428000000655,205.42428000000655,205.42428000000655,205.42428000000655,205.42428000000655,205.42428000000655,205.42428000000655,205.79069049999816,205.79069049999816,205.79069049999816,205.79069049999816,205.79069049999816,205.79069049999816,205.79069049999816,205.79069049999816,205.79069049999816,23,0,,,205.79069049999816,205.99272989999736,1000,205.99272989999736,1000,1000,1000,1000,0,num_3,0.9989027999981772,,21,13,2026-03-02_18h22.05.267,2026A_exp2,2022.2.4,59.93410843832533,
1000,1,3.7,0.0,0,0,60,60,69,,,,,207.00846129999263,207.65910059999442,207.65910059999442,208.16026279999642,315,315,208.16026279999642,208.16026279999642,208.16026279999642,208.16026279999642,208.16026279999642,208.16026279999642,208.16026279999642,208.16026279999642,208.16026279999642,208.52663229999598,208.52663229999598,208.52663229999598,208.52663229999598,208.52663229999598,208.52663229999598,208.52663229999598,208.52663229999598,208.52663229999598,23,0,,,208.52663229999598,208.72703350000666,1000,208.72703350000666,1000,1000,1000,1000,0,num_3,0.5136273999814875,,21,13,2026-03-02_18h22.05.267,2026A_exp2,2022.2.4,59.93410843832533,
1000,1,0.0,6.1,1,0,61,61,74,,,,,209.26077639998402,209.91136379999807,209.91136379999807,210.41254449999542,315,45,210.41254449999542,210.41254449999542,210.41254449999542,210.41254449999542,210.41254449999542,210.41254449999542,210.41254449999542,210.41254449999542,210.41254449999542,210.7788118000026,210.7788118000026,210.7788118000026,210.7788118000026,210.7788118000026,210.7788118000026,210.7788118000026,210.7788118000026,210.7788118000026,23,0,,,210.7788118000026,210.9809191999957,1000,210.9809191999957,1000,1000,1000,1000,1,num_2,0.48307369998656213,,21,13,2026-03-02_18h22.05.267,2026A_exp2,2022.2.4,59.93410843832533,
1000,1,4.9,0.0,1,0,62,62,12,,,,,211.47962909998023,212.1303568999865,212.1303568999865,212.63151350000408,45,315,212.63151350000408,212.63151350000408,212.63151350000408,212.63151350000408,212.63151350000408,212.63151350000408,212.63151350000408,212.63151350000408,212.63151350000408,212.99778199999128,212.99778199999128,212.99778199999128,212.99778199999128,212.99778199999128,212.99778199999128,212.99778199999128,212.99778199999128,212.99778199999128,23,0,,,212.99778199999128,213.19780229998287,1000,213.19780229998287,1000,1000,1000,1000,0,num_3,0.4339421000040602,,21,13,2026-03-02_18h22.05.267,2026A_exp2,2022.2.4,59.93410843832533,
1000,1,4.9,0.0,1,0,63,63,67,,,,,213.64842209999915,214.2993307999859,214.2993307999859,214.8000081999926,315,315,214.8000081999926,214.8000081999926,214.8000081999926,214.8000081999926,214.8000081999926,214.8000081999926,214.8000081999926,214.8000081999926,214.8000081999926,215.16669389998424,215.16669389998424,215.16669389998424,215.16669389998424,215.16669389998424,215.16669389998424,215.16669389998424,215.16669389998424,215.16669389998424,23,0,,,215.16669389998424,215.36925269998028,1000,215.36925269998028,1000,1000,1000,1000,0,num_3,0.7031155999866314,,21,13,2026-03-02_18h22.05.267,2026A_exp2,2022.2.4,59.93410843832533,
0,0,4.9,0.0,0,0,64,64,40,,,,,216.10097359999781,216.75164899998344,216.75164899998344,217.25276879998273,315,315,217.25276879998273,217.25276879998273,217.25276879998273,217.25276879998273,217.25276879998273,217.25276879998273,217.25276879998273,217.25276879998273,217.25276879998273,217.6025091999909,217.6025091999909,217.6025091999909,217.6025091999909,217.6025091999909,217.6025091999909,217.6025091999909,217.6025091999909,217.6025091999909,22,0,,,217.6025091999909,217.80272680000053,0.0,217.80272680000053,0,0.0,0,1,1000,num_1,0.8694363000104204,,21,13,2026-03-02_18h22.05.267,2026A_exp2,2022.2.4,59.93410843832533,
1000,1,6.1,6.1,1,0,65,65,22,,,,,218.7035038000031,219.35415589998593,219.35415589998593,219.83872460000566,315,315,219.83872460000566,219.83872460000566,219.83872460000566,219.83872460000566,219.83872460000566,219.83872460000566,219.83872460000566,219.83872460000566,219.83872460000566,220.20506859998568,220.20506859998568,220.20506859998568,220.20506859998568,220.20506859998568,220.20506859998568,220.20506859998568,220.20506859998568,220.20506859998568,23,0,,,220.20506859998568,220.40734919998795,1000,220.40734919998795,1000,1000,1000,1000,1,num_2,1.9603996999794617,,21,13,2026-03-02_18h22.05.267,2026A_exp2,2022.2.4,59.93410843832533,
0,0,3.7,4.9,0,0,66,66,77,,,,,222.3905429999868,223.04120730000432,223.04120730000432,223.54232199999387,315,315,223.54232199999387,223.54232199999387,223.54232199999387,223.54232199999387,223.54232199999387,223.54232199999387,223.54232199999387,223.54232199999387,223.54232199999387,223.9087290999887,223.9087290999887,223.9087290999887,223.9087290999887,223.9087290999887,223.9087290999887,223.9087290999887,223.9087290999887,223.9087290999887,23,0,,,223.9087290999887,224.10902010000427,4.9,224.10902010000427,0,4.9,1,0,1000,num_1,1.8588899000023957,,21,13,2026-03-02_18h22.05.267,2026A_exp2,2022.2.4,59.93410843832533,
1000,1,6.1,4.9,0,0,67,67,81,,,,,225.99410270000226,226.64488099998562,226.64488099998562,227.12935760000255,45,45,227.12935760000255,227.12935760000255,227.12935760000255,227.12935760000255,227.12935760000255,227.12935760000255,227.12935760000255,227.12935760000255,227.12935760000255,227.49558960000286,227.49558960000286,227.49558960000286,227.49558960000286,227.49558960000286,227.49558960000286,227.49558960000286,227.49558960000286,227.49558960000286,23,0,,,227.49558960000286,227.69794240000192,1000,227.69794240000192,1000,1000,1000,1000,0,num_3,0.4623159999900963,,21,13,2026-03-02_18h22.05.267,2026A_exp2,2022.2.4,59.93410843832533,
1000,1,3.7,0.0,0,0,68,68,86,,,,,228.17994949998683,228.83046040000045,228.83046040000045,229.33159749998595,315,315,229.33159749998595,229.33159749998595,229.33159749998595,229.33159749998595,229.33159749998595,229.33159749998595,229.33159749998595,229.33159749998595,229.33159749998595,229.69786660000682,229.69786660000682,229.69786660000682,229.69786660000682,229.69786660000682,229.69786660000682,229.69786660000682,229.69786660000682,229.69786660000682,23,0,,,229.69786660000682,229.89977029999136,1000,229.89977029999136,1000,1000,1000,1000,0,num_3,0.9968394000025,,21,13,2026-03-02_18h22.05.267,2026A_exp2,2022.2.4,59.93410843832533,
1000,1,0.0,0.0,0,0,69,69,89,,,,,230.9157723999815,231.56649669999024,231.56649669999024,232.06748430000152,315,45,232.06748430000152,232.06748430000152,232.06748430000152,232.06748430000152,232.06748430000152,232.06748430000152,232.06748430000152,232.06748430000152,232.06748430000152,232.43407739998656,232.43407739998656,232.43407739998656,232.43407739998656,232.43407739998656,232.43407739998656,232.43407739998656,232.43407739998656,232.43407739998656,23,0,,,232.43407739998656,232.63621639998746,1000,232.63621639998746,1000,1000,1000,1000,0,num_3,0.8606111999833956,,21,13,2026-03-02_18h22.05.267,2026A_exp2,2022.2.4,59.93410843832533,
1,0,0.0,4.9,0,0,70,70,14,,,,,233.51841659998172,234.16895389999263,234.16895389999263,234.65342489999603,315,315,234.65342489999603,234.65342489999603,234.65342489999603,234.65342489999603,234.65342489999603,234.65342489999603,234.65342489999603,234.65342489999603,234.65342489999603,235.01995329998317,235.01995329998317,235.01995329998317,235.01995329998317,235.01995329998317,235.01995329998317,235.01995329998317,235.01995329998317,235.01995329998317,23,0,,,235.01995329998317,235.22016440000152,0.0,235.22016440000152,0,0.0,0,1,1000,num_1,1.0040302999841515,,21,13,2026-03-02_18h22.05.267,2026A_exp2,2022.2.4,59.93410843832533,
1000,1,0.0,6.1,0,0,71,71,16,,,,,236.25441329999012,236.90528969999286,236.90528969999286,237.3893681000045,315,315,237.3893681000045,237.3893681000045,237.3893681000045,237.3893681000045,237.3893681000045,237.3893681000045,237.3893681000045,237.3893681000045,237.3893681000045,237.75602790000266,237.75602790000266,237.75602790000266,237.75602790000266,237.75602790000266,237.75602790000266,237.75602790000266,237.75602790000266,237.75602790000266,23,0,,,237.75602790000266,237.95826169999782,1000,237.95826169999782,1000,1000,1000,1000,1,num_2,0.49067420000210404,,21,13,2026-03-02_18h22.05.267,2026A_exp2,2022.2.4,59.93410843832533,
1000,1,0.0,0.0,0,0,72,72,72,,,,,238.4733317999926,239.12408199999481,239.12408199999481,239.624991699995,45,45,239.624991699995,239.624991699995,239.624991699995,239.624991699995,239.624991699995,239.624991699995,239.624991699995,239.624991699995,239.624991699995,239.97488689998863,239.97488689998863,239.97488689998863,239.97488689998863,239.97488689998863,239.97488689998863,239.97488689998863,239.97488689998863,239.97488689998863,22,0,,,239.97488689998863,240.1768145999813,1000,240.19175070000347,1000,1000,1000,1000,1,num_2,0.9209001999988686,,21,13,2026-03-02_18h22.05.267,2026A_exp2,2022.2.4,59.93410843832533,
0,0,6.1,0.0,1,0,73,73,25,,,,,241.14260930000455,241.7932245999982,241.7932245999982,242.29423229998793,315,45,242.29423229998793,242.29423229998793,242.29423229998793,242.29423229998793,242.29423229998793,242.29423229998793,242.29423229998793,242.29423229998793,242.29423229998793,242.6442451000039,242.6442451000039,242.6442451000039,242.6442451000039,242.6442451000039,242.6442451000039,242.6442451000039,242.6442451000039,242.6442451000039,22,0,,,242.6442451000039,242.84437809998053,6.1,242.86111460000393,1,6.1,1,1,1000,num_4,0.6757913999899756,,21,13,2026-03-02_18h22.05.267,2026A_exp2,2022.2.4,59.93410843832533,
1000,1,0.0,6.1,0,0,74,74,20,,,,,243.5616544999939,244.21228229999542,244.21228229999542,244.69687240000349,45,315,244.69687240000349,244.69687240000349,244.69687240000349,244.69687240000349,244.69687240000349,244.69687240000349,244.69687240000349,244.69687240000349,244.69687240000349,245.0633307999815,245.0633307999815,245.0633307999815,245.0633307999815,245.0633307999815,245.0633307999815,245.0633307999815,245.0633307999815,245.0633307999815,23,0,,,245.0633307999815,245.26554049999686,1000,245.26554049999686,1000,1000,1000,1000,1,num_2,0.5029879000212532,,21,13,2026-03-02_18h22.05.267,2026A_exp2,2022.2.4,59.93410843832533,
1,0,0.0,0.0,0,0,75,75,80,,,,,245.79711519999546,246.44804069999373,246.44804069999373,246.94901739998022,315,45,246.94901739998022,246.94901739998022,246.94901739998022,246.94901739998022,246.94901739998022,246.94901739998022,246.94901739998022,246.94901739998022,246.94901739998022,247.2987940000021,247.2987940000021,247.2987940000021,247.2987940000021,247.2987940000021,247.2987940000021,247.2987940000021,247.2987940000021,247.2987940000021,22,0,,,247.2987940000021,247.49892349998117,0.0,247.49892349998117,0,0.0,0,1,1000,num_1,0.46938139997655526,,21,13,2026-03-02_18h22.05.267,2026A_exp2,2022.2.4,59.93410843832533,
1000,1,0.0,3.7,1,0,76,76,88,,,,,247.99939059998724,248.65023040000233,248.65023040000233,249.15125019999687,315,45,249.15125019999687,249.15125019999687,249.15125019999687,249.15125019999687,249.15125019999687,249.15125019999687,249.15125019999687,249.15125019999687,249.15125019999687,249.5176595999801,249.5176595999801,249.5176595999801,249.5176595999801,249.5176595999801,249.5176595999801,249.5176595999801,249.5176595999801,249.5176595999801,23,0,,,249.5176595999801,249.719609199994,1000,249.719609199994,1000,1000,1000,1000,1,num_2,0.4487031999742612,,21,13,2026-03-02_18h22.05.267,2026A_exp2,2022.2.4,59.93410843832533,
1000,1,4.9,3.7,1,0,77,77,78,,,,,250.1850112999964,250.83568429999286,250.83568429999286,251.33678569999756,45,315,251.33678569999756,251.33678569999756,251.33678569999756,251.33678569999756,251.33678569999756,251.33678569999756,251.33678569999756,251.33678569999756,251.33678569999756,251.70323509999434,251.70323509999434,251.70323509999434,251.70323509999434,251.70323509999434,251.70323509999434,251.70323509999434,251.70323509999434,251.70323509999434,23,0,,,251.70323509999434,251.9036202999996,1000,251.9036202999996,1000,1000,1000,1000,0,num_3,0.5282220000226516,,21,13,2026-03-02_18h22.05.267,2026A_exp2,2022.2.4,59.93410843832533,
0,0,6.1,0.0,0,0,78,78,41,,,,,252.45383240000228,253.1046198999975,253.1046198999975,,45,315,253.6057452999812,253.6057452999812,253.6057452999812,253.6057452999812,253.6057452999812,253.6057452999812,253.6057452999812,253.6057452999812,253.6057452999812,253.97213189999457,253.97213189999457,253.97213189999457,253.97213189999457,253.97213189999457,253.97213189999457,253.97213189999457,253.97213189999457,253.97213189999457,23,0,,,253.97213189999457,254.1722658999788,0.0,254.1722658999788,0,0.0,0,1,1000,num_1,0.6287715999933425,,21,13,2026-03-02_18h22.05.267,2026A_exp2,2022.2.4,59.93410843832533,
0,0,0.0,0.0,0,0,79,79,15,,,,,254.82289359997958,255.4736533999967,255.4736533999967,255.95801709999796,315,45,255.95801709999796,255.95801709999796,255.95801709999796,255.95801709999796,255.95801709999796,255.95801709999796,255.95801709999796,255.95801709999796,255.95801709999796,256.32447089999914,256.32447089999914,256.32447089999914,256.32447089999914,256.32447089999914,256.32447089999914,256.32447089999914,256.32447089999914,256.32447089999914,23,0,,,256.32447089999914,256.5246850999829,0.0,256.5246850999829,0,0.0,0,1,1000,num_1,0.38692260000971146,,21,13,2026-03-02_18h22.05.267,2026A_exp2,2022.2.4,59.93410843832533,
1000,1,0.0,0.0,0,0,80,80,7,,,,,256.94164730000193,257.5924291999836,257.5924291999836,258.07689639998716,315,45,258.07689639998716,258.07689639998716,258.07689639998716,258.07689639998716,258.07689639998716,258.07689639998716,258.07689639998716,258.07689639998716,258.07689639998716,258.4433107000077,258.4433107000077,258.4433107000077,258.4433107000077,258.4433107000077,258.4433107000077,258.4433107000077,258.4433107000077,258.4433107000077,23,0,,,258.4433107000077,258.64477949999855,1000,258.64477949999855,1000,1000,1000,1000,0,num_3,0.8988746000104584,,21,13,2026-03-02_18h22.05.267,2026A_exp2,2022.2.4,59.93410843832533,
1,0,3.7,0.0,1,0,81,81,30,,,,,259.5610531999846,260.21161909998045,260.21161909998045,260.7127374999982,315,315,260.7127374999982,260.7127374999982,260.7127374999982,260.7127374999982,260.7127374999982,260.7127374999982,260.7127374999982,260.7127374999982,260.7127374999982,261.0625819999841,261.0625819999841,261.0625819999841,261.0625819999841,261.0625819999841,261.0625819999841,261.0625819999841,261.0625819999841,261.0625819999841,22,0,,,261.0625819999841,261.262862899981,0.0,261.262862899981,0,0.0,0,1,1000,num_1,0.6899642999924254,,21,13,2026-03-02_18h22.05.267,2026A_exp2,2022.2.4,59.93410843832533,
1,0,0.0,0.0,1,0,82,82,83,,,,,261.98001709999517,262.63081219999003,262.63081219999003,263.11528929998167,45,45,263.11528929998167,263.11528929998167,263.11528929998167,263.11528929998167,263.11528929998167,263.11528929998167,263.11528929998167,263.11528929998167,263.11528929998167,263.4816370999906,263.4816370999906,263.4816370999906,263.4816370999906,263.4816370999906,263.4816370999906,263.4816370999906,263.4816370999906,263.4816370999906,23,0,,,263.4816370999906,263.68167339998763,0.0,263.68167339998763,0,0.0,0,1,1000,num_1,0.4466971000074409,,21,13,2026-03-02_18h22.05.267,2026A_exp2,2022.2.4,59.93410843832533,
1,0,6.1,0.0,1,0,83,83,17,,,,,264.14892639999744,264.79965249999077,264.79965249999077,265.2842551000067,315,45,265.2842551000067,265.2842551000067,265.2842551000067,265.2842551000067,265.2842551000067,265.2842551000067,265.2842551000067,265.2842551000067,265.2842551000067,265.6505515000026,265.6505515000026,265.6505515000026,265.6505515000026,265.6505515000026,265.6505515000026,265.6505515000026,265.6505515000026,265.6505515000026,23,0,,,265.6505515000026,265.85075799998594,0.0,265.85075799998594,0,0.0,0,1,1000,num_1,0.4938704000087455,,21,13,2026-03-02_18h22.05.267,2026A_exp2,2022.2.4,59.93410843832533,
1000,1,0.0,0.0,0,0,84,84,57,,,,,266.36774389998754,267.01856120000593,267.01856120000593,267.5028487999807,45,315,267.5028487999807,267.5028487999807,267.5028487999807,267.5028487999807,267.5028487999807,267.5028487999807,267.5028487999807,267.5028487999807,267.5028487999807,267.8692735999939,267.8692735999939,267.8692735999939,267.8692735999939,267.8692735999939,267.8692735999939,267.8692735999939,267.8692735999939,267.8692735999939,23,0,,,267.8692735999939,268.0713837000076,1000,268.0713837000076,1000,1000,1000,1000,0,num_3,0.9773696000047494,,21,13,2026-03-02_18h22.05.267,2026A_exp2,2022.2.4,59.93410843832533,
1000,1,0.0,6.1,0,0,85,85,61,,,,,269.0704518999846,269.7211785999825,269.7211785999825,270.22241139999824,315,315,270.22241139999824,270.22241139999824,270.22241139999824,270.22241139999824,270.22241139999824,270.22241139999824,270.22241139999824,270.22241139999824,270.22241139999824,270.5887057999789,270.5887057999789,270.5887057999789,270.5887057999789,270.5887057999789,270.5887057999789,270.5887057999789,270.5887057999789,270.5887057999789,23,0,,,270.5887057999789,270.78908769998816,1000,270.78908769998816,1000,1000,1000,1000,1,num_2,0.5626195000077132,,21,13,2026-03-02_18h22.05.267,2026A_exp2,2022.2.4,59.93410843832533,
1,0,0.0,0.0,1,0,86,86,31,,,,,271.3727536999795,272.0235846999858,272.0235846999858,272.52460629999405,45,45,272.52460629999405,272.52460629999405,272.52460629999405,272.52460629999405,272.52460629999405,272.52460629999405,272.52460629999405,272.52460629999405,272.52460629999405,272.89109469999676,272.89109469999676,272.89109469999676,272.89109469999676,272.89109469999676,272.89109469999676,272.89109469999676,272.89109469999676,272.89109469999676,23,0,,,272.89109469999676,273.0909864999994,0.0,273.0909864999994,0,0.0,0,1,1000,num_1,0.4529076999751851,,21,13,2026-03-02_18h22.05.267,2026A_exp2,2022.2.4,59.93410843832533,
1000,1,4.9,0.0,1,0,87,87,48,,,,,273.55992090000655,274.2091822999937,274.2091822999937,274.71022119998815,45,45,274.71022119998815,274.71022119998815,274.71022119998815,274.71022119998815,274.71022119998815,274.71022119998815,274.71022119998815,274.71022119998815,274.71022119998815,275.07656399998814,275.07656399998814,275.07656399998814,275.07656399998814,275.07656399998814,275.07656399998814,275.07656399998814,275.07656399998814,275.07656399998814,23,0,,,275.07656399998814,275.27875679999124,1000,275.27875679999124,1000,1000,1000,1000,0,num_3,0.442262299999129,,21,13,2026-03-02_18h22.05.267,2026A_exp2,2022.2.4,59.93410843832533,
1,0,4.9,0.0,0,0,88,88,66,,,,,275.74386859999504,276.3945878999948,276.3945878999948,276.89585349999834,45,315,276.89585349999834,276.89585349999834,276.89585349999834,276.89585349999834,276.89585349999834,276.89585349999834,276.89585349999834,276.89585349999834,276.89585349999834,277.26214139998774,277.26214139998774,277.26214139998774,277.26214139998774,277.26214139998774,277.26214139998774,277.26214139998774,277.26214139998774,277.26214139998774,23,0,,,277.26214139998774,277.46242269998766,4.9,277.46242269998766,1,4.9,1,1,1000,num_4,0.5066121999989264,,21,13,2026-03-02_18h22.05.267,2026A_exp2,2022.2.4,59.93410843832533,
1,0,0.0,0.0,0,0,89,89,87,,,,,277.99604389999877,278.64660609999555,278.64660609999555,279.1313258000009,315,45,279.1313258000009,279.1313258000009,279.1313258000009,279.1313258000009,279.1313258000009,279.1313258000009,279.1313258000009,279.1313258000009,279.1313258000009,279.49775099998806,279.49775099998806,279.49775099998806,279.49775099998806,279.49775099998806,279.49775099998806,279.49775099998806,279.49775099998806,279.49775099998806,23,0,,,279.49775099998806,279.69795060000615,0.0,279.69795060000615,0,0.0,0,1,1000,num_1,0.430092099995818,,21,13,2026-03-02_18h22.05.267,2026A_exp2,2022.2.4,59.93410843832533,
,,,,,,,,,,,,,,,,,,,,,,,,,,,,,,,,,,,,,,,,,,,,,,,,,,,,280.1572438000003,,,,,,,
