validity,detectorcomp,contrastCW,contrastCCW,precueCWorCCW,block_80trials.thisRepN,block_80trials.thisTrialN,block_80trials.thisN,block_80trials.thisIndex,etRecord.started,etRecord.stopped,text.started,text.stopped,text_4.started,text_4.stopped,text_6.started,text_6.stopped,oriCW,oriCCW,roi_2.started,grating_UR.started,grating_UL.started,grating_LR.started,grating_LL.started,noise_UR.started,noise_UL.started,noise_LR.started,noise_LL.started,roi_2.stopped,grating_UR.stopped,grating_UL.stopped,grating_LR.stopped,grating_LL.stopped,noise_UR.stopped,noise_UL.stopped,noise_LR.stopped,noise_LL.stopped,outframe,roi_2.numLooks,roi_2.timesOn,roi_2.timesOff,text_2.started,text_2.stopped,probedcontrast,key_resp.started,respdetect,relevantContrast,correctDetect,TorFdetect,respCWorCCW,key_resp.keys,key_resp.rt,feedback_display_.started,participantNo,blockNo,date,expName,psychopyVersion,frameRate,
0,0,3.7,6.1,0,0,0,0,73,3.560003824532032e-05,3.560003824532032e-05,46.405828800052404,48.41376950009726,48.41376950009726,49.042621799977496,49.042621799977496,49.562101599993184,315,315,49.562101599993184,49.562101599993184,49.562101599993184,49.562101599993184,49.562101599993184,49.562101599993184,49.562101599993184,49.562101599993184,49.562101599993184,49.91013130010106,49.91013130010106,49.91013130010106,49.91013130010106,49.91013130010106,49.91013130010106,49.91013130010106,49.91013130010106,49.91013130010106,15,3,"[0.0009586000815033913, 0.23432149994187057, 0.30134349991567433]","[0.03613459994085133, 0.2845540998969227, 0.3679581999313086]",49.91013130010106,50.11045660008676,6.1,50.11045660008676,1,6.1,1,1,1000,num_4,0.5835935999639332,,33,9,2026-03-12_17h58.52.767,2026A_exp2,2022.2.4,60.005460524515534,
1000,1,0.0,0.0,0,0,1,1,87,,,,,50.71090540010482,51.361607500119135,51.361607500119135,51.845788600156084,45,315,51.845788600156084,51.845788600156084,51.845788600156084,51.845788600156084,51.845788600156084,51.845788600156084,51.845788600156084,51.845788600156084,51.845788600156084,52.21244899998419,52.21244899998419,52.21244899998419,52.21244899998419,52.21244899998419,52.21244899998419,52.21244899998419,52.21244899998419,52.21244899998419,0,1,[0.0012411000207066536],[0.36836800002492964],52.21244899998419,52.418347800150514,1000,52.418347800150514,1000,1000,1000,1000,0,num_3,0.48419829993508756,,33,9,2026-03-12_17h58.52.767,2026A_exp2,2022.2.4,60.005460524515534,
0,0,0.0,0.0,0,0,2,2,70,,,,,52.9299703000579,53.5804634001106,53.5804634001106,54.08151859999634,315,45,54.08151859999634,54.08151859999634,54.08151859999634,54.08151859999634,54.08151859999634,54.08151859999634,54.08151859999634,54.08151859999634,54.08151859999634,54.447822000132874,54.447822000132874,54.447822000132874,54.447822000132874,54.447822000132874,54.447822000132874,54.447822000132874,54.447822000132874,54.447822000132874,0,1,[0.0011540001723915339],[0.36681540007703006],54.447822000132874,54.648259200155735,0.0,54.648259200155735,0,0.0,0,1,1000,num_1,0.8367862000595778,,33,9,2026-03-12_17h58.52.767,2026A_exp2,2022.2.4,60.005460524515534,
1,0,3.7,3.7,1,0,3,3,86,,,,,55.515784699935466,56.16633939999156,56.16633939999156,56.66743000014685,45,45,56.66743000014685,56.66743000014685,56.66743000014685,56.66743000014685,56.66743000014685,56.66743000014685,56.66743000014685,56.66743000014685,56.66743000014685,57.01718239998445,57.01718239998445,57.01718239998445,57.01718239998445,57.01718239998445,57.01718239998445,57.01718239998445,57.01718239998445,57.01718239998445,0,1,[0.001232100185006857],[0.3505943000782281],57.01718239998445,57.21744880010374,3.7,57.21744880010374,1,3.7,1,1,1000,num_4,0.7324031998869032,,33,9,2026-03-12_17h58.52.767,2026A_exp2,2022.2.4,60.005460524515534,
1,0,3.7,4.9,0,0,4,4,76,,,,,57.96801450010389,58.61892049992457,58.61892049992457,59.10332280001603,45,315,59.10332280001603,59.10332280001603,59.10332280001603,59.10332280001603,59.10332280001603,59.10332280001603,59.10332280001603,59.10332280001603,59.10332280001603,59.46960139996372,59.46960139996372,59.46960139996372,59.46960139996372,59.46960139996372,59.46960139996372,59.46960139996372,59.46960139996372,59.46960139996372,0,1,[0.0012414997909218073],[0.3672995998058468],59.46960139996372,59.6699320001062,3.7,59.6699320001062,1,3.7,1,1,1000,num_4,0.7672437999863178,,33,9,2026-03-12_17h58.52.767,2026A_exp2,2022.2.4,60.005460524515534,
1,0,4.9,6.1,0,0,5,5,33,,,,,60.45409120013937,61.10467969998717,61.10467969998717,61.588955299928784,315,315,61.588955299928784,61.588955299928784,61.588955299928784,61.588955299928784,61.588955299928784,61.588955299928784,61.588955299928784,61.588955299928784,61.588955299928784,61.95554960006848,61.95554960006848,61.95554960006848,61.95554960006848,61.95554960006848,61.95554960006848,61.95554960006848,61.95554960006848,61.95554960006848,0,1,[0.001228200038895011],[0.3671647999435663],61.95554960006848,62.1555530000478,4.9,62.1555530000478,0,4.9,1,0,1000,num_1,0.7466582001652569,,33,9,2026-03-12_17h58.52.767,2026A_exp2,2022.2.4,60.005460524515534,
1000,1,3.7,4.9,0,0,6,6,80,,,,,62.922967500053346,63.573734200093895,63.573734200093895,64.05810050014406,45,45,64.05810050014406,64.05810050014406,64.05810050014406,64.05810050014406,64.05810050014406,64.05810050014406,64.05810050014406,64.05810050014406,64.05810050014406,64.42467330000363,64.42467330000363,64.42467330000363,64.42467330000363,64.42467330000363,64.42467330000363,64.42467330000363,64.42467330000363,64.42467330000363,0,1,[0.0012068001087754965],[0.3665988000575453],64.42467330000363,64.62655139993876,1000,64.62655139993876,1000,1000,1000,1000,1,num_2,0.9393682000227273,,33,9,2026-03-12_17h58.52.767,2026A_exp2,2022.2.4,60.005460524515534,
0,0,0.0,4.9,0,0,7,7,14,,,,,65.59254220011644,66.24308290006593,66.24308290006593,66.74413380003534,315,315,66.74413380003534,66.74413380003534,66.74413380003534,66.74413380003534,66.74413380003534,66.74413380003534,66.74413380003534,66.74413380003534,66.74413380003534,67.11067169997841,67.11067169997841,67.11067169997841,67.11067169997841,67.11067169997841,67.11067169997841,67.11067169997841,67.11067169997841,67.11067169997841,15,2,"[0.20038799988105893, 0.33382519986480474]","[0.31711639999412, 0.3503859997726977]",67.11067169997841,67.31081719999202,4.9,67.31081719999202,1,4.9,1,1,1000,num_4,0.662702500121668,,33,9,2026-03-12_17h58.52.767,2026A_exp2,2022.2.4,60.005460524515534,
1,0,6.1,4.9,0,0,8,8,81,,,,,67.99471900006756,68.64772880007513,68.64772880007513,69.13006290001795,45,45,69.13006290001795,69.13006290001795,69.13006290001795,69.13006290001795,69.13006290001795,69.13006290001795,69.13006290001795,69.13006290001795,69.13006290001795,69.49642800004221,69.49642800004221,69.49642800004221,69.49642800004221,69.49642800004221,69.49642800004221,69.49642800004221,69.49642800004221,69.49642800004221,0,1,[0.0010808000806719065],[0.36640820000320673],69.49642800004221,69.69651330006309,6.1,69.69651330006309,1,6.1,1,1,1000,num_4,0.6935235001146793,,33,9,2026-03-12_17h58.52.767,2026A_exp2,2022.2.4,60.005460524515534,
1000,1,0.0,6.1,0,0,9,9,58,,,,,70.41386319999583,71.06462329998612,71.06462329998612,71.54908389993943,45,315,71.54908389993943,71.54908389993943,71.54908389993943,71.54908389993943,71.54908389993943,71.54908389993943,71.54908389993943,71.54908389993943,71.54908389993943,71.91550730005838,71.91550730005838,71.91550730005838,71.91550730005838,71.91550730005838,71.91550730005838,71.91550730005838,71.91550730005838,71.91550730005838,4,2,"[0.017212599981576204, 0.13344260002486408]","[0.0833447000477463, 0.36694310000166297]",71.91550730005838,72.11771419993602,1000,72.11771419993602,1000,1000,1000,1000,1,num_2,0.6396564999595284,,33,9,2026-03-12_17h58.52.767,2026A_exp2,2022.2.4,60.005460524515534,
1,0,4.9,0.0,0,0,10,10,4,,,,,72.78288449998945,73.43355050007813,73.43355050007813,73.93478880007751,45,45,73.93478880007751,73.93478880007751,73.93478880007751,73.93478880007751,73.93478880007751,73.93478880007751,73.93478880007751,73.93478880007751,73.93478880007751,74.30106010008603,74.30106010008603,74.30106010008603,74.30106010008603,74.30106010008603,74.30106010008603,74.30106010008603,74.30106010008603,74.30106010008603,0,1,[0.0012193000875413418],[0.36726379999890924],74.30106010008603,74.50145320012234,4.9,74.50145320012234,1,4.9,1,1,1000,num_4,0.6806786998640746,,33,9,2026-03-12_17h58.52.767,2026A_exp2,2022.2.4,60.005460524515534,
1000,1,3.7,6.1,1,0,11,11,29,,,,,75.20203849999234,75.85276739997789,75.85276739997789,76.33719730004668,315,315,76.33719730004668,76.33719730004668,76.33719730004668,76.33719730004668,76.33719730004668,76.33719730004668,76.33719730004668,76.33719730004668,76.33719730004668,76.70343270013109,76.70343270013109,76.70343270013109,76.70343270013109,76.70343270013109,76.70343270013109,76.70343270013109,76.70343270013109,76.70343270013109,0,1,[0.0012391000054776669],[0.3672752999700606],76.70343270013109,76.90553640015423,1000,76.90553640015423,1000,1000,1000,1000,1,num_2,2.0361285998951644,,33,9,2026-03-12_17h58.52.767,2026A_exp2,2022.2.4,60.005460524515534,
1000,1,0.0,6.1,0,0,12,12,2,,,,,78.97244679997675,79.62308849999681,79.62308849999681,80.12414450012147,315,315,80.12414450012147,80.12414450012147,80.12414450012147,80.12414450012147,80.12414450012147,80.12414450012147,80.12414450012147,80.12414450012147,80.12414450012147,80.49076019995846,80.49076019995846,80.49076019995846,80.49076019995846,80.49076019995846,80.49076019995846,80.49076019995846,80.49076019995846,80.49076019995846,18,4,"[0.08369990019127727, 0.23383310018107295, 0.28384270006790757, 0.35071330005303025]","[0.10034490004181862, 0.2505523001309484, 0.3005323000252247, 0.3672482001129538]",80.49076019995846,80.69262380013242,1000,80.69262380013242,1000,1000,1000,1000,1,num_2,0.45679159997962415,,33,9,2026-03-12_17h58.52.767,2026A_exp2,2022.2.4,60.005460524515534,
0,0,0.0,0.0,0,0,13,13,22,,,,,81.17485650000162,81.82540520001203,81.82540520001203,82.32649959996343,315,315,82.32649959996343,82.32649959996343,82.32649959996343,82.32649959996343,82.32649959996343,82.32649959996343,82.32649959996343,82.32649959996343,82.32649959996343,82.67623450001702,82.67623450001702,82.67623450001702,82.67623450001702,82.67623450001702,82.67623450001702,82.67623450001702,82.67623450001702,82.67623450001702,4,1,[0.06700280006043613],[0.35047690011560917],82.67623450001702,82.87622670014389,0.0,82.87622670014389,0,0.0,0,1,1000,num_1,1.1380344999488443,,33,9,2026-03-12_17h58.52.767,2026A_exp2,2022.2.4,60.005460524515534,
1000,1,0.0,0.0,1,0,14,14,60,,,,,84.04414610005915,84.69492839998566,84.69492839998566,85.17938550002873,45,315,85.17938550002873,85.17938550002873,85.17938550002873,85.17938550002873,85.17938550002873,85.17938550002873,85.17938550002873,85.17938550002873,85.17938550002873,85.54584260005504,85.54584260005504,85.54584260005504,85.54584260005504,85.54584260005504,85.54584260005504,85.54584260005504,85.54584260005504,85.54584260005504,13,3,"[0.1831905001308769, 0.250064600026235, 0.2837183999363333]","[0.23336310009472072, 0.26715560001321137, 0.36656740005128086]",85.54584260005504,85.7476389000658,1000,85.7476389000658,1000,1000,1000,1000,0,num_3,0.5143431001342833,,33,9,2026-03-12_17h58.52.767,2026A_exp2,2022.2.4,60.005460524515534,
1,0,0.0,0.0,1,0,15,15,24,,,,,86.27963960007764,86.93049990013242,86.93049990013242,87.43150820001028,45,315,87.43150820001028,87.43150820001028,87.43150820001028,87.43150820001028,87.43150820001028,87.43150820001028,87.43150820001028,87.43150820001028,87.43150820001028,87.79805400012992,87.79805400012992,87.79805400012992,87.79805400012992,87.79805400012992,87.79805400012992,87.79805400012992,87.79805400012992,87.79805400012992,2,1,[0.0012425999157130718],[0.35046390001662076],87.79805400012992,87.99805080005899,0.0,87.99805080005899,0,0.0,0,1,1000,num_1,0.7597181000746787,,33,9,2026-03-12_17h58.52.767,2026A_exp2,2022.2.4,60.005460524515534,
1,0,0.0,0.0,1,0,16,16,41,,,,,88.78236460010521,89.43309339997359,89.43309339997359,89.9172751000151,315,45,89.9172751000151,89.9172751000151,89.9172751000151,89.9172751000151,89.9172751000151,89.9172751000151,89.9172751000151,89.9172751000151,89.9172751000151,90.28377089998685,90.28377089998685,90.28377089998685,90.28377089998685,90.28377089998685,90.28377089998685,90.28377089998685,90.28377089998685,90.28377089998685,0,1,[0.0012022999580949545],[0.36713559995405376],90.28377089998685,90.48406110005453,0.0,90.48406110005453,0,0.0,0,1,1000,num_1,0.594238500110805,,33,9,2026-03-12_17h58.52.767,2026A_exp2,2022.2.4,60.005460524515534,
1000,1,3.7,0.0,0,0,17,17,66,,,,,91.10125389997847,91.75197169999592,91.75197169999592,92.23644650005735,315,315,92.23644650005735,92.23644650005735,92.23644650005735,92.23644650005735,92.23644650005735,92.23644650005735,92.23644650005735,92.23644650005735,92.23644650005735,92.60279080015607,92.60279080015607,92.60279080015607,92.60279080015607,92.60279080015607,92.60279080015607,92.60279080015607,92.60279080015607,92.60279080015607,0,1,[0.0012119000311940908],[0.3672505000140518],92.60279080015607,92.80461490014568,1000,92.80461490014568,1000,1000,1000,1000,0,num_3,0.5691425998229533,,33,9,2026-03-12_17h58.52.767,2026A_exp2,2022.2.4,60.005460524515534,
1000,1,0.0,6.1,1,0,18,18,3,,,,,93.4036216000095,94.05414899997413,94.05414899997413,94.55531410011463,45,45,94.55531410011463,94.55531410011463,94.55531410011463,94.55531410011463,94.55531410011463,94.55531410011463,94.55531410011463,94.55531410011463,94.55531410011463,94.90509800007567,94.90509800007567,94.90509800007567,94.90509800007567,94.90509800007567,94.90509800007567,94.90509800007567,94.90509800007567,94.90509800007567,19,2,"[0.03345149988308549, 0.13362809992395341]","[0.06693209987133741, 0.15017419983632863]",94.90509800007567,95.10512570012361,1000,95.1222640001215,1000,1000,1000,1000,1,num_2,0.47625609999522567,,33,9,2026-03-12_17h58.52.767,2026A_exp2,2022.2.4,60.005460524515534,
1000,1,0.0,0.0,0,0,19,19,7,,,,,95.62236939999275,96.27316250000149,96.27316250000149,96.77413589996286,45,45,96.77413589996286,96.77413589996286,96.77413589996286,96.77413589996286,96.77413589996286,96.77413589996286,96.77413589996286,96.77413589996286,96.77413589996286,97.12397289997898,97.12397289997898,97.12397289997898,97.12397289997898,97.12397289997898,97.12397289997898,97.12397289997898,97.12397289997898,97.12397289997898,0,1,[0.001216299831867218],[0.35055339988321066],97.12397289997898,97.32581640011631,1000,97.32581640011631,1000,1000,1000,1000,1,num_2,0.7284603000152856,,33,9,2026-03-12_17h58.52.767,2026A_exp2,2022.2.4,60.005460524515534,
1,0,0.0,6.1,0,0,20,20,43,,,,,98.07484690006822,98.72559330007061,98.72559330007061,99.22636339999735,315,45,99.22636339999735,99.22636339999735,99.22636339999735,99.22636339999735,99.22636339999735,99.22636339999735,99.22636339999735,99.22636339999735,99.22636339999735,99.59305940009654,99.59305940009654,99.59305940009654,99.59305940009654,99.59305940009654,99.59305940009654,99.59305940009654,99.59305940009654,99.59305940009654,23,0,,,99.59305940009654,99.79340640013106,0.0,99.79340640013106,0,0.0,0,1,1000,num_1,0.908534400165081,,33,9,2026-03-12_17h58.52.767,2026A_exp2,2022.2.4,60.005460524515534,
1000,1,0.0,0.0,1,0,21,21,16,,,,,100.72740949993022,101.37819650000893,101.37819650000893,101.8627444000449,45,315,101.8627444000449,101.8627444000449,101.8627444000449,101.8627444000449,101.8627444000449,101.8627444000449,101.8627444000449,101.8627444000449,101.8627444000449,102.22911319998093,102.22911319998093,102.22911319998093,102.22911319998093,102.22911319998093,102.22911319998093,102.22911319998093,102.22911319998093,102.22911319998093,0,1,[0.0012722001411020756],[0.36697760014794767],102.22911319998093,102.4316841000691,1000,102.4316841000691,1000,1000,1000,1000,0,num_3,2.1255783999804407,,33,9,2026-03-12_17h58.52.767,2026A_exp2,2022.2.4,60.005460524515534,
1,0,4.9,3.7,1,0,22,22,10,,,,,104.58142450009473,105.21538219996728,105.21538219996728,105.71623260015622,45,45,105.71623260015622,105.71623260015622,105.71623260015622,105.71623260015622,105.71623260015622,105.71623260015622,105.71623260015622,105.71623260015622,105.71623260015622,106.0830544999335,106.0830544999335,106.0830544999335,106.0830544999335,106.0830544999335,106.0830544999335,106.0830544999335,106.0830544999335,106.0830544999335,0,1,[0.0010030001867562532],[0.36752740014344454],106.0830544999335,106.28306440007873,3.7,106.28306440007873,0,3.7,1,0,1000,num_1,0.617951099993661,,33,9,2026-03-12_17h58.52.767,2026A_exp2,2022.2.4,60.005460524515534,
1000,1,0.0,0.0,0,0,23,23,45,,,,,106.91684460011311,107.56781000015326,107.56781000015326,108.06868680007756,45,45,108.06868680007756,108.06868680007756,108.06868680007756,108.06868680007756,108.06868680007756,108.06868680007756,108.06868680007756,108.06868680007756,108.06868680007756,108.43520059995353,108.43520059995353,108.43520059995353,108.43520059995353,108.43520059995353,108.43520059995353,108.43520059995353,108.43520059995353,108.43520059995353,5,4,"[0.0007198001258075237, 0.11709360009990633, 0.1669636000879109, 0.23364059999585152]","[0.08354540006257594, 0.13382160011678934, 0.21729300008155406, 0.3672015001066029]",108.43520059995353,108.63531060004607,1000,108.63531060004607,1000,1000,1000,1000,1,num_2,0.5146813997998834,,33,9,2026-03-12_17h58.52.767,2026A_exp2,2022.2.4,60.005460524515534,
1,0,4.9,3.7,0,0,24,24,63,,,,,109.16923890006728,109.81991349998862,109.81991349998862,110.32102939998731,45,315,110.32102939998731,110.32102939998731,110.32102939998731,110.32102939998731,110.32102939998731,110.32102939998731,110.32102939998731,110.32102939998731,110.32102939998731,110.68762410013005,110.68762410013005,110.68762410013005,110.68762410013005,110.68762410013005,110.68762410013005,110.68762410013005,110.68762410013005,110.68762410013005,8,5,"[0.001198299927636981, 0.10036989999935031, 0.13371740002185106, 0.18383569992147386, 0.33394169993698597]","[0.03364639985375106, 0.11725619994103909, 0.15041949995793402, 0.3173771998845041, 0.36736869998276234]",110.68762410013005,110.88773790001869,4.9,110.88773790001869,1,4.9,1,1,1000,num_4,3.165813700063154,,33,9,2026-03-12_17h58.52.767,2026A_exp2,2022.2.4,60.005460524515534,
1000,1,3.7,0.0,0,0,25,25,32,,,,,114.07417799998075,114.72494670003653,114.72494670003653,115.20939500001259,45,315,115.20939500001259,115.20939500001259,115.20939500001259,115.20939500001259,115.20939500001259,115.20939500001259,115.20939500001259,115.20939500001259,115.20939500001259,115.57577340002172,115.57577340002172,115.57577340002172,115.57577340002172,115.57577340002172,115.57577340002172,115.57577340002172,115.57577340002172,115.57577340002172,0,1,[0.001314900116994977],[0.3673098001163453],115.57577340002172,115.77587150014006,1000,115.77587150014006,1000,1000,1000,1000,0,num_3,0.40592849999666214,,33,9,2026-03-12_17h58.52.767,2026A_exp2,2022.2.4,60.005460524515534,
1000,1,0.0,4.9,0,0,26,26,53,,,,,116.20938790007494,116.8433707000222,116.8433707000222,117.34483200008981,315,45,117.34483200008981,117.34483200008981,117.34483200008981,117.34483200008981,117.34483200008981,117.34483200008981,117.34483200008981,117.34483200008981,117.34483200008981,117.71078530000523,117.71078530000523,117.71078530000523,117.71078530000523,117.71078530000523,117.71078530000523,117.71078530000523,117.71078530000523,117.71078530000523,0,1,[0.0008947998285293579],[0.3672137998510152],117.71078530000523,117.91172139998525,1000,117.91172139998525,1000,1000,1000,1000,1,num_2,0.4694314000662416,,33,9,2026-03-12_17h58.52.767,2026A_exp2,2022.2.4,60.005460524515534,
0,0,6.1,6.1,0,0,27,27,42,,,,,118.41175840003416,119.04583870014176,119.04583870014176,119.54680110001937,45,315,119.54680110001937,119.54680110001937,119.54680110001937,119.54680110001937,119.54680110001937,119.54680110001937,119.54680110001937,119.54680110001937,119.54680110001937,119.91364459996112,119.91364459996112,119.91364459996112,119.91364459996112,119.91364459996112,119.91364459996112,119.91364459996112,119.91364459996112,119.91364459996112,13,4,"[0.0007642998825758696, 0.10146569996140897, 0.15157029987312853, 0.20040849992074072]","[0.06709949998185039, 0.11800259980373085, 0.1691218998748809, 0.2673455998301506]",119.91364459996112,120.11345700011589,6.1,120.11345700011589,1,6.1,1,1,1000,num_4,1.1319622001610696,,33,9,2026-03-12_17h58.52.767,2026A_exp2,2022.2.4,60.005460524515534,
1000,1,0.0,4.9,0,0,28,28,74,,,,,121.26451670005918,121.89863550011069,121.89863550011069,122.3998213999439,45,315,122.3998213999439,122.3998213999439,122.3998213999439,122.3998213999439,122.3998213999439,122.3998213999439,122.3998213999439,122.3998213999439,122.3998213999439,122.76634370000102,122.76634370000102,122.76634370000102,122.76634370000102,122.76634370000102,122.76634370000102,122.76634370000102,122.76634370000102,122.76634370000102,16,1,[0.0012281001545488834],[0.11701350007206202],122.76634370000102,122.96847820002586,1000,122.96847820002586,1000,1000,1000,1000,1,num_2,0.42946110013872385,,33,9,2026-03-12_17h58.52.767,2026A_exp2,2022.2.4,60.005460524515534,
1,0,0.0,0.0,0,0,29,29,34,,,,,123.41678229998797,124.06747970008291,124.06747970008291,124.56878269999288,315,45,124.56878269999288,124.56878269999288,124.56878269999288,124.56878269999288,124.56878269999288,124.56878269999288,124.56878269999288,124.56878269999288,124.56878269999288,124.9351782000158,124.9351782000158,124.9351782000158,124.9351782000158,124.9351782000158,124.9351782000158,124.9351782000158,124.9351782000158,124.9351782000158,3,3,"[0.0011992000509053469, 0.23369120014831424, 0.30057930015027523]","[0.21694840001873672, 0.2670965001452714, 0.3671866999939084]",124.9351782000158,125.13541870005429,0.0,125.13541870005429,1,0.0,0,0,1000,num_4,0.7497781000565737,,33,9,2026-03-12_17h58.52.767,2026A_exp2,2022.2.4,60.005460524515534,
0,0,0.0,3.7,0,0,30,30,47,,,,,125.90262269997038,126.55344470008276,126.55344470008276,127.05455180001445,315,315,127.05455180001445,127.05455180001445,127.05455180001445,127.05455180001445,127.05455180001445,127.05455180001445,127.05455180001445,127.05455180001445,127.05455180001445,127.40426280000247,127.40426280000247,127.40426280000247,127.40426280000247,127.40426280000247,127.40426280000247,127.40426280000247,127.40426280000247,127.40426280000247,8,1,[0.13368809991516173],[0.35057999985292554],127.40426280000247,127.60433509992436,3.7,127.60433509992436,1,3.7,1,1,1000,num_4,0.7129544999916106,,33,9,2026-03-12_17h58.52.767,2026A_exp2,2022.2.4,60.005460524515534,
1000,1,6.1,4.9,0,0,31,31,68,,,,,128.33837120002136,128.98912980011664,128.98912980011664,129.49028649996035,315,45,129.49028649996035,129.49028649996035,129.49028649996035,129.49028649996035,129.49028649996035,129.49028649996035,129.49028649996035,129.49028649996035,129.49028649996035,129.84006970003247,129.84006970003247,129.84006970003247,129.84006970003247,129.84006970003247,129.84006970003247,129.84006970003247,129.84006970003247,129.84006970003247,1,2,"[0.0007166999857872725, 0.2343999999575317]","[0.21763899992220104, 0.35118389991112053]",129.84006970003247,130.04216519999318,1000,130.04216519999318,1000,1000,1000,1000,1,num_2,0.8112260999623686,,33,9,2026-03-12_17h58.52.767,2026A_exp2,2022.2.4,60.005460524515534,
1,0,6.1,3.7,0,0,32,32,31,,,,,130.8743207999505,131.5250000001397,131.5250000001397,132.0261630001478,45,45,132.0261630001478,132.0261630001478,132.0261630001478,132.0261630001478,132.0261630001478,132.0261630001478,132.0261630001478,132.0261630001478,132.0261630001478,132.39261250011623,132.39261250011623,132.39261250011623,132.39261250011623,132.39261250011623,132.39261250011623,132.39261250011623,132.39261250011623,132.39261250011623,0,1,[0.001242100028321147],[0.3672666000202298],132.39261250011623,132.5927643000614,6.1,132.5927643000614,1,6.1,1,1,1000,num_4,0.6133502000011504,,33,9,2026-03-12_17h58.52.767,2026A_exp2,2022.2.4,60.005460524515534,
1000,1,0.0,3.7,0,0,33,33,57,,,,,133.22664600005373,133.87738319998607,133.87738319998607,134.36186220007949,45,315,134.36186220007949,134.36186220007949,134.36186220007949,134.36186220007949,134.36186220007949,134.36186220007949,134.36186220007949,134.36186220007949,134.36186220007949,134.7283294000663,134.7283294000663,134.7283294000663,134.7283294000663,134.7283294000663,134.7283294000663,134.7283294000663,134.7283294000663,134.7283294000663,4,3,"[0.03322930005379021, 0.06674979999661446, 0.11674210010096431]","[0.04999480000697076, 0.10002860007807612, 0.366698200115934]",134.7283294000663,134.93049199995585,1000,134.93049199995585,1000,1000,1000,1000,1,num_2,0.4350286000408232,,33,9,2026-03-12_17h58.52.767,2026A_exp2,2022.2.4,60.005460524515534,
1000,1,0.0,3.7,1,0,34,34,65,,,,,135.39559120009653,136.04630409996025,136.04630409996025,136.54739359999076,315,45,136.54739359999076,136.54739359999076,136.54739359999076,136.54739359999076,136.54739359999076,136.54739359999076,136.54739359999076,136.54739359999076,136.54739359999076,136.91373100015335,136.91373100015335,136.91373100015335,136.91373100015335,136.91373100015335,136.91373100015335,136.91373100015335,136.91373100015335,136.91373100015335,11,4,"[0.06672620004974306, 0.18353840010240674, 0.3001125999726355, 0.3500616999808699]","[0.11689259996637702, 0.26695069996640086, 0.333414199994877, 0.3666750001721084]",136.91373100015335,137.11620340007357,1000,137.11620340007357,1000,1000,1000,1000,1,num_2,0.40991459996439517,,33,9,2026-03-12_17h58.52.767,2026A_exp2,2022.2.4,60.005460524515534,
1,0,0.0,4.9,1,0,35,35,1,,,,,137.54744250001386,138.19819830008782,138.19819830008782,138.69963439996354,45,315,138.69963439996354,138.69963439996354,138.69963439996354,138.69963439996354,138.69963439996354,138.69963439996354,138.69963439996354,138.69963439996354,138.69963439996354,139.0659729000181,139.0659729000181,139.0659729000181,139.0659729000181,139.0659729000181,139.0659729000181,139.0659729000181,139.0659729000181,139.0659729000181,7,2,"[0.0007737998384982347, 0.13342589978128672]","[0.10018039983697236, 0.30088149989023805]",139.0659729000181,139.2660535001196,4.9,139.2660535001196,1,4.9,1,1,1000,num_4,0.6520051998086274,,33,9,2026-03-12_17h58.52.767,2026A_exp2,2022.2.4,60.005460524515534,
1000,1,6.1,4.9,0,0,36,36,49,,,,,139.95008490001783,140.60074399993755,140.60074399993755,141.08530319994316,45,45,141.08530319994316,141.08530319994316,141.08530319994316,141.08530319994316,141.08530319994316,141.08530319994316,141.08530319994316,141.08530319994316,141.08530319994316,141.45169100002386,141.45169100002386,141.45169100002386,141.45169100002386,141.45169100002386,141.45169100002386,141.45169100002386,141.45169100002386,141.45169100002386,6,2,"[0.08361760014668107, 0.1336745999287814]","[0.11707210005261004, 0.3672472001053393]",141.45169100002386,141.65404659998603,1000,141.65404659998603,1000,1000,1000,1000,0,num_3,0.5523574999533594,,33,9,2026-03-12_17h58.52.767,2026A_exp2,2022.2.4,60.005460524515534,
1000,1,0.0,6.1,1,0,37,37,62,,,,,142.23569720005617,142.886367399944,142.886367399944,143.404302299954,315,45,143.404302299954,143.404302299954,143.404302299954,143.404302299954,143.404302299954,143.404302299954,143.404302299954,143.404302299954,143.404302299954,143.75398889998905,143.75398889998905,143.75398889998905,143.75398889998905,143.75398889998905,143.75398889998905,143.75398889998905,143.75398889998905,143.75398889998905,12,4,"[0.00470969988964498, 0.04685829998925328, 0.2822356999386102, 0.34888279996812344]","[0.03360460000112653, 0.1654028999619186, 0.2990238000638783, 0.36544260010123253]",143.75398889998905,143.9692830001004,1000,143.9692830001004,1000,1000,1000,1000,1,num_2,0.34120450005866587,,33,9,2026-03-12_17h58.52.767,2026A_exp2,2022.2.4,60.005460524515534,
1,0,3.7,0.0,1,0,38,38,13,,,,,144.33776820008643,144.9885267999489,144.9885267999489,145.48949109995738,45,315,145.48949109995738,145.48949109995738,145.48949109995738,145.48949109995738,145.48949109995738,145.48949109995738,145.48949109995738,145.48949109995738,145.48949109995738,145.8562187999487,145.8562187999487,145.8562187999487,145.8562187999487,145.8562187999487,145.8562187999487,145.8562187999487,145.8562187999487,145.8562187999487,2,3,"[0.0012020999565720558, 0.3172877000179142, 0.36670179991051555]","[0.3005514000542462, 0.3501047999598086, 0.36670439993031323]",145.8562187999487,146.05624309997074,0.0,146.05624309997074,0,0.0,0,1,1000,num_1,0.613656000001356,,33,9,2026-03-12_17h58.52.767,2026A_exp2,2022.2.4,60.005460524515534,
1000,1,0.0,0.0,1,0,39,39,40,,,,,146.69013809994794,147.34094050014392,147.34094050014392,147.8253643999342,45,45,147.8253643999342,147.8253643999342,147.8253643999342,147.8253643999342,147.8253643999342,147.8253643999342,147.8253643999342,147.8253643999342,147.8253643999342,148.19158910005353,148.19158910005353,148.19158910005353,148.19158910005353,148.19158910005353,148.19158910005353,148.19158910005353,148.19158910005353,148.19158910005353,6,6,"[0.001289699925109744, 0.049970399821177125, 0.133590699872002, 0.20033539994619787, 0.2332295998930931, 0.36732620000839233]","[0.03351500001735985, 0.10010269982740283, 0.18331360002048314, 0.2166271999012679, 0.3504833998158574, 0.36733109992928803]",148.19158910005353,148.39408920006827,1000,148.39408920006827,1000,1000,1000,1000,1,num_2,0.4443469999823719,,33,9,2026-03-12_17h58.52.767,2026A_exp2,2022.2.4,60.005460524515534,
0,0,0.0,3.7,0,0,40,40,83,,,,,148.85900590009987,149.50974190002307,149.50974190002307,150.01099220011383,315,45,150.01099220011383,150.01099220011383,150.01099220011383,150.01099220011383,150.01099220011383,150.01099220011383,150.01099220011383,150.01099220011383,150.01099220011383,150.37737460015342,150.37737460015342,150.37737460015342,150.37737460015342,150.37737460015342,150.37737460015342,150.37737460015342,150.37737460015342,150.37737460015342,23,0,,,150.37737460015342,150.57734850002453,3.7,150.57734850002453,1,3.7,1,1,1000,num_4,0.643946000142023,,33,9,2026-03-12_17h58.52.767,2026A_exp2,2022.2.4,60.005460524515534,
1000,1,0.0,0.0,1,0,41,41,46,,,,,151.2447083001025,151.89551490009762,151.89551490009762,152.38433600007556,315,315,152.38433600007556,152.38433600007556,152.38433600007556,152.38433600007556,152.38433600007556,152.38433600007556,152.38433600007556,152.38433600007556,152.38433600007556,152.7462925000582,152.7462925000582,152.7462925000582,152.7462925000582,152.7462925000582,152.7462925000582,152.7462925000582,152.7462925000582,152.7462925000582,0,1,[0.002581499982625246],[0.3657273000571877],152.7462925000582,152.94824810000136,1000,152.94824810000136,1000,1000,1000,1000,0,num_3,0.5050806000363082,,33,9,2026-03-12_17h58.52.767,2026A_exp2,2022.2.4,60.005460524515534,
1000,1,0.0,4.9,1,0,42,42,79,,,,,153.48028769996017,154.1309551000595,154.1309551000595,154.63232959993184,315,315,154.63232959993184,154.63232959993184,154.63232959993184,154.63232959993184,154.63232959993184,154.63232959993184,154.63232959993184,154.63232959993184,154.63232959993184,154.99837479996495,154.99837479996495,154.99837479996495,154.99837479996495,154.99837479996495,154.99837479996495,154.99837479996495,154.99837479996495,154.99837479996495,15,2,"[0.03320529987104237, 0.21703590010292828]","[0.11665860004723072, 0.26690819999203086]",154.99837479996495,155.19866400002502,1000,155.19866400002502,1000,1000,1000,1000,1,num_2,0.6704059999901801,,33,9,2026-03-12_17h58.52.767,2026A_exp2,2022.2.4,60.005460524515534,
1000,1,3.7,0.0,1,0,43,43,88,,,,,155.89937530015595,156.55011490010656,156.55011490010656,157.0511229999829,315,315,157.0511229999829,157.0511229999829,157.0511229999829,157.0511229999829,157.0511229999829,157.0511229999829,157.0511229999829,157.0511229999829,157.0511229999829,157.41747320001014,157.41747320001014,157.41747320001014,157.41747320001014,157.41747320001014,157.41747320001014,157.41747320001014,157.41747320001014,157.41747320001014,15,1,[0.2505803001113236],[0.3671184000559151],157.41747320001014,157.62008309992962,1000,157.62008309992962,1000,1000,1000,1000,0,num_3,0.3692444998305291,,33,9,2026-03-12_17h58.52.767,2026A_exp2,2022.2.4,60.005460524515534,
1,0,4.9,4.9,0,0,44,44,39,,,,,158.0180520999711,158.66893079993315,158.66893079993315,159.15319099999033,315,45,159.15319099999033,159.15319099999033,159.15319099999033,159.15319099999033,159.15319099999033,159.15319099999033,159.15319099999033,159.15319099999033,159.15319099999033,159.53612900013104,159.53612900013104,159.53612900013104,159.53612900013104,159.53612900013104,159.53612900013104,159.53612900013104,159.53612900013104,159.53612900013104,20,3,"[0.0012423999141901731, 0.05025979992933571, 0.31712340004742146]","[0.033410799922421575, 0.06686139991506934, 0.3338005000259727]",159.53612900013104,159.73657790012658,4.9,159.73657790012658,1,4.9,1,1,1000,num_4,1.0295975001063198,,33,9,2026-03-12_17h58.52.767,2026A_exp2,2022.2.4,60.005460524515534,
1,0,3.7,4.9,1,0,45,45,71,,,,,160.78750750003383,161.438198100077,161.438198100077,161.92275450006127,45,315,161.92275450006127,161.92275450006127,161.92275450006127,161.92275450006127,161.92275450006127,161.92275450006127,161.92275450006127,161.92275450006127,161.92275450006127,162.2891570001375,162.2891570001375,162.2891570001375,162.2891570001375,162.2891570001375,162.2891570001375,162.2891570001375,162.2891570001375,162.2891570001375,22,1,[0.001249799970537424],[0.0172989999409765],162.2891570001375,162.48920370009728,4.9,162.48920370009728,1,4.9,1,1,1000,num_4,0.8207694999873638,,33,9,2026-03-12_17h58.52.767,2026A_exp2,2022.2.4,60.005460524515534,
1000,1,0.0,0.0,0,0,46,46,36,,,,,163.34008230012842,163.99073330010287,163.99073330010287,164.49205669993535,315,45,164.49205669993535,164.49205669993535,164.49205669993535,164.49205669993535,164.49205669993535,164.49205669993535,164.49205669993535,164.49205669993535,164.49205669993535,164.84170689992607,164.84170689992607,164.84170689992607,164.84170689992607,164.84170689992607,164.84170689992607,164.84170689992607,164.84170689992607,164.84170689992607,13,3,"[0.18357320013456047, 0.28386540012434125, 0.3504648001398891]","[0.26709809992462397, 0.33392010000534356, 0.3504689000546932]",164.84170689992607,165.04319320013747,1000,165.04319320013747,1000,1000,1000,1000,1,num_2,0.6273148998152465,,33,9,2026-03-12_17h58.52.767,2026A_exp2,2022.2.4,60.005460524515534,
1,0,4.9,0.0,1,0,47,47,25,,,,,165.69255429995246,166.34315269999206,166.34315269999206,166.84419380011968,315,45,166.84419380011968,166.84419380011968,166.84419380011968,166.84419380011968,166.84419380011968,166.84419380011968,166.84419380011968,166.84419380011968,166.84419380011968,167.21075990004465,167.21075990004465,167.21075990004465,167.21075990004465,167.21075990004465,167.21075990004465,167.21075990004465,167.21075990004465,167.21075990004465,0,1,[0.0010019999463111162],[0.36719490005634725],167.21075990004465,167.41094550001435,0.0,167.41094550001435,0,0.0,0,1,1000,num_1,0.6589899000246078,,33,9,2026-03-12_17h58.52.767,2026A_exp2,2022.2.4,60.005460524515534,
1,0,0.0,0.0,1,0,48,48,21,,,,,168.09477620013058,168.74538270011544,168.74538270011544,169.23998429998755,45,315,169.23998429998755,169.23998429998755,169.23998429998755,169.23998429998755,169.23998429998755,169.23998429998755,169.23998429998755,169.23998429998755,169.23998429998755,169.5964907000307,169.5964907000307,169.5964907000307,169.5964907000307,169.5964907000307,169.5964907000307,169.5964907000307,169.5964907000307,169.5964907000307,2,1,[0.0424842000938952],[0.36489180009812117],169.5964907000307,169.79668179992586,0.0,169.79668179992586,0,0.0,0,1,1000,num_1,0.8173058000393212,,33,9,2026-03-12_17h58.52.767,2026A_exp2,2022.2.4,60.005460524515534,
1,0,3.7,6.1,1,0,49,49,77,,,,,170.63075010012835,171.28145810007118,171.28145810007118,171.78268870012835,45,315,171.78268870012835,171.78268870012835,171.78268870012835,171.78268870012835,171.78268870012835,171.78268870012835,171.78268870012835,171.78268870012835,171.78268870012835,172.14904149994254,172.14904149994254,172.14904149994254,172.14904149994254,172.14904149994254,172.14904149994254,172.14904149994254,172.14904149994254,172.14904149994254,15,4,"[0.1002032000105828, 0.1502293001394719, 0.30037080007605255, 0.36720039998181164]","[0.1336066999938339, 0.21702430001460016, 0.3336357001680881, 0.3672045001294464]",172.14904149994254,172.34918210003525,6.1,172.34918210003525,1,6.1,1,1,1000,num_4,0.5520113999955356,,33,9,2026-03-12_17h58.52.767,2026A_exp2,2022.2.4,60.005460524515534,
1000,1,0.0,0.0,1,0,50,50,23,,,,,172.93312820000574,173.58382309996523,173.58382309996523,174.06811879994348,315,45,174.06811879994348,174.06811879994348,174.06811879994348,174.06811879994348,174.06811879994348,174.06811879994348,174.06811879994348,174.06811879994348,174.06811879994348,174.43458300014026,174.43458300014026,174.43458300014026,174.43458300014026,174.43458300014026,174.43458300014026,174.43458300014026,174.43458300014026,174.43458300014026,23,0,,,174.43458300014026,174.63670190004632,1000,174.63670190004632,1000,1000,1000,1000,0,num_3,0.36157190008088946,,33,9,2026-03-12_17h58.52.767,2026A_exp2,2022.2.4,60.005460524515534,
1000,1,0.0,0.0,0,0,51,51,67,,,,,175.01841680007055,175.6693444000557,175.6693444000557,176.1702738001477,315,315,176.1702738001477,176.1702738001477,176.1702738001477,176.1702738001477,176.1702738001477,176.1702738001477,176.1702738001477,176.1702738001477,176.1702738001477,176.53679020004347,176.53679020004347,176.53679020004347,176.53679020004347,176.53679020004347,176.53679020004347,176.53679020004347,176.53679020004347,176.53679020004347,0,1,[0.0007960000075399876],[0.3676148001104593],176.53679020004347,176.7386845999863,1000,176.7386845999863,1000,1000,1000,1000,1,num_2,0.36285110004246235,,33,9,2026-03-12_17h58.52.767,2026A_exp2,2022.2.4,60.005460524515534,
1000,1,3.7,4.9,0,0,52,52,64,,,,,177.12054529995658,177.77128560002893,177.77128560002893,178.27237679995596,45,45,178.27237679995596,178.27237679995596,178.27237679995596,178.27237679995596,178.27237679995596,178.27237679995596,178.27237679995596,178.27237679995596,178.27237679995596,178.63875190005638,178.63875190005638,178.63875190005638,178.63875190005638,178.63875190005638,178.63875190005638,178.63875190005638,178.63875190005638,178.63875190005638,3,2,"[0.0007206997834146023, 0.21743779978714883]","[0.20081559987738729, 0.3509201998822391]",178.63875190005638,178.84089570003562,1000,178.84089570003562,1000,1000,1000,1000,1,num_2,0.604871500050649,,33,9,2026-03-12_17h58.52.767,2026A_exp2,2022.2.4,60.005460524515534,
1000,1,0.0,6.1,1,0,53,53,19,,,,,179.47294949996285,180.12409049994312,180.12409049994312,180.62474010000005,45,315,180.62474010000005,180.62474010000005,180.62474010000005,180.62474010000005,180.62474010000005,180.62474010000005,180.62474010000005,180.62474010000005,180.62474010000005,180.99119010008872,180.99119010008872,180.99119010008872,180.99119010008872,180.99119010008872,180.99119010008872,180.99119010008872,180.99119010008872,180.99119010008872,10,4,"[0.0014192999806255102, 0.1666564999613911, 0.26690370007418096, 0.33361249999143183]","[0.14955900004133582, 0.20030690007843077, 0.28319930005818605, 0.35027809999883175]",180.99119010008872,181.19144439999945,1000,181.19144439999945,1000,1000,1000,1000,1,num_2,0.4071072000078857,,33,9,2026-03-12_17h58.52.767,2026A_exp2,2022.2.4,60.005460524515534,
1000,1,6.1,3.7,0,0,54,54,18,,,,,181.6250200001523,182.27697190013714,182.27697190013714,182.77676020003855,45,45,182.77676020003855,182.77676020003855,182.77676020003855,182.77676020003855,182.77676020003855,182.77676020003855,182.77676020003855,182.77676020003855,182.77676020003855,183.1433476000093,183.1433476000093,183.1433476000093,183.1433476000093,183.1433476000093,183.1433476000093,183.1433476000093,183.1433476000093,183.1433476000093,17,2,"[0.2669367000926286, 0.31699670013040304]","[0.30036850017495453, 0.367013200186193]",183.1433476000093,183.34542919998057,1000,183.34542919998057,1000,1000,1000,1000,0,num_3,0.37304869992658496,,33,9,2026-03-12_17h58.52.767,2026A_exp2,2022.2.4,60.005460524515534,
1000,1,3.7,4.9,1,0,55,55,20,,,,,183.74378959997557,184.39494050014764,184.39494050014764,184.89576860005036,315,315,184.89576860005036,184.89576860005036,184.89576860005036,184.89576860005036,184.89576860005036,184.89576860005036,184.89576860005036,184.89576860005036,184.89576860005036,185.26219079992734,185.26219079992734,185.26219079992734,185.26219079992734,185.26219079992734,185.26219079992734,185.26219079992734,185.26219079992734,185.26219079992734,0,1,[0.0011962000280618668],[0.36719490005634725],185.26219079992734,185.46250739996321,1000,185.46250739996321,1000,1000,1000,1000,1,num_2,0.34366500005126,,33,9,2026-03-12_17h58.52.767,2026A_exp2,2022.2.4,60.005460524515534,
1000,1,0.0,6.1,1,0,56,56,69,,,,,185.82929969998077,186.48004380008206,186.48004380008206,186.9811474001035,315,45,186.9811474001035,186.9811474001035,186.9811474001035,186.9811474001035,186.9811474001035,186.9811474001035,186.9811474001035,186.9811474001035,186.9811474001035,187.347574000014,187.347574000014,187.347574000014,187.347574000014,187.347574000014,187.347574000014,187.347574000014,187.347574000014,187.347574000014,10,1,[0.16687329998239875],[0.3669211999513209],187.347574000014,187.54968459997326,1000,187.54968459997326,1000,1000,1000,1000,1,num_2,0.35213969997130334,,33,9,2026-03-12_17h58.52.767,2026A_exp2,2022.2.4,60.005460524515534,
1,0,3.7,0.0,1,0,57,57,11,,,,,187.93150910013355,188.58205100009218,188.58205100009218,189.09744950011373,315,315,189.09744950011373,189.09744950011373,189.09744950011373,189.09744950011373,189.09744950011373,189.09744950011373,189.09744950011373,189.09744950011373,189.09744950011373,189.44968229997903,189.44968229997903,189.44968229997903,189.44968229997903,189.44968229997903,189.44968229997903,189.44968229997903,189.44968229997903,189.44968229997903,17,2,"[0.19690959993749857, 0.3138743999879807]","[0.23032019985839725, 0.3639138999860734]",189.44968229997903,189.64987560012378,0.0,189.64987560012378,0,0.0,0,1,1000,num_1,0.9720507999882102,,33,9,2026-03-12_17h58.52.767,2026A_exp2,2022.2.4,60.005460524515534,
1,0,0.0,0.0,0,0,58,58,51,,,,,190.65065680001862,191.30141200008802,191.30141200008802,191.78597080009058,45,315,191.78597080009058,191.78597080009058,191.78597080009058,191.78597080009058,191.78597080009058,191.78597080009058,191.78597080009058,191.78597080009058,191.78597080009058,192.15241720015183,192.15241720015183,192.15241720015183,192.15241720015183,192.15241720015183,192.15241720015183,192.15241720015183,192.15241720015183,192.15241720015183,0,1,[0.0012217999901622534],[0.36718269996345043],192.15241720015183,192.35258700000122,0.0,192.35258700000122,1,0.0,0,0,1000,num_4,1.1966154999099672,,33,9,2026-03-12_17h58.52.767,2026A_exp2,2022.2.4,60.005460524515534,
1000,1,0.0,4.9,1,0,59,59,78,,,,,193.57030329992995,194.22103859996423,194.22103859996423,194.70522140013054,315,45,194.70522140013054,194.70522140013054,194.70522140013054,194.70522140013054,194.70522140013054,194.70522140013054,194.70522140013054,194.70522140013054,194.70522140013054,195.07212100015022,195.07212100015022,195.07212100015022,195.07212100015022,195.07212100015022,195.07212100015022,195.07212100015022,195.07212100015022,195.07212100015022,17,5,"[0.0010827998630702496, 0.06643839995376766, 0.1039452999830246, 0.13794069993309677, 0.2517828999552876]","[0.03335090004839003, 0.08652630005963147, 0.12092599994502962, 0.15552809997461736, 0.2685155998915434]",195.07212100015022,195.2876953999512,1000,195.2876953999512,1000,1000,1000,1000,1,num_2,0.40666189999319613,,33,9,2026-03-12_17h58.52.767,2026A_exp2,2022.2.4,60.005460524515534,
1000,1,0.0,0.0,0,0,60,60,37,,,,,195.7226392000448,196.37312210001983,196.37312210001983,196.8741973999422,45,45,196.8741973999422,196.8741973999422,196.8741973999422,196.8741973999422,196.8741973999422,196.8741973999422,196.8741973999422,196.8741973999422,196.8741973999422,197.24081799993291,197.24081799993291,197.24081799993291,197.24081799993291,197.24081799993291,197.24081799993291,197.24081799993291,197.24081799993291,197.24081799993291,0,1,[0.0012372001074254513],[0.3671816000714898],197.24081799993291,197.4421972001437,1000,197.4421972001437,1000,1000,1000,1000,0,num_3,0.3472798999864608,,33,9,2026-03-12_17h58.52.767,2026A_exp2,2022.2.4,60.005460524515534,
1000,1,6.1,0.0,0,0,61,61,89,,,,,197.80789329996333,198.45855240011588,198.45855240011588,198.95974209997803,45,315,198.95974209997803,198.95974209997803,198.95974209997803,198.95974209997803,198.95974209997803,198.95974209997803,198.95974209997803,198.95974209997803,198.95974209997803,199.3262146001216,199.3262146001216,199.3262146001216,199.3262146001216,199.3262146001216,199.3262146001216,199.3262146001216,199.3262146001216,199.3262146001216,23,0,,,199.3262146001216,199.52860440011136,1000,199.52860440011136,1000,1000,1000,1000,0,num_3,0.3015129999257624,,33,9,2026-03-12_17h58.52.767,2026A_exp2,2022.2.4,60.005460524515534,
1,0,0.0,3.7,1,0,62,62,0,,,,,199.85995680000633,200.51075770007446,200.51075770007446,201.01190589996986,45,45,201.01190589996986,201.01190589996986,201.01190589996986,201.01190589996986,201.01190589996986,201.01190589996986,201.01190589996986,201.01190589996986,201.01190589996986,201.37822509999387,201.37822509999387,201.37822509999387,201.37822509999387,201.37822509999387,201.37822509999387,201.37822509999387,201.37822509999387,201.37822509999387,3,3,"[0.0012042999733239412, 0.3171771999914199, 0.3672233000397682]","[0.2669861998874694, 0.3504989999346435, 0.36722809984348714]",201.37822509999387,201.57842040015385,3.7,201.57842040015385,1,3.7,1,1,1000,num_4,0.7080610999837518,,33,9,2026-03-12_17h58.52.767,2026A_exp2,2022.2.4,60.005460524515534,
1,0,3.7,0.0,1,0,63,63,28,,,,,202.31235729996115,202.96326979994774,202.96326979994774,203.4478222001344,45,45,203.4478222001344,203.4478222001344,203.4478222001344,203.4478222001344,203.4478222001344,203.4478222001344,203.4478222001344,203.4478222001344,203.4478222001344,203.81396170007065,203.81396170007065,203.81396170007065,203.81396170007065,203.81396170007065,203.81396170007065,203.81396170007065,203.81396170007065,203.81396170007065,1,1,[0.0007106000557541847],[0.3675106998998672],203.81396170007065,204.01423309999518,0.0,204.01423309999518,0,0.0,0,1,1000,num_1,0.7911225999705493,,33,9,2026-03-12_17h58.52.767,2026A_exp2,2022.2.4,60.005460524515534,
1,0,0.0,0.0,0,0,64,64,44,,,,,204.83163779997267,205.48241739999503,205.48241739999503,205.96669080015272,45,315,205.96669080015272,205.96669080015272,205.96669080015272,205.96669080015272,205.96669080015272,205.96669080015272,205.96669080015272,205.96669080015272,205.96669080015272,206.33322650007904,206.33322650007904,206.33322650007904,206.33322650007904,206.33322650007904,206.33322650007904,206.33322650007904,206.33322650007904,206.33322650007904,23,0,,,206.33322650007904,206.53327520005405,0.0,206.53327520005405,1,0.0,0,0,1000,num_4,0.6568414999637753,,33,9,2026-03-12_17h58.52.767,2026A_exp2,2022.2.4,60.005460524515534,
0,0,6.1,0.0,1,0,65,65,30,,,,,207.21725090011023,207.86801550001837,207.86801550001837,208.35229220008478,315,45,208.35229220008478,208.35229220008478,208.35229220008478,208.35229220008478,208.35229220008478,208.35229220008478,208.35229220008478,208.35229220008478,208.35229220008478,208.7189082999248,208.7189082999248,208.7189082999248,208.7189082999248,208.7189082999248,208.7189082999248,208.7189082999248,208.7189082999248,208.7189082999248,23,0,,,208.7189082999248,208.9191475000698,6.1,208.9191475000698,1,6.1,1,1,1000,num_4,0.6707289998885244,,33,9,2026-03-12_17h58.52.767,2026A_exp2,2022.2.4,60.005460524515534,
1000,1,0.0,0.0,0,0,66,66,15,,,,,209.6197242999915,210.27056530001573,210.27056530001573,210.75495740002953,45,315,210.75495740002953,210.75495740002953,210.75495740002953,210.75495740002953,210.75495740002953,210.75495740002953,210.75495740002953,210.75495740002953,210.75495740002953,211.12132970010862,211.12132970010862,211.12132970010862,211.12132970010862,211.12132970010862,211.12132970010862,211.12132970010862,211.12132970010862,211.12132970010862,13,4,"[0.03360979980789125, 0.06682829977944493, 0.10028319992125034, 0.26678179996088147]","[0.0502274997998029, 0.08365839999169111, 0.15023099980317056, 0.3504237998276949]",211.12132970010862,211.34571190015413,1000,211.34571190015413,1000,1000,1000,1000,0,num_3,0.6119909998960793,,33,9,2026-03-12_17h58.52.767,2026A_exp2,2022.2.4,60.005460524515534,
1,0,0.0,0.0,0,0,67,67,17,,,,,211.97208810015582,212.62286560004577,212.62286560004577,213.12398060015403,45,45,213.12398060015403,213.12398060015403,213.12398060015403,213.12398060015403,213.12398060015403,213.12398060015403,213.12398060015403,213.12398060015403,213.12398060015403,213.4903784999624,213.4903784999624,213.4903784999624,213.4903784999624,213.4903784999624,213.4903784999624,213.4903784999624,213.4903784999624,213.4903784999624,16,5,"[0.001235899981111288, 0.06693380000069737, 0.11687119980342686, 0.3170427998993546, 0.36720589990727603]","[0.03345109988003969, 0.10021750000305474, 0.13340679998509586, 0.33368249982595444, 0.3672102999407798]",213.4903784999624,213.6905740001239,0.0,213.6905740001239,1,0.0,0,0,1000,num_4,0.843974299961701,,33,9,2026-03-12_17h58.52.767,2026A_exp2,2022.2.4,60.005460524515534,
1,0,4.9,3.7,0,0,68,68,9,,,,,214.55794170009904,215.20879980013706,215.20879980013706,215.69318070006557,315,45,215.69318070006557,215.69318070006557,215.69318070006557,215.69318070006557,215.69318070006557,215.69318070006557,215.69318070006557,215.69318070006557,215.69318070006557,216.05962910014205,216.05962910014205,216.05962910014205,216.05962910014205,216.05962910014205,216.05962910014205,216.05962910014205,216.05962910014205,216.05962910014205,22,1,[0.33366030012257397],[0.35048420005477965],216.05962910014205,216.2597610000521,4.9,216.2597610000521,1,4.9,1,1,1000,num_4,0.9463851000182331,,33,9,2026-03-12_17h58.52.767,2026A_exp2,2022.2.4,60.005460524515534,
1000,1,3.7,0.0,1,0,69,69,54,,,,,217.22713420004584,217.87812340003438,217.87812340003438,218.3625209000893,45,315,218.3625209000893,218.3625209000893,218.3625209000893,218.3625209000893,218.3625209000893,218.3625209000893,218.3625209000893,218.3625209000893,218.3625209000893,218.72891730000265,218.72891730000265,218.72891730000265,218.72891730000265,218.72891730000265,218.72891730000265,218.72891730000265,218.72891730000265,218.72891730000265,14,2,"[0.0012499000877141953, 0.06676140008494258]","[0.017252200050279498, 0.20012130006216466]",218.72891730000265,218.9312122000847,1000,218.9312122000847,1000,1000,1000,1000,0,num_3,0.46673489990644157,,33,9,2026-03-12_17h58.52.767,2026A_exp2,2022.2.4,60.005460524515534,
0,0,0.0,0.0,1,0,70,70,38,,,,,219.42967949993908,220.0800127000548,220.0800127000548,220.5813521000091,45,45,220.5813521000091,220.5813521000091,220.5813521000091,220.5813521000091,220.5813521000091,220.5813521000091,220.5813521000091,220.5813521000091,220.5813521000091,220.93107539997436,220.93107539997436,220.93107539997436,220.93107539997436,220.93107539997436,220.93107539997436,220.93107539997436,220.93107539997436,220.93107539997436,7,1,[0.08318960014730692],[0.33329340000636876],220.93107539997436,221.13125790003687,0.0,221.14798530004919,1,0.0,0,0,1000,num_4,0.6892713000997901,,33,9,2026-03-12_17h58.52.767,2026A_exp2,2022.2.4,60.005460524515534,
1000,1,0.0,0.0,0,0,71,71,72,,,,,221.86541040008888,222.49942000000738,222.49942000000738,223.0004122001119,315,315,223.0004122001119,223.0004122001119,223.0004122001119,223.0004122001119,223.0004122001119,223.0004122001119,223.0004122001119,223.0004122001119,223.0004122001119,223.36685690004379,223.36685690004379,223.36685690004379,223.36685690004379,223.36685690004379,223.36685690004379,223.36685690004379,223.36685690004379,223.36685690004379,14,3,"[0.0012399000115692616, 0.20040989993140101, 0.30043649999424815]","[0.11713530006818473, 0.2337738999631256, 0.3172192999627441]",223.36685690004379,223.56883060000837,1000,223.56883060000837,1000,1000,1000,1000,1,num_2,0.6289368998259306,,33,9,2026-03-12_17h58.52.767,2026A_exp2,2022.2.4,60.005460524515534,
1000,1,0.0,4.9,1,0,72,72,55,,,,,224.21763810003176,224.86838110000826,224.86838110000826,225.36955990013666,315,45,225.36955990013666,225.36955990013666,225.36955990013666,225.36955990013666,225.36955990013666,225.36955990013666,225.36955990013666,225.36955990013666,225.36955990013666,225.7356301001273,225.7356301001273,225.7356301001273,225.7356301001273,225.7356301001273,225.7356301001273,225.7356301001273,225.7356301001273,225.7356301001273,16,4,"[0.11679080012254417, 0.18364699999801815, 0.21713050012476742, 0.26772450003772974]","[0.16703719994984567, 0.2005499000661075, 0.2339741000905633, 0.28411970008164644]",225.7356301001273,225.93791800015606,1000,225.93791800015606,1000,1000,1000,1000,1,num_2,0.3151637001428753,,33,9,2026-03-12_17h58.52.767,2026A_exp2,2022.2.4,60.005460524515534,
1000,1,4.9,0.0,0,0,73,73,50,,,,,226.26977479993366,226.92047150013968,226.92047150013968,227.42162599996664,315,45,227.42162599996664,227.42162599996664,227.42162599996664,227.42162599996664,227.42162599996664,227.42162599996664,227.42162599996664,227.42162599996664,227.42162599996664,227.78806610009633,227.78806610009633,227.78806610009633,227.78806610009633,227.78806610009633,227.78806610009633,227.78806610009633,227.78806610009633,227.78806610009633,23,0,,,227.78806610009633,227.99028940009885,1000,227.99028940009885,1000,1000,1000,1000,0,num_3,0.23139189998619258,,33,9,2026-03-12_17h58.52.767,2026A_exp2,2022.2.4,60.005460524515534,
1000,1,6.1,0.0,0,0,74,74,59,,,,,228.23816860001534,228.88904200005345,228.88904200005345,229.37355910008773,45,315,229.37355910008773,229.37355910008773,229.37355910008773,229.37355910008773,229.37355910008773,229.37355910008773,229.37355910008773,229.37355910008773,229.37355910008773,229.73983939993195,229.73983939993195,229.73983939993195,229.73983939993195,229.73983939993195,229.73983939993195,229.73983939993195,229.73983939993195,229.73983939993195,23,0,,,229.73983939993195,229.94042970007285,1000,229.94042970007285,1000,1000,1000,1000,0,num_3,0.2495979000814259,,33,9,2026-03-12_17h58.52.767,2026A_exp2,2022.2.4,60.005460524515534,
1,0,0.0,3.7,0,0,75,75,61,,,,,230.20709319994785,230.85772600001656,230.85772600001656,231.35883860010654,315,315,231.35883860010654,231.35883860010654,231.35883860010654,231.35883860010654,231.35883860010654,231.35883860010654,231.35883860010654,231.35883860010654,231.35883860010654,231.72519610007294,231.72519610007294,231.72519610007294,231.72519610007294,231.72519610007294,231.72519610007294,231.72519610007294,231.72519610007294,231.72519610007294,23,0,,,231.72519610007294,231.92513330001384,0.0,231.92513330001384,1,0.0,0,0,1000,num_4,0.8166569001041353,,33,9,2026-03-12_17h58.52.767,2026A_exp2,2022.2.4,60.005460524515534,
1,0,3.7,0.0,0,0,76,76,8,,,,,232.75945350015536,233.4103193001356,233.4103193001356,233.89472050010227,45,45,233.89472050010227,233.89472050010227,233.89472050010227,233.89472050010227,233.89472050010227,233.89472050010227,233.89472050010227,233.89472050010227,233.89472050010227,234.26117040007375,234.26117040007375,234.26117040007375,234.26117040007375,234.26117040007375,234.26117040007375,234.26117040007375,234.26117040007375,234.26117040007375,23,0,,,234.26117040007375,234.461244400125,3.7,234.461244400125,1,3.7,1,1,1000,num_4,0.9601775999180973,,33,9,2026-03-12_17h58.52.767,2026A_exp2,2022.2.4,60.005460524515534,
1,0,3.7,0.0,1,0,77,77,12,,,,,235.44550459994934,236.096222900087,236.096222900087,236.5806799000129,315,45,236.5806799000129,236.5806799000129,236.5806799000129,236.5806799000129,236.5806799000129,236.5806799000129,236.5806799000129,236.5806799000129,236.5806799000129,236.947068199981,236.947068199981,236.947068199981,236.947068199981,236.947068199981,236.947068199981,236.947068199981,236.947068199981,236.947068199981,23,0,,,236.947068199981,237.14738820004277,0.0,237.14738820004277,0,0.0,0,1,1000,num_1,1.4824935998767614,,33,9,2026-03-12_17h58.52.767,2026A_exp2,2022.2.4,60.005460524515534,
0,0,4.9,4.9,1,0,78,78,48,,,,,238.6499366001226,239.29938600002788,239.29938600002788,239.80064269993454,45,45,239.80064269993454,239.80064269993454,239.80064269993454,239.80064269993454,239.80064269993454,239.80064269993454,239.80064269993454,239.80064269993454,239.80064269993454,240.16681490000337,240.16681490000337,240.16681490000337,240.16681490000337,240.16681490000337,240.16681490000337,240.16681490000337,240.16681490000337,240.16681490000337,23,0,,,240.16681490000337,240.3672683001496,4.9,240.3672683001496,0,4.9,1,0,1000,num_1,0.7981521000619978,,33,9,2026-03-12_17h58.52.767,2026A_exp2,2022.2.4,60.005460524515534,
1000,1,0.0,6.1,0,0,79,79,75,,,,,241.1845249000471,241.83536510006525,241.83536510006525,242.33644170011394,315,45,242.33644170011394,242.33644170011394,242.33644170011394,242.33644170011394,242.33644170011394,242.33644170011394,242.33644170011394,242.33644170011394,242.33644170011394,242.68637960008346,242.68637960008346,242.68637960008346,242.68637960008346,242.68637960008346,242.68637960008346,242.68637960008346,242.68637960008346,242.68637960008346,18,3,"[0.00098209991119802, 0.1687268998939544, 0.26895900000818074]","[0.017472599865868688, 0.2020250998903066, 0.28560810000635684]",242.68637960008346,242.8970884999726,1000,242.8970884999726,1000,1000,1000,1000,1,num_2,0.6049037000630051,,33,9,2026-03-12_17h58.52.767,2026A_exp2,2022.2.4,60.005460524515534,
1000,1,0.0,6.1,1,0,80,80,52,,,,,243.52034180006012,244.17105260002427,244.17105260002427,244.6722008001525,315,45,244.6722008001525,244.6722008001525,244.6722008001525,244.6722008001525,244.6722008001525,244.6722008001525,244.6722008001525,244.6722008001525,244.6722008001525,245.03858139994554,245.03858139994554,245.03858139994554,245.03858139994554,245.03858139994554,245.03858139994554,245.03858139994554,245.03858139994554,245.03858139994554,23,0,,,245.03858139994554,245.2388357000891,1000,245.2388357000891,1000,1000,1000,1000,1,num_2,0.35119890002533793,,33,9,2026-03-12_17h58.52.767,2026A_exp2,2022.2.4,60.005460524515534,
1000,1,0.0,6.1,0,0,81,81,35,,,,,245.60569630004466,246.25647759996355,246.25647759996355,246.75747160008177,315,45,246.75747160008177,246.75747160008177,246.75747160008177,246.75747160008177,246.75747160008177,246.75747160008177,246.75747160008177,246.75747160008177,246.75747160008177,247.1073453000281,247.1073453000281,247.1073453000281,247.1073453000281,247.1073453000281,247.1073453000281,247.1073453000281,247.1073453000281,247.1073453000281,21,1,[0.28361540008336306],[0.3003813000395894],247.1073453000281,247.3094471001532,1000,247.3094471001532,1000,1000,1000,1000,1,num_2,0.7999189000111073,,33,9,2026-03-12_17h58.52.767,2026A_exp2,2022.2.4,60.005460524515534,
1000,1,0.0,6.1,0,0,82,82,85,,,,,248.1250670000445,248.77528550010175,248.77528550010175,249.27665719995275,45,45,249.27665719995275,249.27665719995275,249.27665719995275,249.27665719995275,249.27665719995275,249.27665719995275,249.27665719995275,249.27665719995275,249.27665719995275,249.64321879995987,249.64321879995987,249.64321879995987,249.64321879995987,249.64321879995987,249.64321879995987,249.64321879995987,249.64321879995987,249.64321879995987,1,2,"[0.0012482998427003622, 0.1172145998571068]","[0.10049699991941452, 0.367418099893257]",249.64321879995987,249.8450019999873,1000,249.8450019999873,1000,1000,1000,1000,1,num_2,0.4243634999729693,,33,9,2026-03-12_17h58.52.767,2026A_exp2,2022.2.4,60.005460524515534,
1000,1,0.0,0.0,1,0,83,83,56,,,,,250.29356430005282,250.9444560999982,250.9444560999982,251.42884830012918,315,45,251.42884830012918,251.42884830012918,251.42884830012918,251.42884830012918,251.42884830012918,251.42884830012918,251.42884830012918,251.42884830012918,251.42884830012918,251.7952928999439,251.7952928999439,251.7952928999439,251.7952928999439,251.7952928999439,251.7952928999439,251.7952928999439,251.7952928999439,251.7952928999439,23,0,,,251.7952928999439,251.99762840010226,1000,251.99762840010226,1000,1000,1000,1000,1,num_2,0.6714051999151707,,33,9,2026-03-12_17h58.52.767,2026A_exp2,2022.2.4,60.005460524515534,
1,0,4.9,4.9,0,0,84,84,84,,,,,252.6964295001235,253.3469036000315,253.3469036000315,253.84794250014238,315,315,253.84794250014238,253.84794250014238,253.84794250014238,253.84794250014238,253.84794250014238,253.84794250014238,253.84794250014238,253.84794250014238,253.84794250014238,254.214456200134,254.214456200134,254.214456200134,254.214456200134,254.214456200134,254.214456200134,254.214456200134,254.214456200134,254.214456200134,22,1,[0.26697380002588034],[0.283844199962914],254.214456200134,254.41454020002857,4.9,254.41454020002857,0,4.9,1,0,1000,num_1,1.1912523000501096,,33,9,2026-03-12_17h58.52.767,2026A_exp2,2022.2.4,60.005460524515534,
1000,1,0.0,4.9,0,0,85,85,5,,,,,255.63249310012907,256.283203399973,256.283203399973,256.76759509998374,315,45,256.76759509998374,256.76759509998374,256.76759509998374,256.76759509998374,256.76759509998374,256.76759509998374,256.76759509998374,256.76759509998374,256.76759509998374,257.13418910000473,257.13418910000473,257.13418910000473,257.13418910000473,257.13418910000473,257.13418910000473,257.13418910000473,257.13418910000473,257.13418910000473,23,0,,,257.13418910000473,257.35075230011716,1000,257.35075230011716,1000,1000,1000,1000,1,num_2,0.4706786999013275,,33,9,2026-03-12_17h58.52.767,2026A_exp2,2022.2.4,60.005460524515534,
1,0,6.1,6.1,0,0,86,86,27,,,,,257.85133929993026,258.501794999931,258.501794999931,259.0030303001404,45,45,259.0030303001404,259.0030303001404,259.0030303001404,259.0030303001404,259.0030303001404,259.0030303001404,259.0030303001404,259.0030303001404,259.0030303001404,259.352903699968,259.352903699968,259.352903699968,259.352903699968,259.352903699968,259.352903699968,259.352903699968,259.352903699968,259.352903699968,17,4,"[0.11725739995017648, 0.1838658000342548, 0.23383049992844462, 0.30070929997600615]","[0.13393160002306104, 0.2173618001397699, 0.25065120006911457, 0.3175095999613404]",259.352903699968,259.553058499936,6.1,259.553058499936,1,6.1,1,1,1000,num_4,1.0040996000170708,,33,9,2026-03-12_17h58.52.767,2026A_exp2,2022.2.4,60.005460524515534,
1000,1,0.0,0.0,0,0,87,87,6,,,,,260.58757099998184,261.23814500006847,261.23814500006847,261.73928420012817,315,315,261.73928420012817,261.73928420012817,261.73928420012817,261.73928420012817,261.73928420012817,261.73928420012817,261.73928420012817,261.73928420012817,261.73928420012817,262.10562160005793,262.10562160005793,262.10562160005793,262.10562160005793,262.10562160005793,262.10562160005793,262.10562160005793,262.10562160005793,262.10562160005793,23,0,,,262.10562160005793,262.3077762001194,1000,262.3077762001194,1000,1000,1000,1000,0,num_3,0.9533126999158412,,33,9,2026-03-12_17h58.52.767,2026A_exp2,2022.2.4,60.005460524515534,
1,0,0.0,6.1,0,0,88,88,82,,,,,263.29018190014176,263.9406898000743,263.9406898000743,264.4418401001021,315,315,264.4418401001021,264.4418401001021,264.4418401001021,264.4418401001021,264.4418401001021,264.4418401001021,264.4418401001021,264.4418401001021,264.4418401001021,264.8084148000926,264.8084148000926,264.8084148000926,264.8084148000926,264.8084148000926,264.8084148000926,264.8084148000926,264.8084148000926,264.8084148000926,10,2,"[0.15025980002246797, 0.1834050000179559]","[0.16691710008308291, 0.3671562001109123]",264.8084148000926,265.00858259992674,0.0,265.00858259992674,0,0.0,0,1,1000,num_1,0.7259933000896126,,33,9,2026-03-12_17h58.52.767,2026A_exp2,2022.2.4,60.005460524515534,
1,0,4.9,3.7,1,0,89,89,26,,,,,265.7593183000572,266.40992330014706,266.40992330014706,266.91115100006573,315,315,266.91115100006573,266.91115100006573,266.91115100006573,266.91115100006573,266.91115100006573,266.91115100006573,266.91115100006573,266.91115100006573,266.91115100006573,267.2775101000443,267.2775101000443,267.2775101000443,267.2775101000443,267.2775101000443,267.2775101000443,267.2775101000443,267.2775101000443,267.2775101000443,3,2,"[0.0012332999613136053, 0.2835423999931663]","[0.26704149995930493, 0.35054500005207956]",267.2775101000443,267.47766820015386,3.7,267.47766820015386,0,3.7,1,0,1000,num_1,1.208728700177744,,33,9,2026-03-12_17h58.52.767,2026A_exp2,2022.2.4,60.005460524515534,
,,,,,,,,,,,,,,,,,,,,,,,,,,,,,,,,,,,,,,,,,,,,,,,,,,,,268.72067039995454,,,,,,,
