validity,detectorcomp,contrastCW,contrastCCW,precueCWorCCW,block_80trials.thisRepN,block_80trials.thisTrialN,block_80trials.thisN,block_80trials.thisIndex,etRecord.started,etRecord.stopped,text.started,text.stopped,text_4.started,text_4.stopped,text_6.started,text_6.stopped,oriCW,oriCCW,roi_2.started,grating_UR.started,grating_UL.started,grating_LR.started,grating_LL.started,noise_UR.started,noise_UL.started,noise_LR.started,noise_LL.started,roi_2.stopped,grating_UR.stopped,grating_UL.stopped,grating_LR.stopped,grating_LL.stopped,noise_UR.stopped,noise_UL.stopped,noise_LR.stopped,noise_LL.stopped,outframe,roi_2.numLooks,roi_2.timesOn,roi_2.timesOff,text_2.started,text_2.stopped,probedcontrast,key_resp.started,respdetect,relevantContrast,correctDetect,TorFdetect,respCWorCCW,key_resp.keys,key_resp.rt,feedback_display_.started,participantNo,blockNo,date,expName,psychopyVersion,frameRate,
1000,1,0.0,4.9,1,0,0,0,72,3.060000017285347e-05,3.060000017285347e-05,54.931563700025436,56.93483689997811,56.93483689997811,57.56862590002129,57.56862590002129,58.08992399997078,315,45,58.08992399997078,58.08992399997078,58.08992399997078,58.08992399997078,58.08992399997078,58.08992399997078,58.08992399997078,58.08992399997078,58.08992399997078,58.436242799973115,58.436242799973115,58.436242799973115,58.436242799973115,58.436242799973115,58.436242799973115,58.436242799973115,58.436242799973115,58.436242799973115,1,2,"[0.00090970000019297, 0.23410489998059347]","[0.21723819995531812, 0.36798199999611825]",58.436242799973115,58.64416909997817,1000,58.64416909997817,1000,1000,1000,1000,1,num_2,0.4839261000161059,,23,15,2026-03-04_14h40.34.734,2026A_exp2,2022.2.4,59.724954637395626,
1000,1,3.7,0.0,0,0,1,1,55,,,,,59.153319699980784,59.78760219999822,59.78760219999822,60.28876000002492,315,315,60.28876000002492,60.28876000002492,60.28876000002492,60.28876000002492,60.28876000002492,60.28876000002492,60.28876000002492,60.28876000002492,60.28876000002492,60.65497490001144,60.65497490001144,60.65497490001144,60.65497490001144,60.65497490001144,60.65497490001144,60.65497490001144,60.65497490001144,60.65497490001144,0,1,[0.001274599984753877],[0.36666800000239164],60.65497490001144,60.857016999972984,1000,60.857016999972984,1000,1000,1000,1000,0,num_3,1.1666282000369392,,23,15,2026-03-04_14h40.34.734,2026A_exp2,2022.2.4,59.724954637395626,
1000,1,4.9,0.0,0,0,2,2,37,,,,,62.03994370001601,62.69055030000163,62.69055030000163,63.19162920000963,315,45,63.19162920000963,63.19162920000963,63.19162920000963,63.19162920000963,63.19162920000963,63.19162920000963,63.19162920000963,63.19162920000963,63.19162920000963,63.55801249999786,63.55801249999786,63.55801249999786,63.55801249999786,63.55801249999786,63.55801249999786,63.55801249999786,63.55801249999786,63.55801249999786,0,1,[0.001209600013680756],[0.36699519999092445],63.55801249999786,63.76024570001755,1000,63.76024570001755,1000,1000,1000,1000,0,num_3,1.4159000999643467,,23,15,2026-03-04_14h40.34.734,2026A_exp2,2022.2.4,59.724954637395626,
1000,1,6.1,4.9,1,0,3,3,86,,,,,65.1931166999857,65.84352459997172,65.84352459997172,66.32814429997234,315,45,66.32814429997234,66.32814429997234,66.32814429997234,66.32814429997234,66.32814429997234,66.32814429997234,66.32814429997234,66.32814429997234,66.32814429997234,66.69444980000844,66.69444980000844,66.69444980000844,66.69444980000844,66.69444980000844,66.69444980000844,66.69444980000844,66.69444980000844,66.69444980000844,22,1,[0.3338153000222519],[0.35046470002271235],66.69444980000844,66.8966465999838,1000,66.8966465999838,1000,1000,1000,1000,1,num_2,0.9510722000268288,,23,15,2026-03-04_14h40.34.734,2026A_exp2,2022.2.4,59.724954637395626,
1000,1,0.0,6.1,0,0,4,4,27,,,,,67.87914079998154,68.5297322999686,68.5297322999686,69.0308068000013,315,315,69.0308068000013,69.0308068000013,69.0308068000013,69.0308068000013,69.0308068000013,69.0308068000013,69.0308068000013,69.0308068000013,69.0308068000013,69.38052269996842,69.38052269996842,69.38052269996842,69.38052269996842,69.38052269996842,69.38052269996842,69.38052269996842,69.38052269996842,69.38052269996842,0,1,[0.001288799976464361],[0.35357310000108555],69.38052269996842,69.59545349999098,1000,69.59545349999098,1000,1000,1000,1000,1,num_2,0.37191580003127456,,23,15,2026-03-04_14h40.34.734,2026A_exp2,2022.2.4,59.724954637395626,
1,0,4.9,6.1,0,0,5,5,29,,,,,69.99790449999273,70.64849089999916,70.64849089999916,71.14946390001569,45,45,71.14946390001569,71.14946390001569,71.14946390001569,71.14946390001569,71.14946390001569,71.14946390001569,71.14946390001569,71.14946390001569,71.14946390001569,71.51602689997526,71.51602689997526,71.51602689997526,71.51602689997526,71.51602689997526,71.51602689997526,71.51602689997526,71.51602689997526,71.51602689997526,11,3,"[0.001639000023715198, 0.06678069999907166, 0.23400520003633574]","[0.03345500002615154, 0.08367720001842827, 0.36673479998717085]",71.51602689997526,71.71623550000368,4.9,71.71623550000368,0,4.9,1,0,1000,num_1,0.6353651999961585,,23,15,2026-03-04_14h40.34.734,2026A_exp2,2022.2.4,59.724954637395626,
1,0,3.7,3.7,0,0,6,6,60,,,,,72.38360569998622,73.03420860000188,73.03420860000188,73.51843809999991,315,315,73.51843809999991,73.51843809999991,73.51843809999991,73.51843809999991,73.51843809999991,73.51843809999991,73.51843809999991,73.51843809999991,73.51843809999991,73.88503700000001,73.88503700000001,73.88503700000001,73.88503700000001,73.88503700000001,73.88503700000001,73.88503700000001,73.88503700000001,73.88503700000001,0,1,[0.0012140999897383153],[0.3671831000247039],73.88503700000001,74.0852184999967,3.7,74.0852184999967,0,3.7,1,0,1000,num_1,0.5942170999478549,,23,15,2026-03-04_14h40.34.734,2026A_exp2,2022.2.4,59.724954637395626,
1000,1,0.0,3.7,1,0,7,7,82,,,,,74.70238779997453,75.35316439997405,75.35316439997405,75.8376596000162,45,315,75.8376596000162,75.8376596000162,75.8376596000162,75.8376596000162,75.8376596000162,75.8376596000162,75.8376596000162,75.8376596000162,75.8376596000162,76.20394600002328,76.20394600002328,76.20394600002328,76.20394600002328,76.20394600002328,76.20394600002328,76.20394600002328,76.20394600002328,76.20394600002328,23,0,,,76.20394600002328,76.40586409997195,1000,76.40586409997195,1000,1000,1000,1000,1,num_2,0.4013752000173554,,23,15,2026-03-04_14h40.34.734,2026A_exp2,2022.2.4,59.724954637395626,
1000,1,3.7,0.0,1,0,8,8,52,,,,,76.83788760000607,77.48866309999721,77.48866309999721,77.98977510002442,315,315,77.98977510002442,77.98977510002442,77.98977510002442,77.98977510002442,77.98977510002442,77.98977510002442,77.98977510002442,77.98977510002442,77.98977510002442,78.35612519999268,78.35612519999268,78.35612519999268,78.35612519999268,78.35612519999268,78.35612519999268,78.35612519999268,78.35612519999268,78.35612519999268,23,0,,,78.35612519999268,78.57917899999302,1000,78.57917899999302,1000,1000,1000,1000,0,num_3,0.46071569999912754,,23,15,2026-03-04_14h40.34.734,2026A_exp2,2022.2.4,59.724954637395626,
1000,1,0.0,0.0,1,0,9,9,68,,,,,79.0568383000209,79.7076578999986,79.7076578999986,80.20868370000971,45,45,80.20868370000971,80.20868370000971,80.20868370000971,80.20868370000971,80.20868370000971,80.20868370000971,80.20868370000971,80.20868370000971,80.20868370000971,80.57491929997923,80.57491929997923,80.57491929997923,80.57491929997923,80.57491929997923,80.57491929997923,80.57491929997923,80.57491929997923,80.57491929997923,22,1,[0.0014043000410310924],[0.01735249999910593],80.57491929997923,80.77514049998717,1000,80.77514049998717,1000,1000,1000,1000,0,num_3,0.45665859995642677,,23,15,2026-03-04_14h40.34.734,2026A_exp2,2022.2.4,59.724954637395626,
1,0,0.0,0.0,1,0,10,10,4,,,,,81.2589752000058,81.90957869996782,81.90957869996782,82.41237520001596,45,315,82.41237520001596,82.41237520001596,82.41237520001596,82.41237520001596,82.41237520001596,82.41237520001596,82.41237520001596,82.41237520001596,82.41237520001596,82.77688700001454,82.77688700001454,82.77688700001454,82.77688700001454,82.77688700001454,82.77688700001454,82.77688700001454,82.77688700001454,82.77688700001454,8,1,[0.13209710002411157],[0.3657080000266433],82.77688700001454,82.977410099993,0.0,82.977410099993,1,0.0,0,0,1000,num_4,0.9985329999472015,,23,15,2026-03-04_14h40.34.734,2026A_exp2,2022.2.4,59.724954637395626,
1000,1,0.0,0.0,0,0,11,11,2,,,,,83.99490079999669,84.64568560000043,84.64568560000043,85.13026260002516,315,45,85.13026260002516,85.13026260002516,85.13026260002516,85.13026260002516,85.13026260002516,85.13026260002516,85.13026260002516,85.13026260002516,85.13026260002516,85.49659870000323,85.49659870000323,85.49659870000323,85.49659870000323,85.49659870000323,85.49659870000323,85.49659870000323,85.49659870000323,85.49659870000323,21,2,"[0.25030079996213317, 0.3005651999847032]","[0.26718059997074306, 0.31715959997382015]",85.49659870000323,85.69887429999653,1000,85.69887429999653,1000,1000,1000,1000,1,num_2,0.6853466999600641,,23,15,2026-03-04_14h40.34.734,2026A_exp2,2022.2.4,59.724954637395626,
0,0,0.0,4.9,0,0,12,12,65,,,,,86.41425410000375,87.04822960001184,87.04822960001184,87.54941869998584,315,45,87.54941869998584,87.54941869998584,87.54941869998584,87.54941869998584,87.54941869998584,87.54941869998584,87.54941869998584,87.54941869998584,87.54941869998584,87.9158992000157,87.9158992000157,87.9158992000157,87.9158992000157,87.9158992000157,87.9158992000157,87.9158992000157,87.9158992000157,87.9158992000157,0,1,[0.0012478999560698867],[0.3666075000073761],87.9158992000157,88.11597540002549,4.9,88.11597540002549,1,4.9,1,1,1000,num_4,0.5634608999826014,,23,15,2026-03-04_14h40.34.734,2026A_exp2,2022.2.4,59.724954637395626,
1000,1,0.0,0.0,1,0,13,13,88,,,,,88.6997529999935,89.3504434999777,89.3504434999777,89.83484779996797,45,45,89.83484779996797,89.83484779996797,89.83484779996797,89.83484779996797,89.83484779996797,89.83484779996797,89.83484779996797,89.83484779996797,89.83484779996797,90.20122909999918,90.20122909999918,90.20122909999918,90.20122909999918,90.20122909999918,90.20122909999918,90.20122909999918,90.20122909999918,90.20122909999918,23,0,,,90.20122909999918,90.40355450002244,1000,90.40355450002244,1000,1000,1000,1000,1,num_2,0.6760829000268131,,23,15,2026-03-04_14h40.34.734,2026A_exp2,2022.2.4,59.724954637395626,
1,0,4.9,3.7,1,0,14,14,71,,,,,91.1021567999851,91.75297390000196,91.75297390000196,92.25384169997415,315,315,92.25384169997415,92.25384169997415,92.25384169997415,92.25384169997415,92.25384169997415,92.25384169997415,92.25384169997415,92.25384169997415,92.25384169997415,92.6204802999855,92.6204802999855,92.6204802999855,92.6204802999855,92.6204802999855,92.6204802999855,92.6204802999855,92.6204802999855,92.6204802999855,19,1,[0.3168190000578761],[0.36673250002786517],92.6204802999855,92.82064310001442,3.7,92.82064310001442,1,3.7,1,1,1000,num_4,0.5635161999962293,,23,15,2026-03-04_14h40.34.734,2026A_exp2,2022.2.4,59.724954637395626,
1000,1,4.9,0.0,0,0,15,15,45,,,,,93.40442550001899,94.05527399998391,94.05527399998391,94.55585750000319,45,45,94.55585750000319,94.55585750000319,94.55585750000319,94.55585750000319,94.55585750000319,94.55585750000319,94.55585750000319,94.55585750000319,94.55585750000319,94.90601139998762,94.90601139998762,94.90601139998762,94.90601139998762,94.90601139998762,94.90601139998762,94.90601139998762,94.90601139998762,94.90601139998762,23,0,,,94.90601139998762,95.10867330001201,1000,95.10867330001201,1000,1000,1000,1000,0,num_3,0.4593823999748565,,23,15,2026-03-04_14h40.34.734,2026A_exp2,2022.2.4,59.724954637395626,
0,0,4.9,0.0,1,0,16,16,26,,,,,95.58989880001172,96.24073379999027,96.24073379999027,96.74170670000603,315,315,96.74170670000603,96.74170670000603,96.74170670000603,96.74170670000603,96.74170670000603,96.74170670000603,96.74170670000603,96.74170670000603,96.74170670000603,97.09160250000423,97.09160250000423,97.09160250000423,97.09160250000423,97.09160250000423,97.09160250000423,97.09160250000423,97.09160250000423,97.09160250000423,12,4,"[0.0011980000417679548, 0.08359850000124425, 0.23365589999593794, 0.26708720001624897]","[0.033753200026694685, 0.10023280000314116, 0.25033690000418574, 0.35055289999581873]",97.09160250000423,97.29165939998347,4.9,97.29165939998347,1,4.9,1,1,1000,num_4,1.1000899999635294,,23,15,2026-03-04_14h40.34.734,2026A_exp2,2022.2.4,59.724954637395626,
1000,1,0.0,0.0,1,0,17,17,35,,,,,98.40939909999724,99.06024550000438,99.06024550000438,99.54482000001008,45,315,99.54482000001008,99.54482000001008,99.54482000001008,99.54482000001008,99.54482000001008,99.54482000001008,99.54482000001008,99.54482000001008,99.54482000001008,99.91101939999498,99.91101939999498,99.91101939999498,99.91101939999498,99.91101939999498,99.91101939999498,99.91101939999498,99.91101939999498,99.91101939999498,1,2,"[0.0013611000031232834, 0.26715390000026673]","[0.2505654999986291, 0.36721450003096834]",99.91101939999498,100.1132841000217,1000,100.1132841000217,1000,1000,1000,1000,1,num_2,0.6861989999888465,,23,15,2026-03-04_14h40.34.734,2026A_exp2,2022.2.4,59.724954637395626,
1,0,0.0,3.7,0,0,18,18,76,,,,,100.82858490000945,101.47916960000293,101.47916960000293,101.98032580001745,45,45,101.98032580001745,101.98032580001745,101.98032580001745,101.98032580001745,101.98032580001745,101.98032580001745,101.98032580001745,101.98032580001745,101.98032580001745,102.34674399998039,102.34674399998039,102.34674399998039,102.34674399998039,102.34674399998039,102.34674399998039,102.34674399998039,102.34674399998039,102.34674399998039,23,0,,,102.34674399998039,102.5469821000006,0.0,102.5469821000006,0,0.0,0,1,1000,num_1,0.7007420000154525,,23,15,2026-03-04_14h40.34.734,2026A_exp2,2022.2.4,59.724954637395626,
0,0,3.7,3.7,1,0,19,19,62,,,,,103.26427719998173,103.9151017999975,103.9151017999975,104.41620069998316,315,315,104.41620069998316,104.41620069998316,104.41620069998316,104.41620069998316,104.41620069998316,104.41620069998316,104.41620069998316,104.41620069998316,104.41620069998316,104.76592480001273,104.76592480001273,104.76592480001273,104.76592480001273,104.76592480001273,104.76592480001273,104.76592480001273,104.76592480001273,104.76592480001273,22,0,,,104.76592480001273,104.96597499999916,3.7,104.96597499999916,0,3.7,1,0,1000,num_1,1.298401600040961,,23,15,2026-03-04_14h40.34.734,2026A_exp2,2022.2.4,59.724954637395626,
1000,1,6.1,0.0,0,0,20,20,69,,,,,106.28392349998467,106.93462329998147,106.93462329998147,107.41918199998327,315,315,107.41918199998327,107.41918199998327,107.41918199998327,107.41918199998327,107.41918199998327,107.41918199998327,107.41918199998327,107.41918199998327,107.41918199998327,107.7856348999776,107.7856348999776,107.7856348999776,107.7856348999776,107.7856348999776,107.7856348999776,107.7856348999776,107.7856348999776,107.7856348999776,23,0,,,107.7856348999776,107.9874735000194,1000,107.9874735000194,1000,1000,1000,1000,0,num_3,0.4362988999928348,,23,15,2026-03-04_14h40.34.734,2026A_exp2,2022.2.4,59.724954637395626,
1000,1,3.7,0.0,1,0,21,21,19,,,,,108.45283179997932,109.10362279997207,109.10362279997207,109.60467949998565,315,315,109.60467949998565,109.60467949998565,109.60467949998565,109.60467949998565,109.60467949998565,109.60467949998565,109.60467949998565,109.60467949998565,109.60467949998565,109.97112469997955,109.97112469997955,109.97112469997955,109.97112469997955,109.97112469997955,109.97112469997955,109.97112469997955,109.97112469997955,109.97112469997955,23,0,,,109.97112469997955,110.17129769996973,1000,110.17129769996973,1000,1000,1000,1000,0,num_3,0.44522740005049855,,23,15,2026-03-04_14h40.34.734,2026A_exp2,2022.2.4,59.724954637395626,
1000,1,0.0,0.0,1,0,22,22,34,,,,,110.63831050001318,111.28907170001185,111.28907170001185,111.79008920001797,315,315,111.79008920001797,111.79008920001797,111.79008920001797,111.79008920001797,111.79008920001797,111.79008920001797,111.79008920001797,111.79008920001797,111.79008920001797,112.1564543999848,112.1564543999848,112.1564543999848,112.1564543999848,112.1564543999848,112.1564543999848,112.1564543999848,112.1564543999848,112.1564543999848,23,0,,,112.1564543999848,112.35843159997603,1000,112.35843159997603,1000,1000,1000,1000,0,num_3,0.44115259998943657,,23,15,2026-03-04_14h40.34.734,2026A_exp2,2022.2.4,59.724954637395626,
0,0,0.0,0.0,1,0,23,23,80,,,,,112.82409840001492,113.47463890002109,113.47463890002109,113.95906859997194,315,45,113.95906859997194,113.95906859997194,113.95906859997194,113.95906859997194,113.95906859997194,113.95906859997194,113.95906859997194,113.95906859997194,113.95906859997194,114.3255159999826,114.3255159999826,114.3255159999826,114.3255159999826,114.3255159999826,114.3255159999826,114.3255159999826,114.3255159999826,114.3255159999826,18,2,"[0.11700999998720363, 0.18362780002644286]","[0.16708719998132437, 0.21715669997502118]",114.3255159999826,114.52586549997795,0.0,114.52586549997795,1,0.0,0,0,1000,num_4,0.6337234000093304,,23,15,2026-03-04_14h40.34.734,2026A_exp2,2022.2.4,59.724954637395626,
1000,1,4.9,0.0,1,0,24,24,56,,,,,115.17614300001878,115.82696079998277,115.82696079998277,116.31146739999531,45,315,116.31146739999531,116.31146739999531,116.31146739999531,116.31146739999531,116.31146739999531,116.31146739999531,116.31146739999531,116.31146739999531,116.31146739999531,116.67763130000094,116.67763130000094,116.67763130000094,116.67763130000094,116.67763130000094,116.67763130000094,116.67763130000094,116.67763130000094,116.67763130000094,11,4,"[0.0012128999806009233, 0.13351690000854433, 0.16690210002707317, 0.33364259998779744]","[0.11724019999383017, 0.15025290002813563, 0.1836421000189148, 0.366608600015752]",116.67763130000094,116.87951609998709,1000,116.87951609998709,1000,1000,1000,1000,0,num_3,0.3932055999757722,,23,15,2026-03-04_14h40.34.734,2026A_exp2,2022.2.4,59.724954637395626,
1000,1,3.7,0.0,1,0,25,25,38,,,,,117.29501290002372,117.94573380000656,117.94573380000656,118.44689229998039,315,315,118.44689229998039,118.44689229998039,118.44689229998039,118.44689229998039,118.44689229998039,118.44689229998039,118.44689229998039,118.44689229998039,118.44689229998039,118.81326670001727,118.81326670001727,118.81326670001727,118.81326670001727,118.81326670001727,118.81326670001727,118.81326670001727,118.81326670001727,118.81326670001727,0,1,[0.0011987000470981002],[0.36742630001390353],118.81326670001727,119.01360479998402,1000,119.01360479998402,1000,1000,1000,1000,0,num_3,0.40988389996346086,,23,15,2026-03-04_14h40.34.734,2026A_exp2,2022.2.4,59.724954637395626,
1,0,0.0,3.7,1,0,26,26,30,,,,,119.44705989997601,120.09781750000548,120.09781750000548,120.59897519997321,45,45,120.59897519997321,120.59897519997321,120.59897519997321,120.59897519997321,120.59897519997321,120.59897519997321,120.59897519997321,120.59897519997321,120.59897519997321,120.9654628999997,120.9654628999997,120.9654628999997,120.9654628999997,120.9654628999997,120.9654628999997,120.9654628999997,120.9654628999997,120.9654628999997,12,3,"[0.03493490000255406, 0.25048400001833215, 0.31681940000271425]","[0.11677209998015314, 0.28345879999687895, 0.3669965000008233]",120.9654628999997,121.16566270001931,3.7,121.16566270001931,0,3.7,1,0,1000,num_1,0.786824400012847,,23,15,2026-03-04_14h40.34.734,2026A_exp2,2022.2.4,59.724954637395626,
1000,1,3.7,0.0,0,0,27,27,81,,,,,121.98318999999901,122.63365169998724,122.63365169998724,123.11809449997963,45,315,123.11809449997963,123.11809449997963,123.11809449997963,123.11809449997963,123.11809449997963,123.11809449997963,123.11809449997963,123.11809449997963,123.11809449997963,123.48464249999961,123.48464249999961,123.48464249999961,123.48464249999961,123.48464249999961,123.48464249999961,123.48464249999961,123.48464249999961,123.48464249999961,3,2,"[0.0013743999879807234, 0.16679279995150864]","[0.1164100999594666, 0.36683289997745305]",123.48464249999961,123.68668949999847,1000,123.68668949999847,1000,1000,1000,1000,0,num_3,0.4409427999635227,,23,15,2026-03-04_14h40.34.734,2026A_exp2,2022.2.4,59.724954637395626,
0,0,0.0,4.9,1,0,28,28,33,,,,,124.15183499996783,124.80263649998233,124.80263649998233,125.30359889997635,315,45,125.30359889997635,125.30359889997635,125.30359889997635,125.30359889997635,125.30359889997635,125.30359889997635,125.30359889997635,125.30359889997635,125.30359889997635,125.66999209998176,125.66999209998176,125.66999209998176,125.66999209998176,125.66999209998176,125.66999209998176,125.66999209998176,125.66999209998176,125.66999209998176,16,1,[0.26724000001559034],[0.3673282000236213],125.66999209998176,125.87040020001587,0.0,125.87040020001587,1,0.0,0,0,1000,num_4,0.7215857999981381,,23,15,2026-03-04_14h40.34.734,2026A_exp2,2022.2.4,59.724954637395626,
1000,1,3.7,6.1,1,0,29,29,43,,,,,126.62093340000138,127.27187340002274,127.27187340002274,127.7560467000003,315,315,127.7560467000003,127.7560467000003,127.7560467000003,127.7560467000003,127.7560467000003,127.7560467000003,127.7560467000003,127.7560467000003,127.7560467000003,128.12249149999116,128.12249149999116,128.12249149999116,128.12249149999116,128.12249149999116,128.12249149999116,128.12249149999116,128.12249149999116,128.12249149999116,23,0,,,128.12249149999116,128.32479119999334,1000,128.32479119999334,1000,1000,1000,1000,1,num_2,0.37951759999850765,,23,15,2026-03-04_14h40.34.734,2026A_exp2,2022.2.4,59.724954637395626,
1000,1,3.7,4.9,0,0,30,30,25,,,,,128.7230772000039,129.37382340000477,129.37382340000477,129.87490049999906,315,315,129.87490049999906,129.87490049999906,129.87490049999906,129.87490049999906,129.87490049999906,129.87490049999906,129.87490049999906,129.87490049999906,129.87490049999906,130.24141899996903,130.24141899996903,130.24141899996903,130.24141899996903,130.24141899996903,130.24141899996903,130.24141899996903,130.24141899996903,130.24141899996903,23,0,,,130.24141899996903,130.44327559997328,1000,130.44327559997328,1000,1000,1000,1000,1,num_2,0.4999864000128582,,23,15,2026-03-04_14h40.34.734,2026A_exp2,2022.2.4,59.724954637395626,
1,0,0.0,0.0,0,0,31,31,39,,,,,130.95867349999025,131.60934789996827,131.60934789996827,132.11049420002382,45,45,132.11049420002382,132.11049420002382,132.11049420002382,132.11049420002382,132.11049420002382,132.11049420002382,132.11049420002382,132.11049420002382,132.11049420002382,132.47691939998185,132.47691939998185,132.47691939998185,132.47691939998185,132.47691939998185,132.47691939998185,132.47691939998185,132.47691939998185,132.47691939998185,23,0,,,132.47691939998185,132.6772050000145,0.0,132.6772050000145,1,0.0,0,0,1000,num_4,0.7226106000016443,,23,15,2026-03-04_14h40.34.734,2026A_exp2,2022.2.4,59.724954637395626,
1,0,0.0,0.0,0,0,32,32,22,,,,,133.4277553000138,134.07865859998856,134.07865859998856,134.56293740001274,315,45,134.56293740001274,134.56293740001274,134.56293740001274,134.56293740001274,134.56293740001274,134.56293740001274,134.56293740001274,134.56293740001274,134.56293740001274,134.92933810001705,134.92933810001705,134.92933810001705,134.92933810001705,134.92933810001705,134.92933810001705,134.92933810001705,134.92933810001705,134.92933810001705,23,0,,,134.92933810001705,135.12965999997687,0.0,135.12965999997687,0,0.0,0,1,1000,num_1,0.6297904999810271,,23,15,2026-03-04_14h40.34.734,2026A_exp2,2022.2.4,59.724954637395626,
1,0,0.0,3.7,0,0,33,33,64,,,,,135.78005970001686,136.4308135000174,136.4308135000174,136.9154402000131,315,45,136.9154402000131,136.9154402000131,136.9154402000131,136.9154402000131,136.9154402000131,136.9154402000131,136.9154402000131,136.9154402000131,136.9154402000131,137.2817389999982,137.2817389999982,137.2817389999982,137.2817389999982,137.2817389999982,137.2817389999982,137.2817389999982,137.2817389999982,137.2817389999982,13,2,"[0.05025629996089265, 0.2669838999863714]","[0.10036689997650683, 0.3671992999734357]",137.2817389999982,137.4820037999889,0.0,137.4820037999889,0,0.0,0,1,1000,num_1,1.1419669999741018,,23,15,2026-03-04_14h40.34.734,2026A_exp2,2022.2.4,59.724954637395626,
1000,1,3.7,0.0,1,0,34,34,78,,,,,138.64965600002324,139.30047369998647,139.30047369998647,139.78488049999578,315,45,139.78488049999578,139.78488049999578,139.78488049999578,139.78488049999578,139.78488049999578,139.78488049999578,139.78488049999578,139.78488049999578,139.78488049999578,140.15120540000498,140.15120540000498,140.15120540000498,140.15120540000498,140.15120540000498,140.15120540000498,140.15120540000498,140.15120540000498,140.15120540000498,23,0,,,140.15120540000498,140.35316499997862,1000,140.35316499997862,1000,1000,1000,1000,0,num_3,0.44693330000154674,,23,15,2026-03-04_14h40.34.734,2026A_exp2,2022.2.4,59.724954637395626,
1,0,0.0,0.0,1,0,35,35,20,,,,,140.81857790000504,141.46925680001732,141.46925680001732,141.97045610001078,315,45,141.97045610001078,141.97045610001078,141.97045610001078,141.97045610001078,141.97045610001078,141.97045610001078,141.97045610001078,141.97045610001078,141.97045610001078,142.3366516000242,142.3366516000242,142.3366516000242,142.3366516000242,142.3366516000242,142.3366516000242,142.3366516000242,142.3366516000242,142.3366516000242,0,1,[0.0010772999958135188],[0.3674746999749914],142.3366516000242,142.53672400000505,0.0,142.53672400000505,0,0.0,0,1,1000,num_1,0.6706987000070512,,23,15,2026-03-04_14h40.34.734,2026A_exp2,2022.2.4,59.724954637395626,
0,0,0.0,6.1,1,0,36,36,46,,,,,143.23761800001375,143.88854730001185,143.88854730001185,144.37276870000642,45,315,144.37276870000642,144.37276870000642,144.37276870000642,144.37276870000642,144.37276870000642,144.37276870000642,144.37276870000642,144.37276870000642,144.37276870000642,144.73937379999552,144.73937379999552,144.73937379999552,144.73937379999552,144.73937379999552,144.73937379999552,144.73937379999552,144.73937379999552,144.73937379999552,9,2,"[0.0012920000008307397, 0.30052739998791367]","[0.15026399999624118, 0.3672872000024654]",144.73937379999552,144.93945429997984,0.0,144.93945429997984,0,0.0,0,1,1000,num_1,0.7240030000102706,,23,15,2026-03-04_14h40.34.734,2026A_exp2,2022.2.4,59.724954637395626,
1000,1,6.1,6.1,0,0,37,37,87,,,,,145.6900437999866,146.3406787000131,146.3406787000131,146.8252966,315,315,146.8252966,146.8252966,146.8252966,146.8252966,146.8252966,146.8252966,146.8252966,146.8252966,146.8252966,147.19167319999542,147.19167319999542,147.19167319999542,147.19167319999542,147.19167319999542,147.19167319999542,147.19167319999542,147.19167319999542,147.19167319999542,23,0,,,147.19167319999542,147.39411509997444,1000,147.39411509997444,1000,1000,1000,1000,1,num_2,0.46142090001376346,,23,15,2026-03-04_14h40.34.734,2026A_exp2,2022.2.4,59.724954637395626,
1000,1,0.0,0.0,0,0,38,38,79,,,,,147.87567560002208,148.5264043000061,148.5264043000061,149.02739210001891,315,45,149.02739210001891,149.02739210001891,149.02739210001891,149.02739210001891,149.02739210001891,149.02739210001891,149.02739210001891,149.02739210001891,149.02739210001891,149.39381669997238,149.39381669997238,149.39381669997238,149.39381669997238,149.39381669997238,149.39381669997238,149.39381669997238,149.39381669997238,149.39381669997238,23,0,,,149.39381669997238,149.59597929997835,1000,149.59597929997835,1000,1000,1000,1000,0,num_3,0.3878619999741204,,23,15,2026-03-04_14h40.34.734,2026A_exp2,2022.2.4,59.724954637395626,
1,0,3.7,0.0,0,0,39,39,3,,,,,150.01113359996816,150.66188510000939,150.66188510000939,151.16285909997532,45,45,151.16285909997532,151.16285909997532,151.16285909997532,151.16285909997532,151.16285909997532,151.16285909997532,151.16285909997532,151.16285909997532,151.16285909997532,151.52936159999808,151.52936159999808,151.52936159999808,151.52936159999808,151.52936159999808,151.52936159999808,151.52936159999808,151.52936159999808,151.52936159999808,23,0,,,151.52936159999808,151.72939410002436,3.7,151.72939410002436,1,3.7,1,1,1000,num_4,0.5740059000090696,,23,15,2026-03-04_14h40.34.734,2026A_exp2,2022.2.4,59.724954637395626,
1,0,0.0,0.0,0,0,40,40,61,,,,,152.3299365999992,152.98076780000702,152.98076780000702,153.4651334999944,45,45,153.4651334999944,153.4651334999944,153.4651334999944,153.4651334999944,153.4651334999944,153.4651334999944,153.4651334999944,153.4651334999944,153.4651334999944,153.8316539999796,153.8316539999796,153.8316539999796,153.8316539999796,153.8316539999796,153.8316539999796,153.8316539999796,153.8316539999796,153.8316539999796,23,0,,,153.8316539999796,154.03177050000522,0.0,154.03177050000522,1,0.0,0,0,1000,num_4,0.6324947999673896,,23,15,2026-03-04_14h40.34.734,2026A_exp2,2022.2.4,59.724954637395626,
0,0,6.1,4.9,1,0,41,41,42,,,,,154.682922100008,155.3330734000192,155.3330734000192,155.83430729998508,315,315,155.83430729998508,155.83430729998508,155.83430729998508,155.83430729998508,155.83430729998508,155.83430729998508,155.83430729998508,155.83430729998508,155.83430729998508,156.1839220999973,156.1839220999973,156.1839220999973,156.1839220999973,156.1839220999973,156.1839220999973,156.1839220999973,156.1839220999973,156.1839220999973,22,0,,,156.1839220999973,156.39782800001558,6.1,156.39782800001558,1,6.1,1,1,1000,num_4,0.6183922999771312,,23,15,2026-03-04_14h40.34.734,2026A_exp2,2022.2.4,59.724954637395626,
1,0,6.1,3.7,1,0,42,42,83,,,,,157.03486810001777,157.6688042000169,157.6688042000169,158.1720964999986,45,45,158.1720964999986,158.1720964999986,158.1720964999986,158.1720964999986,158.1720964999986,158.1720964999986,158.1720964999986,158.1720964999986,158.1720964999986,158.53630510001676,158.53630510001676,158.53630510001676,158.53630510001676,158.53630510001676,158.53630510001676,158.53630510001676,158.53630510001676,158.53630510001676,23,0,,,158.53630510001676,158.74042180000106,3.7,158.74042180000106,0,3.7,1,0,1000,num_1,1.074992600013502,,23,15,2026-03-04_14h40.34.734,2026A_exp2,2022.2.4,59.724954637395626,
1,0,0.0,0.0,1,0,43,43,66,,,,,159.83746469998732,160.4882590000052,160.4882590000052,160.98653059999924,315,45,160.98653059999924,160.98653059999924,160.98653059999924,160.98653059999924,160.98653059999924,160.98653059999924,160.98653059999924,160.98653059999924,160.98653059999924,161.33880249998765,161.33880249998765,161.33880249998765,161.33880249998765,161.33880249998765,161.33880249998765,161.33880249998765,161.33880249998765,161.33880249998765,23,0,,,161.33880249998765,161.53930509998463,0.0,161.53930509998463,0,0.0,0,1,1000,num_1,0.6131835999549367,,23,15,2026-03-04_14h40.34.734,2026A_exp2,2022.2.4,59.724954637395626,
1000,1,4.9,0.0,1,0,44,44,74,,,,,162.17320700001437,162.83314980001887,162.83314980001887,163.3133794000023,45,45,163.3133794000023,163.3133794000023,163.3133794000023,163.3133794000023,163.3133794000023,163.3133794000023,163.3133794000023,163.3133794000023,163.3133794000023,163.6748254999984,163.6748254999984,163.6748254999984,163.6748254999984,163.6748254999984,163.6748254999984,163.6748254999984,163.6748254999984,163.6748254999984,23,0,,,163.6748254999984,163.8913165999693,1000,163.8913165999693,1000,1000,1000,1000,0,num_3,0.5410667000105605,,23,15,2026-03-04_14h40.34.734,2026A_exp2,2022.2.4,59.724954637395626,
1000,1,0.0,0.0,1,0,45,45,44,,,,,164.4587764000171,165.11312659998657,165.11312659998657,165.61069180001505,45,45,165.61069180001505,165.61069180001505,165.61069180001505,165.61069180001505,165.61069180001505,165.61069180001505,165.61069180001505,165.61069180001505,165.61069180001505,165.97671919997083,165.97671919997083,165.97671919997083,165.97671919997083,165.97671919997083,165.97671919997083,165.97671919997083,165.97671919997083,165.97671919997083,23,0,,,165.97671919997083,166.17934349999996,1000,166.17934349999996,1000,1000,1000,1000,0,num_3,0.4600681000156328,,23,15,2026-03-04_14h40.34.734,2026A_exp2,2022.2.4,59.724954637395626,
1,0,0.0,0.0,0,0,46,46,6,,,,,166.66104540001834,167.3052158000064,167.3052158000064,167.7962132000248,315,45,167.7962132000248,167.7962132000248,167.7962132000248,167.7962132000248,167.7962132000248,167.7962132000248,167.7962132000248,167.7962132000248,167.7962132000248,168.16252910002368,168.16252910002368,168.16252910002368,168.16252910002368,168.16252910002368,168.16252910002368,168.16252910002368,168.16252910002368,168.16252910002368,23,0,,,168.16252910002368,168.36290960002225,0.0,168.36290960002225,1,0.0,0,0,1000,num_4,0.6130179000319913,,23,15,2026-03-04_14h40.34.734,2026A_exp2,2022.2.4,59.724954637395626,
1,0,0.0,4.9,1,0,47,47,41,,,,,168.99852030002512,169.6473858000245,169.6473858000245,170.14844530000119,315,45,170.14844530000119,170.14844530000119,170.14844530000119,170.14844530000119,170.14844530000119,170.14844530000119,170.14844530000119,170.14844530000119,170.14844530000119,170.51496359996963,170.51496359996963,170.51496359996963,170.51496359996963,170.51496359996963,170.51496359996963,170.51496359996963,170.51496359996963,170.51496359996963,23,0,,,170.51496359996963,170.71521049999865,4.9,170.71521049999865,1,4.9,1,1,1000,num_4,0.5733008999959566,,23,15,2026-03-04_14h40.34.734,2026A_exp2,2022.2.4,59.724954637395626,
1000,1,4.9,0.0,0,0,48,48,12,,,,,171.31581930001266,171.9664802000043,171.9664802000043,172.450806799985,315,315,172.450806799985,172.450806799985,172.450806799985,172.450806799985,172.450806799985,172.450806799985,172.450806799985,172.450806799985,172.450806799985,172.8171016999986,172.8171016999986,172.8171016999986,172.8171016999986,172.8171016999986,172.8171016999986,172.8171016999986,172.8171016999986,172.8171016999986,23,0,,,172.8171016999986,173.01941980002448,1000,173.01941980002448,1000,1000,1000,1000,0,num_3,0.37244780000764877,,23,15,2026-03-04_14h40.34.734,2026A_exp2,2022.2.4,59.724954637395626,
1,0,4.9,0.0,0,0,49,49,47,,,,,173.4178530999925,174.06851549999556,174.06851549999556,174.56966069998452,315,315,174.56966069998452,174.56966069998452,174.56966069998452,174.56966069998452,174.56966069998452,174.56966069998452,174.56966069998452,174.56966069998452,174.56966069998452,174.93591649999144,174.93591649999144,174.93591649999144,174.93591649999144,174.93591649999144,174.93591649999144,174.93591649999144,174.93591649999144,174.93591649999144,4,3,"[0.0012681999942287803, 0.16955399996368214, 0.20102249999763444]","[0.1202460999484174, 0.18474059994332492, 0.3665701999561861]",174.93591649999144,175.1434202999808,4.9,175.1434202999808,1,4.9,1,1,1000,num_4,0.5529644000343978,,23,15,2026-03-04_14h40.34.734,2026A_exp2,2022.2.4,59.724954637395626,
0,0,0.0,4.9,1,0,50,50,0,,,,,175.72001320001436,176.37071569997352,176.37071569997352,176.85518499999307,45,315,176.85518499999307,176.85518499999307,176.85518499999307,176.85518499999307,176.85518499999307,176.85518499999307,176.85518499999307,176.85518499999307,176.85518499999307,177.22165089996997,177.22165089996997,177.22165089996997,177.22165089996997,177.22165089996997,177.22165089996997,177.22165089996997,177.22165089996997,177.22165089996997,23,0,,,177.22165089996997,177.4354950999841,0.0,177.4354950999841,0,0.0,0,1,1000,num_1,0.5562937999493442,,23,15,2026-03-04_14h40.34.734,2026A_exp2,2022.2.4,59.724954637395626,
1,0,4.9,6.1,1,0,51,51,36,,,,,178.02236140001332,178.67312160000438,178.67312160000438,179.1576140000252,315,315,179.1576140000252,179.1576140000252,179.1576140000252,179.1576140000252,179.1576140000252,179.1576140000252,179.1576140000252,179.1576140000252,179.1576140000252,179.5240217000246,179.5240217000246,179.5240217000246,179.5240217000246,179.5240217000246,179.5240217000246,179.5240217000246,179.5240217000246,179.5240217000246,0,1,[0.0007111000013537705],[0.3676293999888003],179.5240217000246,179.7241103000124,6.1,179.7241103000124,1,6.1,1,1,1000,num_4,0.5159290000447072,,23,15,2026-03-04_14h40.34.734,2026A_exp2,2022.2.4,59.724954637395626,
1,0,0.0,4.9,1,0,52,52,73,,,,,180.25789249996888,180.9086263999925,180.9086263999925,181.3931845999905,315,45,181.3931845999905,181.3931845999905,181.3931845999905,181.3931845999905,181.3931845999905,181.3931845999905,181.3931845999905,181.3931845999905,181.3931845999905,181.75952179997694,181.75952179997694,181.75952179997694,181.75952179997694,181.75952179997694,181.75952179997694,181.75952179997694,181.75952179997694,181.75952179997694,0,1,[0.0012984999921172857],[0.36713770002825186],181.75952179997694,181.95977899996797,4.9,181.95977899996797,1,4.9,1,1,1000,num_4,0.5283149000024423,,23,15,2026-03-04_14h40.34.734,2026A_exp2,2022.2.4,59.724954637395626,
1,0,3.7,0.0,0,0,53,53,9,,,,,182.51018129999284,183.16089990001637,183.16089990001637,183.64528070000233,45,315,183.64528070000233,183.64528070000233,183.64528070000233,183.64528070000233,183.64528070000233,183.64528070000233,183.64528070000233,183.64528070000233,183.64528070000233,184.0119873000076,184.0119873000076,184.0119873000076,184.0119873000076,184.0119873000076,184.0119873000076,184.0119873000076,184.0119873000076,184.0119873000076,0,1,[0.0012002000003121793],[0.36685160000342876],184.0119873000076,184.21199139999226,3.7,184.21199139999226,1,3.7,1,1,1000,num_4,0.499983899993822,,23,15,2026-03-04_14h40.34.734,2026A_exp2,2022.2.4,59.724954637395626,
1000,1,6.1,6.1,1,0,54,54,53,,,,,184.72908289998304,185.37985299999127,185.37985299999127,185.88094339997042,45,315,185.88094339997042,185.88094339997042,185.88094339997042,185.88094339997042,185.88094339997042,185.88094339997042,185.88094339997042,185.88094339997042,185.88094339997042,186.23078400001395,186.23078400001395,186.23078400001395,186.23078400001395,186.23078400001395,186.23078400001395,186.23078400001395,186.23078400001395,186.23078400001395,22,0,,,186.23078400001395,186.43258259998402,1000,186.43258259998402,1000,1000,1000,1000,0,num_3,0.640073399990797,,23,15,2026-03-04_14h40.34.734,2026A_exp2,2022.2.4,59.724954637395626,
0,0,6.1,6.1,1,0,55,55,48,,,,,187.09826240001712,187.7487981999875,187.7487981999875,188.2499630000093,45,315,188.2499630000093,188.2499630000093,188.2499630000093,188.2499630000093,188.2499630000093,188.2499630000093,188.2499630000093,188.2499630000093,188.2499630000093,188.61640389997046,188.61640389997046,188.61640389997046,188.61640389997046,188.61640389997046,188.61640389997046,188.61640389997046,188.61640389997046,188.61640389997046,23,0,,,188.61640389997046,188.81665059999796,6.1,188.81665059999796,0,6.1,1,0,1000,num_1,0.7353340999688953,,23,15,2026-03-04_14h40.34.734,2026A_exp2,2022.2.4,59.724954637395626,
1000,1,0.0,0.0,1,0,56,56,63,,,,,189.58403630001703,190.23466690001078,190.23466690001078,190.71918110002298,315,45,190.71918110002298,190.71918110002298,190.71918110002298,190.71918110002298,190.71918110002298,190.71918110002298,190.71918110002298,190.71918110002298,190.71918110002298,191.08560469996883,191.08560469996883,191.08560469996883,191.08560469996883,191.08560469996883,191.08560469996883,191.08560469996883,191.08560469996883,191.08560469996883,23,0,,,191.08560469996883,191.2874364000163,1000,191.2874364000163,1000,1000,1000,1000,1,num_2,0.7684608999988995,,23,15,2026-03-04_14h40.34.734,2026A_exp2,2022.2.4,59.724954637395626,
1,0,3.7,0.0,0,0,57,57,7,,,,,192.07362179999473,192.72242770000594,192.72242770000594,193.2215202000225,315,315,193.2215202000225,193.2215202000225,193.2215202000225,193.2215202000225,193.2215202000225,193.2215202000225,193.2215202000225,193.2215202000225,193.2215202000225,193.58801489998586,193.58801489998586,193.58801489998586,193.58801489998586,193.58801489998586,193.58801489998586,193.58801489998586,193.58801489998586,193.58801489998586,10,1,[0.16709359997184947],[0.3673700999934226],193.58801489998586,193.78839489998063,3.7,193.78839489998063,1,3.7,1,1,1000,num_4,0.5550418999628164,,23,15,2026-03-04_14h40.34.734,2026A_exp2,2022.2.4,59.724954637395626,
1000,1,0.0,0.0,0,0,58,58,13,,,,,194.37202999996953,195.0227567999973,195.0227567999973,195.50722319999477,315,315,195.50722319999477,195.50722319999477,195.50722319999477,195.50722319999477,195.50722319999477,195.50722319999477,195.50722319999477,195.50722319999477,195.50722319999477,195.87371269997675,195.87371269997675,195.87371269997675,195.87371269997675,195.87371269997675,195.87371269997675,195.87371269997675,195.87371269997675,195.87371269997675,23,0,,,195.87371269997675,196.07538960000966,1000,196.07538960000966,1000,1000,1000,1000,0,num_3,0.9093241000082344,,23,15,2026-03-04_14h40.34.734,2026A_exp2,2022.2.4,59.724954637395626,
1,0,6.1,6.1,1,0,59,59,49,,,,,197.00803229998564,197.65862760000164,197.65862760000164,198.15980289998697,315,315,198.15980289998697,198.15980289998697,198.15980289998697,198.15980289998697,198.15980289998697,198.15980289998697,198.15980289998697,198.15980289998697,198.15980289998697,198.52638509997632,198.52638509997632,198.52638509997632,198.52638509997632,198.52638509997632,198.52638509997632,198.52638509997632,198.52638509997632,198.52638509997632,23,0,,,198.52638509997632,198.7264907999779,6.1,198.7264907999779,1,6.1,1,1,1000,num_4,0.6654095000121742,,23,15,2026-03-04_14h40.34.734,2026A_exp2,2022.2.4,59.724954637395626,
1000,1,0.0,3.7,1,0,60,60,1,,,,,199.41038070002105,200.06120019999798,200.06120019999798,200.56215569999767,315,45,200.56215569999767,200.56215569999767,200.56215569999767,200.56215569999767,200.56215569999767,200.56215569999767,200.56215569999767,200.56215569999767,200.56215569999767,200.9120332999737,200.9120332999737,200.9120332999737,200.9120332999737,200.9120332999737,200.9120332999737,200.9120332999737,200.9120332999737,200.9120332999737,22,0,,,200.9120332999737,201.1138907999848,1000,201.1288107999717,1000,1000,1000,1000,0,num_3,0.7434766999795102,,23,15,2026-03-04_14h40.34.734,2026A_exp2,2022.2.4,59.724954637395626,
1,0,0.0,0.0,0,0,61,61,85,,,,,201.8962354999967,202.54672220000066,202.54672220000066,203.0315426000161,45,45,203.0315426000161,203.0315426000161,203.0315426000161,203.0315426000161,203.0315426000161,203.0315426000161,203.0315426000161,203.0315426000161,203.0315426000161,203.39791549998336,203.39791549998336,203.39791549998336,203.39791549998336,203.39791549998336,203.39791549998336,203.39791549998336,203.39791549998336,203.39791549998336,23,0,,,203.39791549998336,203.59807569999248,0.0,203.59807569999248,1,0.0,0,0,1000,num_4,0.6976532999542542,,23,15,2026-03-04_14h40.34.734,2026A_exp2,2022.2.4,59.724954637395626,
1,0,6.1,0.0,0,0,62,62,77,,,,,204.31524769996759,204.96601999999257,204.96601999999257,205.4505807000096,315,315,205.4505807000096,205.4505807000096,205.4505807000096,205.4505807000096,205.4505807000096,205.4505807000096,205.4505807000096,205.4505807000096,205.4505807000096,205.8169790999964,205.8169790999964,205.8169790999964,205.8169790999964,205.8169790999964,205.8169790999964,205.8169790999964,205.8169790999964,205.8169790999964,23,0,,,205.8169790999964,206.0170943000121,6.1,206.0170943000121,1,6.1,1,1,1000,num_4,0.5590292999986559,,23,15,2026-03-04_14h40.34.734,2026A_exp2,2022.2.4,59.724954637395626,
1000,1,0.0,3.7,0,0,63,63,50,,,,,206.60088480002014,207.2516863999772,207.2516863999772,207.7359997999738,45,315,207.7359997999738,207.7359997999738,207.7359997999738,207.7359997999738,207.7359997999738,207.7359997999738,207.7359997999738,207.7359997999738,207.7359997999738,208.10255309997592,208.10255309997592,208.10255309997592,208.10255309997592,208.10255309997592,208.10255309997592,208.10255309997592,208.10255309997592,208.10255309997592,23,0,,,208.10255309997592,208.3047609999776,1000,208.3047609999776,1000,1000,1000,1000,1,num_2,0.5345184000325389,,23,15,2026-03-04_14h40.34.734,2026A_exp2,2022.2.4,59.724954637395626,
1,0,6.1,0.0,1,0,64,64,17,,,,,208.8699356999714,209.52058860001853,209.52058860001853,210.02173310000217,45,45,210.02173310000217,210.02173310000217,210.02173310000217,210.02173310000217,210.02173310000217,210.02173310000217,210.02173310000217,210.02173310000217,210.02173310000217,210.38821479998296,210.38821479998296,210.38821479998296,210.38821479998296,210.38821479998296,210.38821479998296,210.38821479998296,210.38821479998296,210.38821479998296,23,0,,,210.38821479998296,210.58839829999488,0.0,210.58839829999488,0,0.0,0,1,1000,num_1,0.6678981999866664,,23,15,2026-03-04_14h40.34.734,2026A_exp2,2022.2.4,59.724954637395626,
1,0,6.1,6.1,0,0,65,65,89,,,,,211.27227249997668,211.92301540001063,211.92301540001063,212.40751509997062,45,45,212.40751509997062,212.40751509997062,212.40751509997062,212.40751509997062,212.40751509997062,212.40751509997062,212.40751509997062,212.40751509997062,212.40751509997062,212.77394789998652,212.77394789998652,212.77394789998652,212.77394789998652,212.77394789998652,212.77394789998652,212.77394789998652,212.77394789998652,212.77394789998652,23,0,,,212.77394789998652,212.97420100000454,6.1,212.97420100000454,1,6.1,1,1,1000,num_4,0.5296309000113979,,23,15,2026-03-04_14h40.34.734,2026A_exp2,2022.2.4,59.724954637395626,
1000,1,4.9,0.0,1,0,66,66,84,,,,,213.52451389998896,214.1752981999889,214.1752981999889,214.6597314000246,45,315,214.6597314000246,214.6597314000246,214.6597314000246,214.6597314000246,214.6597314000246,214.6597314000246,214.6597314000246,214.6597314000246,214.6597314000246,215.02623289998155,215.02623289998155,215.02623289998155,215.02623289998155,215.02623289998155,215.02623289998155,215.02623289998155,215.02623289998155,215.02623289998155,23,0,,,215.02623289998155,215.22824199998286,1000,215.22824199998286,1000,1000,1000,1000,0,num_3,0.771180399984587,,23,15,2026-03-04_14h40.34.734,2026A_exp2,2022.2.4,59.724954637395626,
1000,1,0.0,0.0,0,0,67,67,24,,,,,216.02706290001515,216.6778531000018,216.6778531000018,217.17870310001308,315,45,217.17870310001308,217.17870310001308,217.17870310001308,217.17870310001308,217.17870310001308,217.17870310001308,217.17870310001308,217.17870310001308,217.17870310001308,217.54521509999176,217.54521509999176,217.54521509999176,217.54521509999176,217.54521509999176,217.54521509999176,217.54521509999176,217.54521509999176,217.54521509999176,23,0,,,217.54521509999176,217.75107910000952,1000,217.75107910000952,1000,1000,1000,1000,1,num_2,0.4805567999719642,,23,15,2026-03-04_14h40.34.734,2026A_exp2,2022.2.4,59.724954637395626,
1,0,0.0,3.7,0,0,68,68,31,,,,,218.26277630002005,218.913424999977,218.913424999977,219.41451919998508,45,45,219.41451919998508,219.41451919998508,219.41451919998508,219.41451919998508,219.41451919998508,219.41451919998508,219.41451919998508,219.41451919998508,219.41451919998508,219.78092779999133,219.78092779999133,219.78092779999133,219.78092779999133,219.78092779999133,219.78092779999133,219.78092779999133,219.78092779999133,219.78092779999133,23,0,,,219.78092779999133,219.981042600004,0.0,219.981042600004,1,0.0,0,0,1000,num_4,0.5146770999999717,,23,15,2026-03-04_14h40.34.734,2026A_exp2,2022.2.4,59.724954637395626,
1,0,0.0,0.0,0,0,69,69,11,,,,,220.51483940001344,221.16571229998954,221.16571229998954,221.6500705999788,315,45,221.6500705999788,221.6500705999788,221.6500705999788,221.6500705999788,221.6500705999788,221.6500705999788,221.6500705999788,221.6500705999788,221.6500705999788,222.01650999998674,222.01650999998674,222.01650999998674,222.01650999998674,222.01650999998674,222.01650999998674,222.01650999998674,222.01650999998674,222.01650999998674,23,0,,,222.01650999998674,222.21653360000346,0.0,222.21653360000346,1,0.0,0,0,1000,num_4,0.6796115999459289,,23,15,2026-03-04_14h40.34.734,2026A_exp2,2022.2.4,59.724954637395626,
1,0,6.1,0.0,0,0,70,70,51,,,,,222.91715390002355,223.56790069997078,223.56790069997078,224.05242530000396,315,315,224.05242530000396,224.05242530000396,224.05242530000396,224.05242530000396,224.05242530000396,224.05242530000396,224.05242530000396,224.05242530000396,224.05242530000396,224.41881689999718,224.41881689999718,224.41881689999718,224.41881689999718,224.41881689999718,224.41881689999718,224.41881689999718,224.41881689999718,224.41881689999718,23,0,,,224.41881689999718,224.61918909999076,6.1,224.61918909999076,1,6.1,1,1,1000,num_4,0.5094910000334494,,23,15,2026-03-04_14h40.34.734,2026A_exp2,2022.2.4,59.724954637395626,
1,0,0.0,0.0,1,0,71,71,58,,,,,225.1530014000018,225.80363899999065,225.80363899999065,226.28800830000546,45,315,226.28800830000546,226.28800830000546,226.28800830000546,226.28800830000546,226.28800830000546,226.28800830000546,226.28800830000546,226.28800830000546,226.28800830000546,226.654175499978,226.654175499978,226.654175499978,226.654175499978,226.654175499978,226.654175499978,226.654175499978,226.654175499978,226.654175499978,23,0,,,226.654175499978,226.85470650001662,0.0,226.85470650001662,0,0.0,0,1,1000,num_1,1.057539600005839,,23,15,2026-03-04_14h40.34.734,2026A_exp2,2022.2.4,59.724954637395626,
1,0,3.7,3.7,0,0,72,72,8,,,,,227.9389713999699,228.58975350001128,228.58975350001128,229.07419529999606,315,315,229.07419529999606,229.07419529999606,229.07419529999606,229.07419529999606,229.07419529999606,229.07419529999606,229.07419529999606,229.07419529999606,229.07419529999606,229.44039429997792,229.44039429997792,229.44039429997792,229.44039429997792,229.44039429997792,229.44039429997792,229.44039429997792,229.44039429997792,229.44039429997792,23,0,,,229.44039429997792,229.64081379998242,3.7,229.64081379998242,0,3.7,1,0,1000,num_1,0.7911920999758877,,23,15,2026-03-04_14h40.34.734,2026A_exp2,2022.2.4,59.724954637395626,
1,0,4.9,4.9,0,0,73,73,28,,,,,230.4580459999852,231.10879720002413,231.10879720002413,231.59322570002405,315,45,231.59322570002405,231.59322570002405,231.59322570002405,231.59322570002405,231.59322570002405,231.59322570002405,231.59322570002405,231.59322570002405,231.59322570002405,231.96009259996936,231.96009259996936,231.96009259996936,231.96009259996936,231.96009259996936,231.96009259996936,231.96009259996936,231.96009259996936,231.96009259996936,23,0,,,231.96009259996936,232.15992870001355,4.9,232.15992870001355,0,4.9,1,0,1000,num_1,0.6796523000230081,,23,15,2026-03-04_14h40.34.734,2026A_exp2,2022.2.4,59.724954637395626,
1000,1,6.1,4.9,1,0,74,74,15,,,,,232.860766400001,233.51140249997843,233.51140249997843,233.99579989997437,45,315,233.99579989997437,233.99579989997437,233.99579989997437,233.99579989997437,233.99579989997437,233.99579989997437,233.99579989997437,233.99579989997437,233.99579989997437,234.36216700001387,234.36216700001387,234.36216700001387,234.36216700001387,234.36216700001387,234.36216700001387,234.36216700001387,234.36216700001387,234.36216700001387,23,0,,,234.36216700001387,234.56396659999155,1000,234.56396659999155,1000,1000,1000,1000,1,num_2,0.5799777999636717,,23,15,2026-03-04_14h40.34.734,2026A_exp2,2022.2.4,59.724954637395626,
1,0,0.0,0.0,1,0,75,75,59,,,,,235.16290589998243,235.81362149998313,235.81362149998313,236.3145687999786,45,45,236.3145687999786,236.3145687999786,236.3145687999786,236.3145687999786,236.3145687999786,236.3145687999786,236.3145687999786,236.3145687999786,236.3145687999786,236.68108970002504,236.68108970002504,236.68108970002504,236.68108970002504,236.68108970002504,236.68108970002504,236.68108970002504,236.68108970002504,236.68108970002504,23,0,,,236.68108970002504,236.88138829998206,0.0,236.88138829998206,0,0.0,0,1,1000,num_1,2.117968500009738,,23,15,2026-03-04_14h40.34.734,2026A_exp2,2022.2.4,59.724954637395626,
1000,1,6.1,0.0,0,0,76,76,21,,,,,239.0166841999744,239.66747139999643,239.66747139999643,240.15195139998104,45,315,240.15195139998104,240.15195139998104,240.15195139998104,240.15195139998104,240.15195139998104,240.15195139998104,240.15195139998104,240.15195139998104,240.15195139998104,240.5182953000185,240.5182953000185,240.5182953000185,240.5182953000185,240.5182953000185,240.5182953000185,240.5182953000185,240.5182953000185,240.5182953000185,23,0,,,240.5182953000185,240.7203324000002,1000,240.7203324000002,1000,1000,1000,1000,0,num_3,0.567657399980817,,23,15,2026-03-04_14h40.34.734,2026A_exp2,2022.2.4,59.724954637395626,
1,0,0.0,0.0,0,0,77,77,32,,,,,241.31905619997997,241.96978990000207,241.96978990000207,242.4709568999824,45,315,242.4709568999824,242.4709568999824,242.4709568999824,242.4709568999824,242.4709568999824,242.4709568999824,242.4709568999824,242.4709568999824,242.4709568999824,242.82064009999158,242.82064009999158,242.82064009999158,242.82064009999158,242.82064009999158,242.82064009999158,242.82064009999158,242.82064009999158,242.82064009999158,22,0,,,242.82064009999158,243.02076579997083,0.0,243.02076579997083,1,0.0,0,0,1000,num_4,0.8187988999998197,,23,15,2026-03-04_14h40.34.734,2026A_exp2,2022.2.4,59.724954637395626,
1000,1,0.0,4.9,1,0,78,78,57,,,,,243.8549135000212,244.5055903000175,244.5055903000175,245.00683410000056,45,315,245.00683410000056,245.00683410000056,245.00683410000056,245.00683410000056,245.00683410000056,245.00683410000056,245.00683410000056,245.00683410000056,245.00683410000056,245.37328090000665,245.37328090000665,245.37328090000665,245.37328090000665,245.37328090000665,245.37328090000665,245.37328090000665,245.37328090000665,245.37328090000665,23,0,,,245.37328090000665,245.57528980000643,1000,245.57528980000643,1000,1000,1000,1000,1,num_2,0.44138599996222183,,23,15,2026-03-04_14h40.34.734,2026A_exp2,2022.2.4,59.724954637395626,
1,0,3.7,0.0,0,0,79,79,10,,,,,246.0403837999911,246.69108530000085,246.69108530000085,247.19231900002342,45,315,247.19231900002342,247.19231900002342,247.19231900002342,247.19231900002342,247.19231900002342,247.19231900002342,247.19231900002342,247.19231900002342,247.19231900002342,247.55866430001333,247.55866430001333,247.55866430001333,247.55866430001333,247.55866430001333,247.55866430001333,247.55866430001333,247.55866430001333,247.55866430001333,23,0,,,247.55866430001333,247.75895160000073,3.7,247.75895160000073,1,3.7,1,1,1000,num_4,0.6974905000533909,,23,15,2026-03-04_14h40.34.734,2026A_exp2,2022.2.4,59.724954637395626,
1000,1,3.7,3.7,1,0,80,80,54,,,,,248.47602870000992,249.12677299999632,249.12677299999632,249.61132929997984,315,45,249.61132929997984,249.61132929997984,249.61132929997984,249.61132929997984,249.61132929997984,249.61132929997984,249.61132929997984,249.61132929997984,249.61132929997984,249.97768650000216,249.97768650000216,249.97768650000216,249.97768650000216,249.97768650000216,249.97768650000216,249.97768650000216,249.97768650000216,249.97768650000216,23,0,,,249.97768650000216,250.18013779999455,1000,250.18013779999455,1000,1000,1000,1000,1,num_2,0.5392748999875039,,23,15,2026-03-04_14h40.34.734,2026A_exp2,2022.2.4,59.724954637395626,
1,0,0.0,6.1,1,0,81,81,5,,,,,250.74529079999775,251.39576400001533,251.39576400001533,251.89689299999736,315,315,251.89689299999736,251.89689299999736,251.89689299999736,251.89689299999736,251.89689299999736,251.89689299999736,251.89689299999736,251.89689299999736,251.89689299999736,252.2634115999681,252.2634115999681,252.2634115999681,252.2634115999681,252.2634115999681,252.2634115999681,252.2634115999681,252.2634115999681,252.2634115999681,23,0,,,252.2634115999681,252.46366459998535,6.1,252.46366459998535,1,6.1,1,1,1000,num_4,0.48088509996887296,,23,15,2026-03-04_14h40.34.734,2026A_exp2,2022.2.4,59.724954637395626,
1,0,6.1,3.7,1,0,82,82,16,,,,,252.96395720000146,253.61465970001882,253.61465970001882,254.09916420001537,45,45,254.09916420001537,254.09916420001537,254.09916420001537,254.09916420001537,254.09916420001537,254.09916420001537,254.09916420001537,254.09916420001537,254.09916420001537,254.46552799997153,254.46552799997153,254.46552799997153,254.46552799997153,254.46552799997153,254.46552799997153,254.46552799997153,254.46552799997153,254.46552799997153,23,0,,,254.46552799997153,254.66581889998633,3.7,254.66581889998633,0,3.7,1,0,1000,num_1,0.6304393999744207,,23,15,2026-03-04_14h40.34.734,2026A_exp2,2022.2.4,59.724954637395626,
0,0,4.9,6.1,1,0,83,83,70,,,,,255.31628680002177,255.96698999998625,255.96698999998625,256.45138669997687,315,45,256.45138669997687,256.45138669997687,256.45138669997687,256.45138669997687,256.45138669997687,256.45138669997687,256.45138669997687,256.45138669997687,256.45138669997687,256.8179487999878,256.8179487999878,256.8179487999878,256.8179487999878,256.8179487999878,256.8179487999878,256.8179487999878,256.8179487999878,256.8179487999878,23,0,,,256.8179487999878,257.0182112000184,4.9,257.0182112000184,0,4.9,1,0,1000,num_1,0.6221000999794342,,23,15,2026-03-04_14h40.34.734,2026A_exp2,2022.2.4,59.724954637395626,
0,0,0.0,0.0,1,0,84,84,14,,,,,257.66872880002484,258.3194995999802,258.3194995999802,258.8039240000071,315,45,258.8039240000071,258.8039240000071,258.8039240000071,258.8039240000071,258.8039240000071,258.8039240000071,258.8039240000071,258.8039240000071,258.8039240000071,259.17007960000774,259.17007960000774,259.17007960000774,259.17007960000774,259.17007960000774,259.17007960000774,259.17007960000774,259.17007960000774,259.17007960000774,23,0,,,259.17007960000774,259.3704534000135,0.0,259.3704534000135,1,0.0,0,0,1000,num_4,0.6528129000216722,,23,15,2026-03-04_14h40.34.734,2026A_exp2,2022.2.4,59.724954637395626,
1000,1,0.0,3.7,1,0,85,85,67,,,,,260.054449999996,260.70519549999153,260.70519549999153,261.2061249000253,315,45,261.2061249000253,261.2061249000253,261.2061249000253,261.2061249000253,261.2061249000253,261.2061249000253,261.2061249000253,261.2061249000253,261.2061249000253,261.55602209997596,261.55602209997596,261.55602209997596,261.55602209997596,261.55602209997596,261.55602209997596,261.55602209997596,261.55602209997596,261.55602209997596,22,0,,,261.55602209997596,261.7584560000105,1000,261.7584560000105,1000,1000,1000,1000,1,num_2,0.5049986999947578,,23,15,2026-03-04_14h40.34.734,2026A_exp2,2022.2.4,59.724954637395626,
1000,1,0.0,4.9,0,0,86,86,23,,,,,262.2899760999717,262.94074819999514,262.94074819999514,263.44191529997624,315,315,263.44191529997624,263.44191529997624,263.44191529997624,263.44191529997624,263.44191529997624,263.44191529997624,263.44191529997624,263.44191529997624,263.44191529997624,263.80831240001135,263.80831240001135,263.80831240001135,263.80831240001135,263.80831240001135,263.80831240001135,263.80831240001135,263.80831240001135,263.80831240001135,7,4,"[0.0012035000254400074, 0.1995712000061758, 0.2838171999901533, 0.31720779999159276]","[0.13363310002023354, 0.2501062999945134, 0.30037050001556054, 0.3673211000277661]",263.80831240001135,264.01079450000543,1000,264.01079450000543,1000,1000,1000,1000,1,num_2,0.4295455000246875,,23,15,2026-03-04_14h40.34.734,2026A_exp2,2022.2.4,59.724954637395626,
1000,1,4.9,3.7,0,0,87,87,40,,,,,264.45880680001574,265.10945970000466,265.10945970000466,265.6106674000039,45,315,265.6106674000039,265.6106674000039,265.6106674000039,265.6106674000039,265.6106674000039,265.6106674000039,265.6106674000039,265.6106674000039,265.6106674000039,265.9769971999922,265.9769971999922,265.9769971999922,265.9769971999922,265.9769971999922,265.9769971999922,265.9769971999922,265.9769971999922,265.9769971999922,23,0,,,265.9769971999922,266.1790061999927,1000,266.1790061999927,1000,1000,1000,1000,0,num_3,0.5723919000010937,,23,15,2026-03-04_14h40.34.734,2026A_exp2,2022.2.4,59.724954637395626,
1,0,3.7,6.1,1,0,88,88,75,,,,,266.7777400999912,267.42859630001476,267.42859630001476,267.9297216999694,45,315,267.9297216999694,267.9297216999694,267.9297216999694,267.9297216999694,267.9297216999694,267.9297216999694,267.9297216999694,267.9297216999694,267.9297216999694,268.27966499998,268.27966499998,268.27966499998,268.27966499998,268.27966499998,268.27966499998,268.27966499998,268.27966499998,268.27966499998,22,0,,,268.27966499998,268.47965519997524,6.1,268.4961638000095,1,6.1,1,1,1000,num_4,0.43966659996658564,,23,15,2026-03-04_14h40.34.734,2026A_exp2,2022.2.4,59.724954637395626,
1,0,4.9,4.9,1,0,89,89,18,,,,,268.9632204999798,269.614075999998,269.614075999998,270.09856090001995,45,315,270.09856090001995,270.09856090001995,270.09856090001995,270.09856090001995,270.09856090001995,270.09856090001995,270.09856090001995,270.09856090001995,270.09856090001995,270.4648964999942,270.4648964999942,270.4648964999942,270.4648964999942,270.4648964999942,270.4648964999942,270.4648964999942,270.4648964999942,270.4648964999942,23,0,,,270.4648964999942,270.66513400000986,4.9,270.66513400000986,0,4.9,1,0,1000,num_1,1.0463123000226915,,23,15,2026-03-04_14h40.34.734,2026A_exp2,2022.2.4,59.724954637395626,
,,,,,,,,,,,,,,,,,,,,,,,,,,,,,,,,,,,,,,,,,,,,,,,,,,,,271.74146400002064,,,,,,,
