validity,detectorcomp,contrastCW,contrastCCW,precueCWorCCW,block_80trials.thisRepN,block_80trials.thisTrialN,block_80trials.thisN,block_80trials.thisIndex,etRecord.started,etRecord.stopped,text.started,text.stopped,text_4.started,text_4.stopped,text_6.started,text_6.stopped,oriCW,oriCCW,roi_2.started,grating_UR.started,grating_UL.started,grating_LR.started,grating_LL.started,noise_UR.started,noise_UL.started,noise_LR.started,noise_LL.started,roi_2.stopped,grating_UR.stopped,grating_UL.stopped,grating_LR.stopped,grating_LL.stopped,noise_UR.stopped,noise_UL.stopped,noise_LR.stopped,noise_LL.stopped,outframe,roi_2.numLooks,roi_2.timesOn,roi_2.timesOff,text_2.started,text_2.stopped,probedcontrast,key_resp.started,respdetect,relevantContrast,correctDetect,TorFdetect,respCWorCCW,key_resp.keys,key_resp.rt,feedback_display_.started,participantNo,blockNo,date,expName,psychopyVersion,frameRate,
1000,1,3.7,6.1,0,0,0,0,60,0.00016310001956298947,0.00016310001956298947,62.317595600005006,64.32873310000286,64.32873310000286,64.9722608999873,64.9722608999873,65.49457629999961,45,315,65.49457629999961,65.49457629999961,65.49457629999961,65.49457629999961,65.49457629999961,65.49457629999961,65.49457629999961,65.49457629999961,65.49457629999961,65.8396277000138,65.8396277000138,65.8396277000138,65.8396277000138,65.8396277000138,65.8396277000138,65.8396277000138,65.8396277000138,65.8396277000138,0,1,[0.000957900017965585],[0.36729039999772795],65.8396277000138,66.04655790000106,1000,66.04655790000106,1000,1000,1000,1000,1,num_2,0.5585518000007141,,20,5,2026-03-02_15h50.04.755,2026A_exp2,2022.2.4,59.917517541581034,
1000,1,0.0,4.9,1,0,1,1,37,,,,,66.62387780001154,67.27438439999241,67.27438439999241,67.75876630001585,45,315,67.75876630001585,67.75876630001585,67.75876630001585,67.75876630001585,67.75876630001585,67.75876630001585,67.75876630001585,67.75876630001585,67.75876630001585,68.12523689999944,68.12523689999944,68.12523689999944,68.12523689999944,68.12523689999944,68.12523689999944,68.12523689999944,68.12523689999944,68.12523689999944,3,1,[0.05008420001831837],[0.3675556000089273],68.12523689999944,68.32784589999937,1000,68.32784589999937,1000,1000,1000,1000,1,num_2,0.6133035999955609,,20,5,2026-03-02_15h50.04.755,2026A_exp2,2022.2.4,59.917517541581034,
1000,1,3.7,4.9,1,0,2,2,71,,,,,68.95949189999374,69.60990559999482,69.60990559999482,70.11112489999505,315,45,70.11112489999505,70.11112489999505,70.11112489999505,70.11112489999505,70.11112489999505,70.11112489999505,70.11112489999505,70.11112489999505,70.11112489999505,70.47765539999818,70.47765539999818,70.47765539999818,70.47765539999818,70.47765539999818,70.47765539999818,70.47765539999818,70.47765539999818,70.47765539999818,0,1,[0.0012255999899934977],[0.3673631999990903],70.47765539999818,70.67981890001101,1000,70.67981890001101,1000,1000,1000,1000,1,num_2,1.2693215000035707,,20,5,2026-03-02_15h50.04.755,2026A_exp2,2022.2.4,59.917517541581034,
1,0,0.0,4.9,0,0,3,3,70,,,,,71.97919260000344,72.62973740001325,72.62973740001325,73.13080330000957,45,45,73.13080330000957,73.13080330000957,73.13080330000957,73.13080330000957,73.13080330000957,73.13080330000957,73.13080330000957,73.13080330000957,73.13080330000957,73.49727399999392,73.49727399999392,73.49727399999392,73.49727399999392,73.49727399999392,73.49727399999392,73.49727399999392,73.49727399999392,73.49727399999392,0,1,[0.0013023999927099794],[0.3666195999830961],73.49727399999392,73.69737179999356,0.0,73.69737179999356,0,0.0,0,1,1000,num_1,1.5078921999956947,,20,5,2026-03-02_15h50.04.755,2026A_exp2,2022.2.4,59.917517541581034,
1,0,0.0,0.0,0,0,4,4,80,,,,,75.23236490000272,75.86637740000151,75.86637740000151,76.36737910000375,45,45,76.36737910000375,76.36737910000375,76.36737910000375,76.36737910000375,76.36737910000375,76.36737910000375,76.36737910000375,76.36737910000375,76.36737910000375,76.73384619998978,76.73384619998978,76.73384619998978,76.73384619998978,76.73384619998978,76.73384619998978,76.73384619998978,76.73384619998978,76.73384619998978,0,1,[0.0014056999934837222],[0.36717669997597113],76.73384619998978,76.93410770001356,0.0,76.93410770001356,0,0.0,0,1,1000,num_1,0.655314300005557,,20,5,2026-03-02_15h50.04.755,2026A_exp2,2022.2.4,59.917517541581034,
1000,1,0.0,0.0,0,0,5,5,7,,,,,77.61815240001306,78.26866810000502,78.26866810000502,78.75314710001112,315,315,78.75314710001112,78.75314710001112,78.75314710001112,78.75314710001112,78.75314710001112,78.75314710001112,78.75314710001112,78.75314710001112,78.75314710001112,79.11968140001409,79.11968140001409,79.11968140001409,79.11968140001409,79.11968140001409,79.11968140001409,79.11968140001409,79.11968140001409,79.11968140001409,23,0,,,79.11968140001409,79.32184069999494,1000,79.32184069999494,1000,1000,1000,1000,1,num_2,0.5949644000211265,,20,5,2026-03-02_15h50.04.755,2026A_exp2,2022.2.4,59.917517541581034,
0,0,6.1,3.7,0,0,6,6,49,,,,,79.93690979998792,80.58770820000791,80.58770820000791,81.08861269999761,45,45,81.08861269999761,81.08861269999761,81.08861269999761,81.08861269999761,81.08861269999761,81.08861269999761,81.08861269999761,81.08861269999761,81.08861269999761,81.45523200000753,81.45523200000753,81.45523200000753,81.45523200000753,81.45523200000753,81.45523200000753,81.45523200000753,81.45523200000753,81.45523200000753,0,1,[0.0012119000020902604],[0.36708890000591055],81.45523200000753,81.65554040001007,3.7,81.65554040001007,1,3.7,1,1,1000,num_4,1.0944205000123475,,20,5,2026-03-02_15h50.04.755,2026A_exp2,2022.2.4,59.917517541581034,
1000,1,3.7,0.0,0,0,7,7,39,,,,,82.77312560001155,83.42384820000734,83.42384820000734,83.90815160001512,315,315,83.90815160001512,83.90815160001512,83.90815160001512,83.90815160001512,83.90815160001512,83.90815160001512,83.90815160001512,83.90815160001512,83.90815160001512,84.27464129999862,84.27464129999862,84.27464129999862,84.27464129999862,84.27464129999862,84.27464129999862,84.27464129999862,84.27464129999862,84.27464129999862,0,1,[0.0012234000023454428],[0.3668752000085078],84.27464129999862,84.47661199999857,1000,84.47661199999857,1000,1000,1000,1000,0,num_3,1.0484791999915615,,20,5,2026-03-02_15h50.04.755,2026A_exp2,2022.2.4,59.917517541581034,
1000,1,6.1,4.9,0,0,8,8,51,,,,,85.54250400001183,86.19342060000054,86.19342060000054,86.69434539999929,315,45,86.69434539999929,86.69434539999929,86.69434539999929,86.69434539999929,86.69434539999929,86.69434539999929,86.69434539999929,86.69434539999929,86.69434539999929,87.04403019999154,87.04403019999154,87.04403019999154,87.04403019999154,87.04403019999154,87.04403019999154,87.04403019999154,87.04403019999154,87.04403019999154,0,1,[0.0012451999937184155],[0.35048409999581054],87.04403019999154,87.24616219999734,1000,87.26104800001485,1000,1000,1000,1000,0,num_3,0.6639302000112366,,20,5,2026-03-02_15h50.04.755,2026A_exp2,2022.2.4,59.917517541581034,
0,0,3.7,0.0,0,0,9,9,18,,,,,87.94500259999768,88.59562400000868,88.59562400000868,89.09685470000841,45,315,89.09685470000841,89.09685470000841,89.09685470000841,89.09685470000841,89.09685470000841,89.09685470000841,89.09685470000841,89.09685470000841,89.09685470000841,89.46330239999224,89.46330239999224,89.46330239999224,89.46330239999224,89.46330239999224,89.46330239999224,89.46330239999224,89.46330239999224,89.46330239999224,4,1,[0.0012339999957475811],[0.3172341999888886],89.46330239999224,89.66352160001406,0.0,89.66352160001406,0,0.0,0,1,1000,num_1,1.4866840000031516,,20,5,2026-03-02_15h50.04.755,2026A_exp2,2022.2.4,59.917517541581034,
1,0,0.0,0.0,1,0,10,10,31,,,,,91.18154119999963,91.83225690000108,91.83225690000108,92.31660799999372,315,315,92.31660799999372,92.31660799999372,92.31660799999372,92.31660799999372,92.31660799999372,92.31660799999372,92.31660799999372,92.31660799999372,92.31660799999372,92.68313960000523,92.68313960000523,92.68313960000523,92.68313960000523,92.68313960000523,92.68313960000523,92.68313960000523,92.68313960000523,92.68313960000523,2,2,"[0.017417099996237084, 0.28345770001760684]","[0.2666748000192456, 0.36725740000838414]",92.68313960000523,92.88339780000388,0.0,92.88339780000388,0,0.0,0,1,1000,num_1,1.8655608000117354,,20,5,2026-03-02_15h50.04.755,2026A_exp2,2022.2.4,59.917517541581034,
0,0,3.7,0.0,1,0,11,11,1,,,,,94.76845550001599,95.41931990001467,95.41931990001467,95.90367699999479,45,45,95.90367699999479,95.90367699999479,95.90367699999479,95.90367699999479,95.90367699999479,95.90367699999479,95.90367699999479,95.90367699999479,95.90367699999479,96.27008809999097,96.27008809999097,96.27008809999097,96.27008809999097,96.27008809999097,96.27008809999097,96.27008809999097,96.27008809999097,96.27008809999097,23,0,,,96.27008809999097,96.47020569999586,3.7,96.47020569999586,1,3.7,1,1,1000,num_4,0.8079527000081725,,20,5,2026-03-02_15h50.04.755,2026A_exp2,2022.2.4,59.917517541581034,
1000,1,3.7,6.1,1,0,12,12,75,,,,,97.30584419998922,97.95719409998856,97.95719409998856,98.46149899999727,315,315,98.46149899999727,98.46149899999727,98.46149899999727,98.46149899999727,98.46149899999727,98.46149899999727,98.46149899999727,98.46149899999727,98.46149899999727,98.82255740000983,98.82255740000983,98.82255740000983,98.82255740000983,98.82255740000983,98.82255740000983,98.82255740000983,98.82255740000983,98.82255740000983,2,1,[0.0026368999970145524],[0.3488511999894399],98.82255740000983,99.02681089998805,1000,99.02681089998805,1000,1000,1000,1000,1,num_2,0.5071292000066023,,20,5,2026-03-02_15h50.04.755,2026A_exp2,2022.2.4,59.917517541581034,
1000,1,6.1,6.1,1,0,13,13,22,,,,,99.55665519999457,100.20728490001056,100.20728490001056,100.70827020000434,315,315,100.70827020000434,100.70827020000434,100.70827020000434,100.70827020000434,100.70827020000434,100.70827020000434,100.70827020000434,100.70827020000434,100.70827020000434,101.07484700001078,101.07484700001078,101.07484700001078,101.07484700001078,101.07484700001078,101.07484700001078,101.07484700001078,101.07484700001078,101.07484700001078,23,0,,,101.07484700001078,101.27510530001018,1000,101.27510530001018,1000,1000,1000,1000,0,num_3,0.9302680999971926,,20,5,2026-03-02_15h50.04.755,2026A_exp2,2022.2.4,59.917517541581034,
0,0,4.9,0.0,0,0,14,14,40,,,,,102.2261581000057,102.87659239998902,102.87659239998902,103.36099819999072,315,45,103.36099819999072,103.36099819999072,103.36099819999072,103.36099819999072,103.36099819999072,103.36099819999072,103.36099819999072,103.36099819999072,103.36099819999072,103.72752479999326,103.72752479999326,103.72752479999326,103.72752479999326,103.72752479999326,103.72752479999326,103.72752479999326,103.72752479999326,103.72752479999326,22,1,[0.36688379998668097],[0.36688849999336526],103.72752479999326,103.9276177000138,0.0,103.9276177000138,0,0.0,0,1,1000,num_1,0.8373226999829058,,20,5,2026-03-02_15h50.04.755,2026A_exp2,2022.2.4,59.917517541581034,
1,0,4.9,0.0,0,0,15,15,66,,,,,104.79510730001493,105.44593710001209,105.44593710001209,105.93045310000889,315,315,105.93045310000889,105.93045310000889,105.93045310000889,105.93045310000889,105.93045310000889,105.93045310000889,105.93045310000889,105.93045310000889,105.93045310000889,106.29677509999601,106.29677509999601,106.29677509999601,106.29677509999601,106.29677509999601,106.29677509999601,106.29677509999601,106.29677509999601,106.29677509999601,23,0,,,106.29677509999601,106.49700189998839,4.9,106.49700189998839,1,4.9,1,1,1000,num_4,0.7719382999930531,,20,5,2026-03-02_15h50.04.755,2026A_exp2,2022.2.4,59.917517541581034,
0,0,6.1,0.0,1,0,16,16,25,,,,,107.29766989999916,107.94837389999884,107.94837389999884,108.43267730000662,315,315,108.43267730000662,108.43267730000662,108.43267730000662,108.43267730000662,108.43267730000662,108.43267730000662,108.43267730000662,108.43267730000662,108.43267730000662,108.79930839998997,108.79930839998997,108.79930839998997,108.79930839998997,108.79930839998997,108.79930839998997,108.79930839998997,108.79930839998997,108.79930839998997,0,1,[0.0012607999960891902],[0.36709389998577535],108.79930839998997,108.99950939998962,6.1,108.99950939998962,1,6.1,1,1,1000,num_4,0.9257730000244919,,20,5,2026-03-02_15h50.04.755,2026A_exp2,2022.2.4,59.917517541581034,
1000,1,6.1,3.7,1,0,17,17,11,,,,,109.95049320001272,110.60096300000441,110.60096300000441,111.0854493000079,315,315,111.0854493000079,111.0854493000079,111.0854493000079,111.0854493000079,111.0854493000079,111.0854493000079,111.0854493000079,111.0854493000079,111.0854493000079,111.46837869999581,111.46837869999581,111.46837869999581,111.46837869999581,111.46837869999581,111.46837869999581,111.46837869999581,111.46837869999581,111.46837869999581,24,0,,,111.46837869999581,111.67975380001008,1000,111.67975380001008,1000,1000,1000,1000,0,num_3,1.1887603000213858,,20,5,2026-03-02_15h50.04.755,2026A_exp2,2022.2.4,59.917517541581034,
1000,1,0.0,0.0,1,0,18,18,73,,,,,112.88649330000044,113.53734710000572,113.53734710000572,114.0385448000161,315,45,114.0385448000161,114.0385448000161,114.0385448000161,114.0385448000161,114.0385448000161,114.0385448000161,114.0385448000161,114.0385448000161,114.0385448000161,114.40489380000508,114.40489380000508,114.40489380000508,114.40489380000508,114.40489380000508,114.40489380000508,114.40489380000508,114.40489380000508,114.40489380000508,23,0,,,114.40489380000508,114.6071515000076,1000,114.6071515000076,1000,1000,1000,1000,0,num_3,2.2386282000225037,,20,5,2026-03-02_15h50.04.755,2026A_exp2,2022.2.4,59.917517541581034,
1,0,4.9,0.0,1,0,19,19,34,,,,,116.87393500001053,117.5247037000081,117.5247037000081,118.02566290000686,45,315,118.02566290000686,118.02566290000686,118.02566290000686,118.02566290000686,118.02566290000686,118.02566290000686,118.02566290000686,118.02566290000686,118.02566290000686,118.37547440000344,118.37547440000344,118.37547440000344,118.37547440000344,118.37547440000344,118.37547440000344,118.37547440000344,118.37547440000344,118.37547440000344,2,2,"[0.0012135000142734498, 0.10019820000161417]","[0.06702459999360144, 0.35051560000283644]",118.37547440000344,118.57575129999896,0.0,118.57575129999896,0,0.0,0,1,1000,num_1,2.397846700012451,,20,5,2026-03-02_15h50.04.755,2026A_exp2,2022.2.4,59.917517541581034,
0,0,0.0,0.0,1,0,20,20,44,,,,,120.99463160001324,121.645546499989,121.645546499989,122.12977649999084,45,315,122.12977649999084,122.12977649999084,122.12977649999084,122.12977649999084,122.12977649999084,122.12977649999084,122.12977649999084,122.12977649999084,122.12977649999084,122.49634030001471,122.49634030001471,122.49634030001471,122.49634030001471,122.49634030001471,122.49634030001471,122.49634030001471,122.49634030001471,122.49634030001471,6,2,"[0.033532399975229055, 0.20032099998206832]","[0.18371959999785759, 0.33391389998723753]",122.49634030001471,122.69639659998938,0.0,122.69639659998938,0,0.0,0,1,1000,num_1,1.3325278999982402,,20,5,2026-03-02_15h50.04.755,2026A_exp2,2022.2.4,59.917517541581034,
0,0,6.1,0.0,1,0,21,21,52,,,,,124.04773739998927,124.69857050001156,124.69857050001156,125.1996141000127,315,45,125.1996141000127,125.1996141000127,125.1996141000127,125.1996141000127,125.1996141000127,125.1996141000127,125.1996141000127,125.1996141000127,125.1996141000127,125.56601680000313,125.56601680000313,125.56601680000313,125.56601680000313,125.56601680000313,125.56601680000313,125.56601680000313,125.56601680000313,125.56601680000313,11,1,[0.1837017000070773],[0.36722380001447164],125.56601680000313,125.76630690001184,6.1,125.76630690001184,1,6.1,1,1,1000,num_4,0.5421512000029907,,20,5,2026-03-02_15h50.04.755,2026A_exp2,2022.2.4,59.917517541581034,
1,0,4.9,4.9,1,0,22,22,9,,,,,126.33338610001374,126.9841155000031,126.9841155000031,127.46852200001013,45,315,127.46852200001013,127.46852200001013,127.46852200001013,127.46852200001013,127.46852200001013,127.46852200001013,127.46852200001013,127.46852200001013,127.46852200001013,127.83487079999759,127.83487079999759,127.83487079999759,127.83487079999759,127.83487079999759,127.83487079999759,127.83487079999759,127.83487079999759,127.83487079999759,23,0,,,127.83487079999759,128.03506480000215,4.9,128.03506480000215,1,4.9,1,1,1000,num_4,1.578393200004939,,20,5,2026-03-02_15h50.04.755,2026A_exp2,2022.2.4,59.917517541581034,
1000,1,4.9,0.0,1,0,23,23,12,,,,,129.63667730000452,130.28741170000285,130.28741170000285,130.7719017000054,45,45,130.7719017000054,130.7719017000054,130.7719017000054,130.7719017000054,130.7719017000054,130.7719017000054,130.7719017000054,130.7719017000054,130.7719017000054,131.1382877000142,131.1382877000142,131.1382877000142,131.1382877000142,131.1382877000142,131.1382877000142,131.1382877000142,131.1382877000142,131.1382877000142,8,3,"[0.0010884000221267343, 0.16718780001974665, 0.28388480001012795]","[0.10040080000180751, 0.21731750000617467, 0.3673385000147391]",131.1382877000142,131.34024130000034,1000,131.34024130000034,1000,1000,1000,1000,0,num_3,0.6247753000061493,,20,5,2026-03-02_15h50.04.755,2026A_exp2,2022.2.4,59.917517541581034,
1000,1,6.1,4.9,0,0,24,24,81,,,,,131.98895540001104,132.6397433000093,132.6397433000093,133.14084040001035,45,315,133.14084040001035,133.14084040001035,133.14084040001035,133.14084040001035,133.14084040001035,133.14084040001035,133.14084040001035,133.14084040001035,133.14084040001035,133.50726199999917,133.50726199999917,133.50726199999917,133.50726199999917,133.50726199999917,133.50726199999917,133.50726199999917,133.50726199999917,133.50726199999917,0,1,[0.001279799995245412],[0.3671530999999959],133.50726199999917,133.70930640000734,1000,133.70930640000734,1000,1000,1000,1000,1,num_2,0.5115526000154205,,20,5,2026-03-02_15h50.04.755,2026A_exp2,2022.2.4,59.917517541581034,
1000,1,0.0,0.0,0,0,25,25,89,,,,,134.2414556000149,134.89204299999983,134.89204299999983,135.3764121000131,315,45,135.3764121000131,135.3764121000131,135.3764121000131,135.3764121000131,135.3764121000131,135.3764121000131,135.3764121000131,135.3764121000131,135.3764121000131,135.74287250000634,135.74287250000634,135.74287250000634,135.74287250000634,135.74287250000634,135.74287250000634,135.74287250000634,135.74287250000634,135.74287250000634,16,4,"[0.0012211000139359385, 0.1336650000012014, 0.16710819999570958, 0.23380799998994917]","[0.0337170000129845, 0.1504440999997314, 0.21710820001317188, 0.25048220000462607]",135.74287250000634,135.94525849999627,1000,135.94525849999627,1000,1000,1000,1000,0,num_3,0.5955924000008963,,20,5,2026-03-02_15h50.04.755,2026A_exp2,2022.2.4,59.917517541581034,
1,0,0.0,0.0,1,0,26,26,83,,,,,136.5603054999956,137.21107170000323,137.21107170000323,137.71222869999474,45,45,137.71222869999474,137.71222869999474,137.71222869999474,137.71222869999474,137.71222869999474,137.71222869999474,137.71222869999474,137.71222869999474,137.71222869999474,138.0785865999933,138.0785865999933,138.0785865999933,138.0785865999933,138.0785865999933,138.0785865999933,138.0785865999933,138.0785865999933,138.0785865999933,10,7,"[0.01783559998148121, 0.06699939997633919, 0.13370079998276196, 0.200497899990296, 0.2333222999877762, 0.2670751999830827, 0.33396129999891855]","[0.03354360000230372, 0.11693570000352338, 0.18367879997822456, 0.21707189999870025, 0.25026919998344965, 0.2836288999824319, 0.36739469997701235]",138.0785865999933,138.27878090000013,0.0,138.27878090000013,1,0.0,0,0,1000,num_4,1.2711148000089452,,20,5,2026-03-02_15h50.04.755,2026A_exp2,2022.2.4,59.917517541581034,
0,0,4.9,0.0,0,0,27,27,84,,,,,139.57997140000225,140.2307650000148,140.2307650000148,140.71507189999102,45,315,140.71507189999102,140.71507189999102,140.71507189999102,140.71507189999102,140.71507189999102,140.71507189999102,140.71507189999102,140.71507189999102,140.71507189999102,141.08153039999888,141.08153039999888,141.08153039999888,141.08153039999888,141.08153039999888,141.08153039999888,141.08153039999888,141.08153039999888,141.08153039999888,0,1,[0.001218299992615357],[0.36717959999805316],141.08153039999888,141.28173879999667,0.0,141.28173879999667,0,0.0,0,1,1000,num_1,0.6762215000053402,,20,5,2026-03-02_15h50.04.755,2026A_exp2,2022.2.4,59.917517541581034,
1000,1,0.0,6.1,0,0,28,28,16,,,,,141.98232489998918,142.633107200003,142.633107200003,143.11740519999876,315,45,143.11740519999876,143.11740519999876,143.11740519999876,143.11740519999876,143.11740519999876,143.11740519999876,143.11740519999876,143.11740519999876,143.11740519999876,143.48388409998734,143.48388409998734,143.48388409998734,143.48388409998734,143.48388409998734,143.48388409998734,143.48388409998734,143.48388409998734,143.48388409998734,16,5,"[0.06690450001042336, 0.16713720001280308, 0.20048600001609884, 0.2339302000182215, 0.3006083000218496]","[0.08376380000845529, 0.1838362000125926, 0.21706590001122095, 0.2505685000214726, 0.31733400002121925]",143.48388409998734,143.68635510001332,1000,143.68635510001332,1000,1000,1000,1000,1,num_2,0.7035601999959908,,20,5,2026-03-02_15h50.04.755,2026A_exp2,2022.2.4,59.917517541581034,
1,0,0.0,0.0,1,0,29,29,33,,,,,144.41811009999947,145.06855039999937,145.06855039999937,145.55320170000778,45,315,145.55320170000778,145.55320170000778,145.55320170000778,145.55320170000778,145.55320170000778,145.55320170000778,145.55320170000778,145.55320170000778,145.55320170000778,145.9196874999907,145.9196874999907,145.9196874999907,145.9196874999907,145.9196874999907,145.9196874999907,145.9196874999907,145.9196874999907,145.9196874999907,11,5,"[0.0012795000220648944, 0.08347720000892878, 0.11675560000003316, 0.18348700000206009, 0.3169652000069618]","[0.033370699995430186, 0.10001600001123734, 0.1503048000158742, 0.2668984000047203, 0.33370770001783967]",145.9196874999907,146.11983340000734,0.0,146.11983340000734,1,0.0,0,0,1000,num_4,1.6297982000105549,,20,5,2026-03-02_15h50.04.755,2026A_exp2,2022.2.4,59.917517541581034,
1,0,0.0,4.9,0,0,30,30,14,,,,,147.77157549999538,148.42218799999682,148.42218799999682,148.9067015000037,45,315,148.9067015000037,148.9067015000037,148.9067015000037,148.9067015000037,148.9067015000037,148.9067015000037,148.9067015000037,148.9067015000037,148.9067015000037,149.2729573000106,149.2729573000106,149.2729573000106,149.2729573000106,149.2729573000106,149.2729573000106,149.2729573000106,149.2729573000106,149.2729573000106,17,4,"[0.0668786000169348, 0.11692910001147538, 0.2671213000139687, 0.36723350000102073]","[0.08347290000529028, 0.16710620000958443, 0.2839686000079382, 0.36723830000846647]",149.2729573000106,149.47313629998825,0.0,149.47313629998825,0,0.0,0,1,1000,num_1,0.795597300020745,,20,5,2026-03-02_15h50.04.755,2026A_exp2,2022.2.4,59.917517541581034,
1000,1,0.0,3.7,0,0,31,31,63,,,,,150.29055520001566,150.94142960000318,150.94142960000318,151.4258805999998,45,45,151.4258805999998,151.4258805999998,151.4258805999998,151.4258805999998,151.4258805999998,151.4258805999998,151.4258805999998,151.4258805999998,151.4258805999998,151.7922622000042,151.7922622000042,151.7922622000042,151.7922622000042,151.7922622000042,151.7922622000042,151.7922622000042,151.7922622000042,151.7922622000042,23,0,,,151.7922622000042,151.99476040000445,1000,151.99476040000445,1000,1000,1000,1000,1,num_2,1.1464164999779314,,20,5,2026-03-02_15h50.04.755,2026A_exp2,2022.2.4,59.917517541581034,
1000,1,4.9,3.7,0,0,32,32,28,,,,,153.16026810000767,153.812267900008,153.812267900008,154.29560139999376,45,45,154.29560139999376,154.29560139999376,154.29560139999376,154.29560139999376,154.29560139999376,154.29560139999376,154.29560139999376,154.29560139999376,154.29560139999376,154.66180699999677,154.66180699999677,154.66180699999677,154.66180699999677,154.66180699999677,154.66180699999677,154.66180699999677,154.66180699999677,154.66180699999677,6,2,"[0.06729259999701753, 0.09822220000205562]","[0.08238179999170825, 0.36529869999503717]",154.66180699999677,154.86367690001498,1000,154.86367690001498,1000,1000,1000,1000,0,num_3,0.47806860000127926,,20,5,2026-03-02_15h50.04.755,2026A_exp2,2022.2.4,59.917517541581034,
1000,1,4.9,6.1,1,0,33,33,5,,,,,155.36247890000232,156.01313979999395,156.01313979999395,156.51425670000026,315,45,156.51425670000026,156.51425670000026,156.51425670000026,156.51425670000026,156.51425670000026,156.51425670000026,156.51425670000026,156.51425670000026,156.51425670000026,156.88054549999651,156.88054549999651,156.88054549999651,156.88054549999651,156.88054549999651,156.88054549999651,156.88054549999651,156.88054549999651,156.88054549999651,12,7,"[0.001250800007255748, 0.10035339999012649, 0.1335358000069391, 0.18333820000407286, 0.21677239998825826, 0.2666136999905575, 0.3503727999923285]","[0.017252599995117635, 0.11697100001038052, 0.15016610000748187, 0.20011199999134988, 0.25021329999435693, 0.33368819998577237, 0.3673066000046674]",156.88054549999651,157.08276779999142,1000,157.08276779999142,1000,1000,1000,1000,1,num_2,0.4500038000114728,,20,5,2026-03-02_15h50.04.755,2026A_exp2,2022.2.4,59.917517541581034,
1000,1,0.0,6.1,1,0,34,34,74,,,,,157.5479781999893,158.1986353000102,158.1986353000102,158.69979680000688,45,45,158.69979680000688,158.69979680000688,158.69979680000688,158.69979680000688,158.69979680000688,158.69979680000688,158.69979680000688,158.69979680000688,158.69979680000688,159.0660491999879,159.0660491999879,159.0660491999879,159.0660491999879,159.0660491999879,159.0660491999879,159.0660491999879,159.0660491999879,159.0660491999879,0,1,[0.0013538000057451427],[0.3675299000169616],159.0660491999879,159.26817029999802,1000,159.26817029999802,1000,1000,1000,1000,1,num_2,0.48949330000323243,,20,5,2026-03-02_15h50.04.755,2026A_exp2,2022.2.4,59.917517541581034,
1000,1,3.7,0.0,0,0,35,35,35,,,,,159.78333400000702,160.4342850999965,160.4342850999965,160.9350917999982,45,45,160.9350917999982,160.9350917999982,160.9350917999982,160.9350917999982,160.9350917999982,160.9350917999982,160.9350917999982,160.9350917999982,160.9350917999982,161.2850383000041,161.2850383000041,161.2850383000041,161.2850383000041,161.2850383000041,161.2850383000041,161.2850383000041,161.2850383000041,161.2850383000041,2,2,"[0.00120749999769032, 0.28372599999420345]","[0.25037219998193905, 0.3505585999810137]",161.2850383000041,161.48714599999948,1000,161.48714599999948,1000,1000,1000,1000,0,num_3,0.3977491000259761,,20,5,2026-03-02_15h50.04.755,2026A_exp2,2022.2.4,59.917517541581034,
1000,1,0.0,4.9,0,0,36,36,8,,,,,161.90230119999615,162.55301890001283,162.55301890001283,163.05423380000866,45,45,163.05423380000866,163.05423380000866,163.05423380000866,163.05423380000866,163.05423380000866,163.05423380000866,163.05423380000866,163.05423380000866,163.05423380000866,163.42039469999145,163.42039469999145,163.42039469999145,163.42039469999145,163.42039469999145,163.42039469999145,163.42039469999145,163.42039469999145,163.42039469999145,21,1,[0.03334329999051988],[0.06684859999222681],163.42039469999145,163.6225439000118,1000,163.6225439000118,1000,1000,1000,1000,1,num_2,0.5179908999998588,,20,5,2026-03-02_15h50.04.755,2026A_exp2,2022.2.4,59.917517541581034,
1000,1,0.0,6.1,1,0,37,37,13,,,,,164.17126530001406,164.82176640001126,164.82176640001126,165.32294240000192,315,315,165.32294240000192,165.32294240000192,165.32294240000192,165.32294240000192,165.32294240000192,165.32294240000192,165.32294240000192,165.32294240000192,165.32294240000192,165.6895108000026,165.6895108000026,165.6895108000026,165.6895108000026,165.6895108000026,165.6895108000026,165.6895108000026,165.6895108000026,165.6895108000026,10,4,"[0.001270599983399734, 0.10020539999823086, 0.15015370000037365, 0.2670573999930639]","[0.06680659999256022, 0.11678879999089986, 0.1670731999911368, 0.3671260999981314]",165.6895108000026,165.89180680000572,1000,165.89180680000572,1000,1000,1000,1000,1,num_2,0.5615478999970946,,20,5,2026-03-02_15h50.04.755,2026A_exp2,2022.2.4,59.917517541581034,
1,0,0.0,4.9,0,0,38,38,32,,,,,166.4735151999921,167.1241394999961,167.1241394999961,167.62568220001413,45,45,167.62568220001413,167.62568220001413,167.62568220001413,167.62568220001413,167.62568220001413,167.62568220001413,167.62568220001413,167.62568220001413,167.62568220001413,167.99140389999957,167.99140389999957,167.99140389999957,167.99140389999957,167.99140389999957,167.99140389999957,167.99140389999957,167.99140389999957,167.99140389999957,0,1,[0.001226700027473271],[0.367177600011928],167.99140389999957,168.1918694000051,0.0,168.1918694000051,0,0.0,0,1,1000,num_1,0.8299479000270367,,20,5,2026-03-02_15h50.04.755,2026A_exp2,2022.2.4,59.917517541581034,
1,0,0.0,4.9,1,0,39,39,54,,,,,169.04274120001355,169.69342210001196,169.69342210001196,170.17788350000046,45,315,170.17788350000046,170.17788350000046,170.17788350000046,170.17788350000046,170.17788350000046,170.17788350000046,170.17788350000046,170.17788350000046,170.17788350000046,170.54444649998914,170.54444649998914,170.54444649998914,170.54444649998914,170.54444649998914,170.54444649998914,170.54444649998914,170.54444649998914,170.54444649998914,0,1,[0.0012110999959986657],[0.3670177000167314],170.54444649998914,170.74457989999792,4.9,170.74457989999792,1,4.9,1,1,1000,num_4,0.9008284999872558,,20,5,2026-03-02_15h50.04.755,2026A_exp2,2022.2.4,59.917517541581034,
1000,1,0.0,0.0,0,0,40,40,65,,,,,171.66205499999342,172.3127264000068,172.3127264000068,172.81375390000176,315,45,172.81375390000176,172.81375390000176,172.81375390000176,172.81375390000176,172.81375390000176,172.81375390000176,172.81375390000176,172.81375390000176,172.81375390000176,173.16351079999004,173.16351079999004,173.16351079999004,173.16351079999004,173.16351079999004,173.16351079999004,173.16351079999004,173.16351079999004,173.16351079999004,22,0,,,173.16351079999004,173.36400969998795,1000,173.36400969998795,1000,1000,1000,1000,1,num_2,0.8896997000265401,,20,5,2026-03-02_15h50.04.755,2026A_exp2,2022.2.4,59.917517541581034,
1000,1,6.1,0.0,0,0,41,41,27,,,,,174.2812624000071,174.93195790000027,174.93195790000027,175.43286090000765,315,315,175.43286090000765,175.43286090000765,175.43286090000765,175.43286090000765,175.43286090000765,175.43286090000765,175.43286090000765,175.43286090000765,175.43286090000765,175.7829374000139,175.7829374000139,175.7829374000139,175.7829374000139,175.7829374000139,175.7829374000139,175.7829374000139,175.7829374000139,175.7829374000139,22,0,,,175.7829374000139,175.985210200015,1000,175.99990630001412,1000,1000,1000,1000,0,num_3,0.37401920001138933,,20,5,2026-03-02_15h50.04.755,2026A_exp2,2022.2.4,59.917517541581034,
1000,1,0.0,6.1,1,0,42,42,42,,,,,176.40017649999936,177.0508591000107,177.0508591000107,177.55182369999238,45,45,177.55182369999238,177.55182369999238,177.55182369999238,177.55182369999238,177.55182369999238,177.55182369999238,177.55182369999238,177.55182369999238,177.55182369999238,177.91840349999256,177.91840349999256,177.91840349999256,177.91840349999256,177.91840349999256,177.91840349999256,177.91840349999256,177.91840349999256,177.91840349999256,0,1,[0.0009448000055272132],[0.36719009999069385],177.91840349999256,178.12067569998908,1000,178.12067569998908,1000,1000,1000,1000,1,num_2,0.4119300000020303,,20,5,2026-03-02_15h50.04.755,2026A_exp2,2022.2.4,59.917517541581034,
1000,1,0.0,0.0,0,0,43,43,57,,,,,178.55222979999962,179.20294300001115,179.20294300001115,179.70411389999208,315,45,179.70411389999208,179.70411389999208,179.70411389999208,179.70411389999208,179.70411389999208,179.70411389999208,179.70411389999208,179.70411389999208,179.70411389999208,180.07055370000307,180.07055370000307,180.07055370000307,180.07055370000307,180.07055370000307,180.07055370000307,180.07055370000307,180.07055370000307,180.07055370000307,5,2,"[0.001201099978061393, 0.30025539998314343]","[0.26706579999881797, 0.3336220999772195]",180.07055370000307,180.27239269998972,1000,180.27239269998972,1000,1000,1000,1000,1,num_2,0.7163428000058047,,20,5,2026-03-02_15h50.04.755,2026A_exp2,2022.2.4,59.917517541581034,
1,0,0.0,6.1,0,0,44,44,24,,,,,181.00483009999152,181.65532940000412,181.65532940000412,182.15638309999486,315,45,182.15638309999486,182.15638309999486,182.15638309999486,182.15638309999486,182.15638309999486,182.15638309999486,182.15638309999486,182.15638309999486,182.15638309999486,182.5229532000085,182.5229532000085,182.5229532000085,182.5229532000085,182.5229532000085,182.5229532000085,182.5229532000085,182.5229532000085,182.5229532000085,23,0,,,182.5229532000085,182.72320030000992,0.0,182.72320030000992,0,0.0,0,1,1000,num_1,1.0493657999904826,,20,5,2026-03-02_15h50.04.755,2026A_exp2,2022.2.4,59.917517541581034,
1,0,4.9,6.1,0,0,45,45,82,,,,,183.79083849999006,184.42471560000558,184.42471560000558,184.92602640000405,45,45,184.92602640000405,184.92602640000405,184.92602640000405,184.92602640000405,184.92602640000405,184.92602640000405,184.92602640000405,184.92602640000405,184.92602640000405,185.29225719999522,185.29225719999522,185.29225719999522,185.29225719999522,185.29225719999522,185.29225719999522,185.29225719999522,185.29225719999522,185.29225719999522,23,0,,,185.29225719999522,185.49257370000123,4.9,185.49257370000123,0,4.9,1,0,1000,num_1,0.7286957000032999,,20,5,2026-03-02_15h50.04.755,2026A_exp2,2022.2.4,59.917517541581034,
1000,1,0.0,3.7,0,0,46,46,21,,,,,186.24326210000436,186.89405120001175,186.89405120001175,187.37838450001436,45,45,187.37838450001436,187.37838450001436,187.37838450001436,187.37838450001436,187.37838450001436,187.37838450001436,187.37838450001436,187.37838450001436,187.37838450001436,187.7447087999899,187.7447087999899,187.7447087999899,187.7447087999899,187.7447087999899,187.7447087999899,187.7447087999899,187.7447087999899,187.7447087999899,20,1,[0.3338093999773264],[0.36709389998577535],187.7447087999899,187.94515710000996,1000,187.94515710000996,1000,1000,1000,1000,1,num_2,0.7405985000077635,,20,5,2026-03-02_15h50.04.755,2026A_exp2,2022.2.4,59.917517541581034,
1000,1,3.7,3.7,0,0,47,47,59,,,,,188.7124279999989,189.363156300009,189.363156300009,189.86422879999736,315,45,189.86422879999736,189.86422879999736,189.86422879999736,189.86422879999736,189.86422879999736,189.86422879999736,189.86422879999736,189.86422879999736,189.86422879999736,190.23072510000202,190.23072510000202,190.23072510000202,190.23072510000202,190.23072510000202,190.23072510000202,190.23072510000202,190.23072510000202,190.23072510000202,0,1,[0.0012257000198587775],[0.367044500017073],190.23072510000202,190.43292620001012,1000,190.43292620001012,1000,1000,1000,1000,0,num_3,1.1642776999797206,,20,5,2026-03-02_15h50.04.755,2026A_exp2,2022.2.4,59.917517541581034,
1000,1,0.0,3.7,0,0,48,48,76,,,,,191.6154194000119,192.26605830001063,192.26605830001063,192.76701609999873,315,45,192.76701609999873,192.76701609999873,192.76701609999873,192.76701609999873,192.76701609999873,192.76701609999873,192.76701609999873,192.76701609999873,192.76701609999873,193.11702289999812,193.11702289999812,193.11702289999812,193.11702289999812,193.11702289999812,193.11702289999812,193.11702289999812,193.11702289999812,193.11702289999812,0,1,[0.0015923000173643231],[0.3503217000106815],193.11702289999812,193.32212510000682,1000,193.32212510000682,1000,1000,1000,1000,1,num_2,0.4269063000101596,,20,5,2026-03-02_15h50.04.755,2026A_exp2,2022.2.4,59.917517541581034,
1,0,0.0,6.1,1,0,49,49,19,,,,,193.76738219999243,194.41819580001174,194.41819580001174,194.91949970001588,45,45,194.91949970001588,194.91949970001588,194.91949970001588,194.91949970001588,194.91949970001588,194.91949970001588,194.91949970001588,194.91949970001588,194.91949970001588,195.2858167999948,195.2858167999948,195.2858167999948,195.2858167999948,195.2858167999948,195.2858167999948,195.2858167999948,195.2858167999948,195.2858167999948,23,0,,,195.2858167999948,195.48589589999756,6.1,195.48589589999756,1,6.1,1,1,1000,num_4,0.702633999986574,,20,5,2026-03-02_15h50.04.755,2026A_exp2,2022.2.4,59.917517541581034,
1,0,3.7,0.0,1,0,50,50,30,,,,,196.2203281999973,196.8539301000128,196.8539301000128,197.3550319999922,45,315,197.3550319999922,197.3550319999922,197.3550319999922,197.3550319999922,197.3550319999922,197.3550319999922,197.3550319999922,197.3550319999922,197.3550319999922,197.72138130001258,197.72138130001258,197.72138130001258,197.72138130001258,197.72138130001258,197.72138130001258,197.72138130001258,197.72138130001258,197.72138130001258,12,3,"[0.0012002000003121793, 0.10021770000457764, 0.3007394000014756]","[0.06669750000583008, 0.18363380001392215, 0.33372049999888986]",197.72138130001258,197.92154499999015,0.0,197.92154499999015,0,0.0,0,1,1000,num_1,0.8509604000137188,,20,5,2026-03-02_15h50.04.755,2026A_exp2,2022.2.4,59.917517541581034,
1000,1,0.0,0.0,0,0,51,51,64,,,,,198.7891867000144,199.43985289998818,199.43985289998818,199.94102779999957,45,45,199.94102779999957,199.94102779999957,199.94102779999957,199.94102779999957,199.94102779999957,199.94102779999957,199.94102779999957,199.94102779999957,199.94102779999957,200.29087520000758,200.29087520000758,200.29087520000758,200.29087520000758,200.29087520000758,200.29087520000758,200.29087520000758,200.29087520000758,200.29087520000758,0,1,[0.001199400023324415],[0.3504622000036761],200.29087520000758,200.49267020000843,1000,200.49267020000843,1000,1000,1000,1000,1,num_2,0.9524663999909535,,20,5,2026-03-02_15h50.04.755,2026A_exp2,2022.2.4,59.917517541581034,
1000,1,0.0,0.0,0,0,52,52,62,,,,,201.4752082999912,202.12580249999883,202.12580249999883,202.62696069999947,315,45,202.62696069999947,202.62696069999947,202.62696069999947,202.62696069999947,202.62696069999947,202.62696069999947,202.62696069999947,202.62696069999947,202.62696069999947,202.97677420001128,202.97677420001128,202.97677420001128,202.97677420001128,202.97677420001128,202.97677420001128,202.97677420001128,202.97677420001128,202.97677420001128,22,0,,,202.97677420001128,203.17906749999383,1000,203.17906749999383,1000,1000,1000,1000,1,num_2,0.6824672000075225,,20,5,2026-03-02_15h50.04.755,2026A_exp2,2022.2.4,59.917517541581034,
1,0,6.1,0.0,0,0,53,53,85,,,,,203.87760569999227,204.52781820000382,204.52781820000382,205.02946600000723,45,45,205.02946600000723,205.02946600000723,205.02946600000723,205.02946600000723,205.02946600000723,205.02946600000723,205.02946600000723,205.02946600000723,205.02946600000723,205.39572200001567,205.39572200001567,205.39572200001567,205.39572200001567,205.39572200001567,205.39572200001567,205.39572200001567,205.39572200001567,205.39572200001567,23,0,,,205.39572200001567,205.59604740000213,6.1,205.59604740000213,1,6.1,1,1,1000,num_4,1.0889054000144824,,20,5,2026-03-02_15h50.04.755,2026A_exp2,2022.2.4,59.917517541581034,
0,0,6.1,0.0,0,0,54,54,41,,,,,206.71365379999042,207.37390149998828,207.37390149998828,207.85443559999112,315,315,207.85443559999112,207.85443559999112,207.85443559999112,207.85443559999112,207.85443559999112,207.85443559999112,207.85443559999112,207.85443559999112,207.85443559999112,208.21551999999792,208.21551999999792,208.21551999999792,208.21551999999792,208.21551999999792,208.21551999999792,208.21551999999792,208.21551999999792,208.21551999999792,0,1,[0.002581499982625246],[0.36768249998567626],208.21551999999792,208.41868579998845,0.0,208.41868579998845,0,0.0,0,1,1000,num_1,0.7303442000120413,,20,5,2026-03-02_15h50.04.755,2026A_exp2,2022.2.4,59.917517541581034,
1,0,0.0,0.0,1,0,55,55,6,,,,,209.16623589998926,209.81697380001424,209.81697380001424,210.3012446000066,45,45,210.3012446000066,210.3012446000066,210.3012446000066,210.3012446000066,210.3012446000066,210.3012446000066,210.3012446000066,210.3012446000066,210.3012446000066,210.6677025000099,210.6677025000099,210.6677025000099,210.6677025000099,210.6677025000099,210.6677025000099,210.6677025000099,210.6677025000099,210.6677025000099,23,0,,,210.6677025000099,210.86787560000084,0.0,210.86787560000084,1,0.0,0,0,1000,num_4,2.569128200004343,,20,5,2026-03-02_15h50.04.755,2026A_exp2,2022.2.4,59.917517541581034,
1,0,6.1,0.0,1,0,56,56,17,,,,,213.45372749998933,214.0878337000031,214.0878337000031,214.58874120001565,45,315,214.58874120001565,214.58874120001565,214.58874120001565,214.58874120001565,214.58874120001565,214.58874120001565,214.58874120001565,214.58874120001565,214.58874120001565,214.95535720000044,214.95535720000044,214.95535720000044,214.95535720000044,214.95535720000044,214.95535720000044,214.95535720000044,214.95535720000044,214.95535720000044,23,0,,,214.95535720000044,215.1555258000153,0.0,215.1555258000153,0,0.0,0,1,1000,num_1,0.8103645000082906,,20,5,2026-03-02_15h50.04.755,2026A_exp2,2022.2.4,59.917517541581034,
1000,1,0.0,4.9,0,0,57,57,0,,,,,215.98965160001535,216.6403840999992,216.6403840999992,217.12493190000532,45,315,217.12493190000532,217.12493190000532,217.12493190000532,217.12493190000532,217.12493190000532,217.12493190000532,217.12493190000532,217.12493190000532,217.12493190000532,217.49130970000988,217.49130970000988,217.49130970000988,217.49130970000988,217.49130970000988,217.49130970000988,217.49130970000988,217.49130970000988,217.49130970000988,23,0,,,217.49130970000988,217.69355930000893,1000,217.69355930000893,1000,1000,1000,1000,0,num_3,0.9039760000014212,,20,5,2026-03-02_15h50.04.755,2026A_exp2,2022.2.4,59.917517541581034,
1,0,3.7,0.0,0,0,58,58,26,,,,,218.6257547000132,219.27642519999063,219.27642519999063,219.77759119999246,45,315,219.77759119999246,219.77759119999246,219.77759119999246,219.77759119999246,219.77759119999246,219.77759119999246,219.77759119999246,219.77759119999246,219.77759119999246,220.1438860000053,220.1438860000053,220.1438860000053,220.1438860000053,220.1438860000053,220.1438860000053,220.1438860000053,220.1438860000053,220.1438860000053,0,1,[0.0012432000075932592],[0.36695680001867004],220.1438860000053,220.3441099000047,3.7,220.3441099000047,1,3.7,1,1,1000,num_4,1.0050550999876577,,20,5,2026-03-02_15h50.04.755,2026A_exp2,2022.2.4,59.917517541581034,
1000,1,4.9,0.0,1,0,59,59,48,,,,,221.37837700001546,222.02920720001566,222.02920720001566,222.51347840001108,45,315,222.51347840001108,222.51347840001108,222.51347840001108,222.51347840001108,222.51347840001108,222.51347840001108,222.51347840001108,222.51347840001108,222.51347840001108,222.88003140001092,222.88003140001092,222.88003140001092,222.88003140001092,222.88003140001092,222.88003140001092,222.88003140001092,222.88003140001092,222.88003140001092,23,0,,,222.88003140001092,223.0818613000156,1000,223.0818613000156,1000,1000,1000,1000,0,num_3,0.7867202000052202,,20,5,2026-03-02_15h50.04.755,2026A_exp2,2022.2.4,59.917517541581034,
1000,1,6.1,0.0,1,0,60,60,79,,,,,223.8973854999931,224.54836220000288,224.54836220000288,225.04947550001089,45,45,225.04947550001089,225.04947550001089,225.04947550001089,225.04947550001089,225.04947550001089,225.04947550001089,225.04947550001089,225.04947550001089,225.04947550001089,225.3991992000083,225.3991992000083,225.3991992000083,225.3991992000083,225.3991992000083,225.3991992000083,225.3991992000083,225.3991992000083,225.3991992000083,21,1,[0.3339089000073727],[0.35043940000468865],225.3991992000083,225.60120219999226,1000,225.60120219999226,1000,1000,1000,1000,0,num_3,0.4283605999953579,,20,5,2026-03-02_15h50.04.755,2026A_exp2,2022.2.4,59.917517541581034,
1,0,3.7,0.0,0,0,61,61,10,,,,,226.04974550000043,226.70043590001296,226.70043590001296,227.20161730001564,315,315,227.20161730001564,227.20161730001564,227.20161730001564,227.20161730001564,227.20161730001564,227.20161730001564,227.20161730001564,227.20161730001564,227.20161730001564,227.55129209998995,227.55129209998995,227.55129209998995,227.55129209998995,227.55129209998995,227.55129209998995,227.55129209998995,227.55129209998995,227.55129209998995,20,1,[0.03350809999392368],[0.06689720001304522],227.55129209998995,227.75156840001,3.7,227.76804650001577,1,3.7,1,1,1000,num_4,0.9410539000236895,,20,5,2026-03-02_15h50.04.755,2026A_exp2,2022.2.4,59.917517541581034,
1,0,6.1,6.1,1,0,62,62,47,,,,,228.73557069999515,229.38637009999366,229.38637009999366,229.87087760001305,45,315,229.87087760001305,229.87087760001305,229.87087760001305,229.87087760001305,229.87087760001305,229.87087760001305,229.87087760001305,229.87087760001305,229.87087760001305,230.23726880000322,230.23726880000322,230.23726880000322,230.23726880000322,230.23726880000322,230.23726880000322,230.23726880000322,230.23726880000322,230.23726880000322,23,0,,,230.23726880000322,230.43761890000314,6.1,230.43761890000314,1,6.1,1,1,1000,num_4,1.9995217000250705,,20,5,2026-03-02_15h50.04.755,2026A_exp2,2022.2.4,59.917517541581034,
1000,1,0.0,6.1,0,0,63,63,20,,,,,232.4560907999985,233.10699090000708,233.10699090000708,233.59121300000697,45,45,233.59121300000697,233.59121300000697,233.59121300000697,233.59121300000697,233.59121300000697,233.59121300000697,233.59121300000697,233.59121300000697,233.59121300000697,233.95773210001062,233.95773210001062,233.95773210001062,233.95773210001062,233.95773210001062,233.95773210001062,233.95773210001062,233.95773210001062,233.95773210001062,23,0,,,233.95773210001062,234.16017519999878,1000,234.16017519999878,1000,1000,1000,1000,1,num_2,0.461446800007252,,20,5,2026-03-02_15h50.04.755,2026A_exp2,2022.2.4,59.917517541581034,
0,0,0.0,3.7,1,0,64,64,53,,,,,234.64176009999937,235.29245840001386,235.29245840001386,235.79344000000856,315,45,235.79344000000856,235.79344000000856,235.79344000000856,235.79344000000856,235.79344000000856,235.79344000000856,235.79344000000856,235.79344000000856,235.79344000000856,236.15997989999596,236.15997989999596,236.15997989999596,236.15997989999596,236.15997989999596,236.15997989999596,236.15997989999596,236.15997989999596,236.15997989999596,23,0,,,236.15997989999596,236.36008179999772,0.0,236.36008179999772,0,0.0,0,1,1000,num_1,1.3570493999868631,,20,5,2026-03-02_15h50.04.755,2026A_exp2,2022.2.4,59.917517541581034,
0,0,0.0,0.0,0,0,65,65,15,,,,,237.7447683000064,238.37876210000832,238.37876210000832,238.8799743000127,315,45,238.8799743000127,238.8799743000127,238.8799743000127,238.8799743000127,238.8799743000127,238.8799743000127,238.8799743000127,238.8799743000127,238.8799743000127,239.24640040000668,239.24640040000668,239.24640040000668,239.24640040000668,239.24640040000668,239.24640040000668,239.24640040000668,239.24640040000668,239.24640040000668,23,0,,,239.24640040000668,239.44666079999297,0.0,239.44666079999297,1,0.0,0,0,1000,num_4,1.0219773999997415,,20,5,2026-03-02_15h50.04.755,2026A_exp2,2022.2.4,59.917517541581034,
1000,1,0.0,0.0,1,0,66,66,29,,,,,240.4974549000035,241.14810260001104,241.14810260001104,241.632586599997,315,315,241.632586599997,241.632586599997,241.632586599997,241.632586599997,241.632586599997,241.632586599997,241.632586599997,241.632586599997,241.632586599997,241.99914329999592,241.99914329999592,241.99914329999592,241.99914329999592,241.99914329999592,241.99914329999592,241.99914329999592,241.99914329999592,241.99914329999592,14,1,[0.23359110002638772],[0.3671557000197936],241.99914329999592,242.2013287000009,1000,242.2013287000009,1000,1000,1000,1000,0,num_3,1.1319813999871258,,20,5,2026-03-02_15h50.04.755,2026A_exp2,2022.2.4,59.917517541581034,
1000,1,0.0,0.0,1,0,67,67,56,,,,,243.35042259999318,244.0013345000043,244.0013345000043,244.50210250000237,315,315,244.50210250000237,244.50210250000237,244.50210250000237,244.50210250000237,244.50210250000237,244.50210250000237,244.50210250000237,244.50210250000237,244.50210250000237,244.86865379998926,244.86865379998926,244.86865379998926,244.86865379998926,244.86865379998926,244.86865379998926,244.86865379998926,244.86865379998926,244.86865379998926,23,0,,,244.86865379998926,245.07007819999126,1000,245.07007819999126,1000,1000,1000,1000,1,num_2,1.22344180001528,,20,5,2026-03-02_15h50.04.755,2026A_exp2,2022.2.4,59.917517541581034,
1000,1,3.7,0.0,0,0,68,68,86,,,,,246.32006150000961,246.97081910000998,246.97081910000998,247.4718189999985,45,45,247.4718189999985,247.4718189999985,247.4718189999985,247.4718189999985,247.4718189999985,247.4718189999985,247.4718189999985,247.4718189999985,247.4718189999985,247.8382864999876,247.8382864999876,247.8382864999876,247.8382864999876,247.8382864999876,247.8382864999876,247.8382864999876,247.8382864999876,247.8382864999876,21,1,[0.35037980001652613],[0.367164800001774],247.8382864999876,248.04051170000457,1000,248.04051170000457,1000,1000,1000,1000,0,num_3,0.48405140000977553,,20,5,2026-03-02_15h50.04.755,2026A_exp2,2022.2.4,59.917517541581034,
1,0,0.0,0.0,1,0,69,69,38,,,,,248.55560329998843,249.20628539999598,249.20628539999598,249.707438500016,45,315,249.707438500016,249.707438500016,249.707438500016,249.707438500016,249.707438500016,249.707438500016,249.707438500016,249.707438500016,249.707438500016,250.07379980001133,250.07379980001133,250.07379980001133,250.07379980001133,250.07379980001133,250.07379980001133,250.07379980001133,250.07379980001133,250.07379980001133,16,2,"[0.10019750002538785, 0.13360120001016185]","[0.11688600000343286, 0.2171305000083521]",250.07379980001133,250.27399099999457,0.0,250.27399099999457,1,0.0,0,0,1000,num_4,2.019319599989103,,20,5,2026-03-02_15h50.04.755,2026A_exp2,2022.2.4,59.917517541581034,
1000,1,0.0,0.0,0,0,70,70,72,,,,,252.30929530001595,252.96010460000252,252.96010460000252,253.44437959999777,315,45,253.44437959999777,253.44437959999777,253.44437959999777,253.44437959999777,253.44437959999777,253.44437959999777,253.44437959999777,253.44437959999777,253.44437959999777,253.81095909999567,253.81095909999567,253.81095909999567,253.81095909999567,253.81095909999567,253.81095909999567,253.81095909999567,253.81095909999567,253.81095909999567,23,0,,,253.81095909999567,254.01299240000662,1000,254.01299240000662,1000,1000,1000,1000,1,num_2,1.7362262000096962,,20,5,2026-03-02_15h50.04.755,2026A_exp2,2022.2.4,59.917517541581034,
0,0,3.7,4.9,0,0,71,71,77,,,,,255.77946240000892,256.43014219999895,256.43014219999895,256.9312503999972,45,45,256.9312503999972,256.9312503999972,256.9312503999972,256.9312503999972,256.9312503999972,256.9312503999972,256.9312503999972,256.9312503999972,256.9312503999972,257.2977637000149,257.2977637000149,257.2977637000149,257.2977637000149,257.2977637000149,257.2977637000149,257.2977637000149,257.2977637000149,257.2977637000149,23,0,,,257.2977637000149,257.4979697999952,4.9,257.4979697999952,1,4.9,1,1,1000,num_4,0.7546472999965772,,20,5,2026-03-02_15h50.04.755,2026A_exp2,2022.2.4,59.917517541581034,
1000,1,4.9,0.0,1,0,72,72,67,,,,,258.2819664000126,258.9345573000028,258.9345573000028,259.4226912999875,45,315,259.4226912999875,259.4226912999875,259.4226912999875,259.4226912999875,259.4226912999875,259.4226912999875,259.4226912999875,259.4226912999875,259.4226912999875,259.7837850000069,259.7837850000069,259.7837850000069,259.7837850000069,259.7837850000069,259.7837850000069,259.7837850000069,259.7837850000069,259.7837850000069,5,4,"[0.0025618000072427094, 0.20010230000480078, 0.2834498999873176, 0.31689580000238493]","[0.18346329999621958, 0.2335898999881465, 0.30039899999974295, 0.3670412999927066]",259.7837850000069,259.9972817999951,1000,259.9972817999951,1000,1000,1000,1000,0,num_3,0.33552820002660155,,20,5,2026-03-02_15h50.04.755,2026A_exp2,2022.2.4,59.917517541581034,
1000,1,0.0,3.7,0,0,73,73,43,,,,,260.3508384000161,261.0014466000139,261.0014466000139,261.5026061999961,315,315,261.5026061999961,261.5026061999961,261.5026061999961,261.5026061999961,261.5026061999961,261.5026061999961,261.5026061999961,261.5026061999961,261.5026061999961,261.8689746000164,261.8689746000164,261.8689746000164,261.8689746000164,261.8689746000164,261.8689746000164,261.8689746000164,261.8689746000164,261.8689746000164,21,1,[0.033733800024492666],[0.06704720002016984],261.8689746000164,262.0710388000007,1000,262.0710388000007,1000,1000,1000,1000,0,num_3,2.37449800001923,,20,5,2026-03-02_15h50.04.755,2026A_exp2,2022.2.4,59.917517541581034,
1000,1,0.0,6.1,0,0,74,74,61,,,,,264.4715591999993,265.1222911000077,265.1222911000077,265.62325740000233,315,45,265.62325740000233,265.62325740000233,265.62325740000233,265.62325740000233,265.62325740000233,265.62325740000233,265.62325740000233,265.62325740000233,265.62325740000233,265.98968880000757,265.98968880000757,265.98968880000757,265.98968880000757,265.98968880000757,265.98968880000757,265.98968880000757,265.98968880000757,265.98968880000757,8,3,"[0.08351609998499043, 0.13369019998935983, 0.20044849999248981]","[0.11693769998964854, 0.16701979999197647, 0.36733389997971244]",265.98968880000757,266.19175769999856,1000,266.19175769999856,1000,1000,1000,1000,1,num_2,0.39671969998744316,,20,5,2026-03-02_15h50.04.755,2026A_exp2,2022.2.4,59.917517541581034,
1000,1,4.9,0.0,0,0,75,75,50,,,,,266.60693840001477,267.2576289999997,267.2576289999997,267.75883589999285,45,45,267.75883589999285,267.75883589999285,267.75883589999285,267.75883589999285,267.75883589999285,267.75883589999285,267.75883589999285,267.75883589999285,267.75883589999285,268.1252356999903,268.1252356999903,268.1252356999903,268.1252356999903,268.1252356999903,268.1252356999903,268.1252356999903,268.1252356999903,268.1252356999903,3,3,"[0.0012453999952413142, 0.18339730001753196, 0.30021909999777563]","[0.16683659999398515, 0.26682680001249537, 0.36708580001140945]",268.1252356999903,268.3273468000116,1000,268.3273468000116,1000,1000,1000,1000,0,num_3,0.31749699998181313,,20,5,2026-03-02_15h50.04.755,2026A_exp2,2022.2.4,59.917517541581034,
1000,1,0.0,3.7,1,0,76,76,88,,,,,268.6757309999957,269.3264322000032,269.3264322000032,269.82758129999274,45,45,269.82758129999274,269.82758129999274,269.82758129999274,269.82758129999274,269.82758129999274,269.82758129999274,269.82758129999274,269.82758129999274,269.82758129999274,270.193938899989,270.193938899989,270.193938899989,270.193938899989,270.193938899989,270.193938899989,270.193938899989,270.193938899989,270.193938899989,23,0,,,270.193938899989,270.39626480001607,1000,270.39626480001607,1000,1000,1000,1000,1,num_2,0.36944099998800084,,20,5,2026-03-02_15h50.04.755,2026A_exp2,2022.2.4,59.917517541581034,
1000,1,6.1,0.0,0,0,77,77,58,,,,,270.79473570000846,271.4451359999948,271.4451359999948,271.9462507000135,45,45,271.9462507000135,271.9462507000135,271.9462507000135,271.9462507000135,271.9462507000135,271.9462507000135,271.9462507000135,271.9462507000135,271.9462507000135,272.3128040000156,272.3128040000156,272.3128040000156,272.3128040000156,272.3128040000156,272.3128040000156,272.3128040000156,272.3128040000156,272.3128040000156,10,5,"[0.0012067999923601747, 0.03346320000127889, 0.18365769999218173, 0.25039629999082536, 0.3004351999843493]","[0.01706049998756498, 0.16719279999961145, 0.217061500006821, 0.2672549999842886, 0.3170345999824349]",272.3128040000156,272.5149259000027,1000,272.5149259000027,1000,1000,1000,1000,0,num_3,0.31370820000302047,,20,5,2026-03-02_15h50.04.755,2026A_exp2,2022.2.4,59.917517541581034,
1000,1,0.0,0.0,1,0,78,78,3,,,,,272.8465506999928,273.49708500001,273.49708500001,273.9984189000097,315,45,273.9984189000097,273.9984189000097,273.9984189000097,273.9984189000097,273.9984189000097,273.9984189000097,273.9984189000097,273.9984189000097,273.9984189000097,274.3647730000084,274.3647730000084,274.3647730000084,274.3647730000084,274.3647730000084,274.3647730000084,274.3647730000084,274.3647730000084,274.3647730000084,2,3,"[0.0012841999996453524, 0.033732499985489994, 0.3673228999832645]","[0.01752019999548793, 0.35056940000504255, 0.36732829999527894]",274.3647730000084,274.5666123999981,1000,274.5666123999981,1000,1000,1000,1000,1,num_2,0.8630402999988291,,20,5,2026-03-02_15h50.04.755,2026A_exp2,2022.2.4,59.917517541581034,
1000,1,3.7,0.0,0,0,79,79,69,,,,,275.44917490001535,276.099956799997,276.099956799997,276.6009120999952,45,45,276.6009120999952,276.6009120999952,276.6009120999952,276.6009120999952,276.6009120999952,276.6009120999952,276.6009120999952,276.6009120999952,276.6009120999952,276.96726710000075,276.96726710000075,276.96726710000075,276.96726710000075,276.96726710000075,276.96726710000075,276.96726710000075,276.96726710000075,276.96726710000075,21,1,[0.0012718999932985753],[0.033468600013293326],276.96726710000075,277.16926429999876,1000,277.16926429999876,1000,1000,1000,1000,1,num_2,0.5800081999914255,,20,5,2026-03-02_15h50.04.755,2026A_exp2,2022.2.4,59.917517541581034,
1000,1,4.9,3.7,1,0,80,80,78,,,,,277.76806699999725,278.4189531999873,278.4189531999873,278.9198873999994,315,315,278.9198873999994,278.9198873999994,278.9198873999994,278.9198873999994,278.9198873999994,278.9198873999994,278.9198873999994,278.9198873999994,278.9198873999994,279.286417299998,279.286417299998,279.286417299998,279.286417299998,279.286417299998,279.286417299998,279.286417299998,279.286417299998,279.286417299998,16,5,"[0.10018879998824559, 0.13352619999204762, 0.18347069999435917, 0.3000142000091728, 0.3504168000072241]","[0.11676299999817275, 0.15015800000401214, 0.20016760000726208, 0.31687260000035167, 0.3670173999853432]",279.286417299998,279.488540499995,1000,279.488540499995,1000,1000,1000,1000,0,num_3,0.8372170999937225,,20,5,2026-03-02_15h50.04.755,2026A_exp2,2022.2.4,59.917517541581034,
1,0,0.0,6.1,1,0,81,81,46,,,,,280.3541814000055,281.00480830000015,281.00480830000015,281.50581060000695,315,45,281.50581060000695,281.50581060000695,281.50581060000695,281.50581060000695,281.50581060000695,281.50581060000695,281.50581060000695,281.50581060000695,281.50581060000695,281.8723239999963,281.8723239999963,281.8723239999963,281.8723239999963,281.8723239999963,281.8723239999963,281.8723239999963,281.8723239999963,281.8723239999963,0,1,[0.001499799982411787],[0.3670779000094626],281.8723239999963,282.0724748999928,6.1,282.0724748999928,1,6.1,1,1,1000,num_4,0.6931272000074387,,20,5,2026-03-02_15h50.04.755,2026A_exp2,2022.2.4,59.917517541581034,
1000,1,0.0,0.0,1,0,82,82,55,,,,,282.78987060001236,283.42384199998924,283.42384199998924,283.92501679999987,315,315,283.92501679999987,283.92501679999987,283.92501679999987,283.92501679999987,283.92501679999987,283.92501679999987,283.92501679999987,283.92501679999987,283.92501679999987,284.291396399989,284.291396399989,284.291396399989,284.291396399989,284.291396399989,284.291396399989,284.291396399989,284.291396399989,284.291396399989,23,0,,,284.291396399989,284.4934687000059,1000,284.4934687000059,1000,1000,1000,1000,1,num_2,1.655834400007734,,20,5,2026-03-02_15h50.04.755,2026A_exp2,2022.2.4,59.917517541581034,
1000,1,0.0,0.0,0,0,83,83,45,,,,,286.1765638999932,286.8273041000066,286.8273041000066,287.32842110001366,315,315,287.32842110001366,287.32842110001366,287.32842110001366,287.32842110001366,287.32842110001366,287.32842110001366,287.32842110001366,287.32842110001366,287.32842110001366,287.6781467999972,287.6781467999972,287.6781467999972,287.6781467999972,287.6781467999972,287.6781467999972,287.6781467999972,287.6781467999972,287.6781467999972,15,2,"[0.0012186999956611544, 0.05015809999895282]","[0.03348600000026636, 0.13323510001646355]",287.6781467999972,287.8802808999899,1000,287.8802808999899,1000,1000,1000,1000,1,num_2,1.3489991999813356,,20,5,2026-03-02_15h50.04.755,2026A_exp2,2022.2.4,59.917517541581034,
1,0,0.0,0.0,0,0,84,84,87,,,,,289.24615339998854,289.8965240000107,289.8965240000107,290.3976662000059,315,315,290.3976662000059,290.3976662000059,290.3976662000059,290.3976662000059,290.3976662000059,290.3976662000059,290.3976662000059,290.3976662000059,290.3976662000059,290.7473772999947,290.7473772999947,290.7473772999947,290.7473772999947,290.7473772999947,290.7473772999947,290.7473772999947,290.7473772999947,290.7473772999947,22,0,,,290.7473772999947,290.94760750001296,0.0,290.94760750001296,0,0.0,0,1,1000,num_1,1.041033100016648,,20,5,2026-03-02_15h50.04.755,2026A_exp2,2022.2.4,59.917517541581034,
1,0,3.7,6.1,1,0,85,85,68,,,,,292.01564249998773,292.6494830000156,292.6494830000156,293.15104269998847,45,315,293.15104269998847,293.15104269998847,293.15104269998847,293.15104269998847,293.15104269998847,293.15104269998847,293.15104269998847,293.15104269998847,293.15104269998847,293.51710299999104,293.51710299999104,293.51710299999104,293.51710299999104,293.51710299999104,293.51710299999104,293.51710299999104,293.51710299999104,293.51710299999104,11,2,"[0.04959219999727793, 0.1161941000027582]","[0.09973929999978282, 0.26646069998969324]",293.51710299999104,293.7182718999975,6.1,293.7182718999975,1,6.1,1,1,1000,num_4,0.7503704999980982,,20,5,2026-03-02_15h50.04.755,2026A_exp2,2022.2.4,59.917517541581034,
1000,1,0.0,0.0,1,0,86,86,2,,,,,294.4863968999998,295.1353677000152,295.1353677000152,295.63676550000673,45,315,295.63676550000673,295.63676550000673,295.63676550000673,295.63676550000673,295.63676550000673,295.63676550000673,295.63676550000673,295.63676550000673,295.63676550000673,296.00314570000046,296.00314570000046,296.00314570000046,296.00314570000046,296.00314570000046,296.00314570000046,296.00314570000046,296.00314570000046,296.00314570000046,23,0,,,296.00314570000046,296.2050822000019,1000,296.2050822000019,1000,1000,1000,1000,1,num_2,0.6638726000091992,,20,5,2026-03-02_15h50.04.755,2026A_exp2,2022.2.4,59.917517541581034,
1000,1,0.0,3.7,1,0,87,87,4,,,,,296.8872265999962,297.5378594000067,297.5378594000067,298.03896900001564,315,315,298.03896900001564,298.03896900001564,298.03896900001564,298.03896900001564,298.03896900001564,298.03896900001564,298.03896900001564,298.03896900001564,298.03896900001564,298.40534050000133,298.40534050000133,298.40534050000133,298.40534050000133,298.40534050000133,298.40534050000133,298.40534050000133,298.40534050000133,298.40534050000133,23,0,,,298.40534050000133,298.607952499995,1000,298.607952499995,1000,1000,1000,1000,1,num_2,1.6526954000000842,,20,5,2026-03-02_15h50.04.755,2026A_exp2,2022.2.4,59.917517541581034,
1000,1,4.9,6.1,0,0,88,88,36,,,,,300.29068609999376,300.9414350000152,300.9414350000152,301.4425140999956,45,45,301.4425140999956,301.4425140999956,301.4425140999956,301.4425140999956,301.4425140999956,301.4425140999956,301.4425140999956,301.4425140999956,301.4425140999956,301.80883319998975,301.80883319998975,301.80883319998975,301.80883319998975,301.80883319998975,301.80883319998975,301.80883319998975,301.80883319998975,301.80883319998975,0,1,[0.001207199995405972],[0.36680729998624884],301.80883319998975,302.0108024000074,1000,302.0108024000074,1000,1000,1000,1000,1,num_2,0.5298116999911144,,20,5,2026-03-02_15h50.04.755,2026A_exp2,2022.2.4,59.917517541581034,
1000,1,0.0,3.7,0,0,89,89,23,,,,,302.5596418000059,303.2103148000024,303.2103148000024,303.7114598999906,45,315,303.7114598999906,303.7114598999906,303.7114598999906,303.7114598999906,303.7114598999906,303.7114598999906,303.7114598999906,303.7114598999906,303.7114598999906,304.0777936000086,304.0777936000086,304.0777936000086,304.0777936000086,304.0777936000086,304.0777936000086,304.0777936000086,304.0777936000086,304.0777936000086,20,1,[0.001197300007333979],[0.04998829998658039],304.0777936000086,304.27981909998925,1000,304.27981909998925,1000,1000,1000,1000,1,num_2,0.7248725000245031,,20,5,2026-03-02_15h50.04.755,2026A_exp2,2022.2.4,59.917517541581034,
,,,,,,,,,,,,,,,,,,,,,,,,,,,,,,,,,,,,,,,,,,,,,,,,,,,,305.03722540001036,,,,,,,
