validity,detectorcomp,contrastCW,contrastCCW,precueCWorCCW,block_80trials.thisRepN,block_80trials.thisTrialN,block_80trials.thisN,block_80trials.thisIndex,etRecord.started,etRecord.stopped,text.started,text.stopped,text_4.started,text_4.stopped,text_6.started,text_6.stopped,oriCW,oriCCW,roi_2.started,grating_UR.started,grating_UL.started,grating_LR.started,grating_LL.started,noise_UR.started,noise_UL.started,noise_LR.started,noise_LL.started,roi_2.stopped,grating_UR.stopped,grating_UL.stopped,grating_LR.stopped,grating_LL.stopped,noise_UR.stopped,noise_UL.stopped,noise_LR.stopped,noise_LL.stopped,outframe,roi_2.numLooks,roi_2.timesOn,roi_2.timesOff,text_2.started,text_2.stopped,probedcontrast,key_resp.started,respdetect,relevantContrast,correctDetect,TorFdetect,respCWorCCW,key_resp.keys,key_resp.rt,feedback_display_.started,participantNo,blockNo,date,expName,psychopyVersion,frameRate,
1000,1,6.1,0.0,0,0,0,0,81,4.510005237534642e-05,4.510005237534642e-05,50.051205099967774,52.05678689997876,52.05678689997876,52.687592200003564,52.687592200003564,53.20717660000082,315,45,53.20717660000082,53.20717660000082,53.20717660000082,53.20717660000082,53.20717660000082,53.20717660000082,53.20717660000082,53.20717660000082,53.20717660000082,53.555162799952086,53.555162799952086,53.555162799952086,53.555162799952086,53.555162799952086,53.555162799952086,53.555162799952086,53.555162799952086,53.555162799952086,23,0,,,53.555162799952086,53.76252139999997,1000,53.76252139999997,1000,1000,1000,1000,0,num_3,0.6668458000058308,,25,4,2026-03-04_17h26.10.237,2026A_exp2,2022.2.4,59.91898952315396,
1000,1,0.0,3.7,1,0,1,1,84,,,,,54.45937389996834,55.10687659995165,55.10687659995165,55.607906399993226,45,315,55.607906399993226,55.607906399993226,55.607906399993226,55.607906399993226,55.607906399993226,55.607906399993226,55.607906399993226,55.607906399993226,55.607906399993226,55.97442210000008,55.97442210000008,55.97442210000008,55.97442210000008,55.97442210000008,55.97442210000008,55.97442210000008,55.97442210000008,55.97442210000008,23,0,,,55.97442210000008,56.17651509999996,1000,56.17651509999996,1000,1000,1000,1000,0,num_3,0.7579116999404505,,25,4,2026-03-04_17h26.10.237,2026A_exp2,2022.2.4,59.91898952315396,
1000,1,3.7,0.0,0,0,2,2,56,,,,,56.95895689999452,57.609262999962084,57.609262999962084,58.09384809999028,45,45,58.09384809999028,58.09384809999028,58.09384809999028,58.09384809999028,58.09384809999028,58.09384809999028,58.09384809999028,58.09384809999028,58.09384809999028,58.460097899951506,58.460097899951506,58.460097899951506,58.460097899951506,58.460097899951506,58.460097899951506,58.460097899951506,58.460097899951506,58.460097899951506,23,0,,,58.460097899951506,58.66244319995167,1000,58.66244319995167,1000,1000,1000,1000,0,num_3,0.31081580003956333,,25,4,2026-03-04_17h26.10.237,2026A_exp2,2022.2.4,59.91898952315396,
1000,1,4.9,3.7,0,0,3,3,40,,,,,58.99406599998474,59.64471219998086,59.64471219998086,60.145876199996565,315,315,60.145876199996565,60.145876199996565,60.145876199996565,60.145876199996565,60.145876199996565,60.145876199996565,60.145876199996565,60.145876199996565,60.145876199996565,60.51228209998226,60.51228209998226,60.51228209998226,60.51228209998226,60.51228209998226,60.51228209998226,60.51228209998226,60.51228209998226,60.51228209998226,23,0,,,60.51228209998226,60.71449719998054,1000,60.71449719998054,1000,1000,1000,1000,0,num_3,0.2988480000058189,,25,4,2026-03-04_17h26.10.237,2026A_exp2,2022.2.4,59.91898952315396,
1,0,3.7,6.1,0,0,4,4,52,,,,,61.02927830000408,61.68005689996062,61.68005689996062,62.18116699997336,315,315,62.18116699997336,62.18116699997336,62.18116699997336,62.18116699997336,62.18116699997336,62.18116699997336,62.18116699997336,62.18116699997336,62.18116699997336,62.54749529995024,62.54749529995024,62.54749529995024,62.54749529995024,62.54749529995024,62.54749529995024,62.54749529995024,62.54749529995024,62.54749529995024,23,0,,,62.54749529995024,62.74787419999484,3.7,62.74787419999484,1,3.7,1,1,1000,num_4,0.47417489998042583,,25,4,2026-03-04_17h26.10.237,2026A_exp2,2022.2.4,59.91898952315396,
1000,1,0.0,3.7,1,0,5,5,13,,,,,63.248240699991584,63.899031799985096,63.899031799985096,64.38342279999051,315,45,64.38342279999051,64.38342279999051,64.38342279999051,64.38342279999051,64.38342279999051,64.38342279999051,64.38342279999051,64.38342279999051,64.38342279999051,64.74982349999482,64.74982349999482,64.74982349999482,64.74982349999482,64.74982349999482,64.74982349999482,64.74982349999482,64.74982349999482,64.74982349999482,23,0,,,64.74982349999482,64.95186739997007,1000,64.95186739997007,1000,1000,1000,1000,1,num_2,0.34262239997042343,,25,4,2026-03-04_17h26.10.237,2026A_exp2,2022.2.4,59.91898952315396,
1000,1,3.7,0.0,1,0,6,6,19,,,,,65.3172752999817,65.96774479997111,65.96774479997111,66.4522152999998,315,45,66.4522152999998,66.4522152999998,66.4522152999998,66.4522152999998,66.4522152999998,66.4522152999998,66.4522152999998,66.4522152999998,66.4522152999998,66.8185622000019,66.8185622000019,66.8185622000019,66.8185622000019,66.8185622000019,66.8185622000019,66.8185622000019,66.8185622000019,66.8185622000019,0,1,[0.0012114000273868442],[0.36718060000566766],66.8185622000019,67.01898529997561,1000,67.01898529997561,1000,1000,1000,1000,0,num_3,0.4588913000188768,,25,4,2026-03-04_17h26.10.237,2026A_exp2,2022.2.4,59.91898952315396,
1000,1,0.0,4.9,0,0,7,7,60,,,,,67.50247969996417,68.15331329999026,68.15331329999026,68.65441399998963,315,315,68.65441399998963,68.65441399998963,68.65441399998963,68.65441399998963,68.65441399998963,68.65441399998963,68.65441399998963,68.65441399998963,68.65441399998963,69.02081259997794,69.02081259997794,69.02081259997794,69.02081259997794,69.02081259997794,69.02081259997794,69.02081259997794,69.02081259997794,69.02081259997794,23,0,,,69.02081259997794,69.22283099999186,1000,69.22283099999186,1000,1000,1000,1000,0,num_3,0.3672666999627836,,25,4,2026-03-04_17h26.10.237,2026A_exp2,2022.2.4,59.91898952315396,
1000,1,6.1,0.0,1,0,8,8,29,,,,,69.62131849996513,70.27207519998774,70.27207519998774,70.77308739995351,315,45,70.77308739995351,70.77308739995351,70.77308739995351,70.77308739995351,70.77308739995351,70.77308739995351,70.77308739995351,70.77308739995351,70.77308739995351,71.13961359998211,71.13961359998211,71.13961359998211,71.13961359998211,71.13961359998211,71.13961359998211,71.13961359998211,71.13961359998211,71.13961359998211,23,0,,,71.13961359998211,71.34000189998187,1000,71.34000189998187,1000,1000,1000,1000,0,num_3,0.5214438000111841,,25,4,2026-03-04_17h26.10.237,2026A_exp2,2022.2.4,59.91898952315396,
1000,1,4.9,0.0,1,0,9,9,77,,,,,71.89041140000336,72.540797499998,72.540797499998,73.04214419994969,315,315,73.04214419994969,73.04214419994969,73.04214419994969,73.04214419994969,73.04214419994969,73.04214419994969,73.04214419994969,73.04214419994969,73.04214419994969,73.4085211000056,73.4085211000056,73.4085211000056,73.4085211000056,73.4085211000056,73.4085211000056,73.4085211000056,73.4085211000056,73.4085211000056,22,1,[0.0012465000036172569],[0.017446700017899275],73.4085211000056,73.60873559996253,1000,73.60873559996253,1000,1000,1000,1000,1,num_2,0.5969271000358276,,25,4,2026-03-04_17h26.10.237,2026A_exp2,2022.2.4,59.91898952315396,
1,0,4.9,0.0,0,0,10,10,53,,,,,74.2264251000015,74.87668240000494,74.87668240000494,75.3779513000045,315,315,75.3779513000045,75.3779513000045,75.3779513000045,75.3779513000045,75.3779513000045,75.3779513000045,75.3779513000045,75.3779513000045,75.3779513000045,75.72743159998208,75.72743159998208,75.72743159998208,75.72743159998208,75.72743159998208,75.72743159998208,75.72743159998208,75.72743159998208,75.72743159998208,22,0,,,75.72743159998208,75.92771479999647,4.9,75.94426709995605,1,4.9,1,1,1000,num_4,0.4212343000108376,,25,4,2026-03-04_17h26.10.237,2026A_exp2,2022.2.4,59.91898952315396,
1,0,0.0,0.0,0,0,11,11,55,,,,,76.39511899999343,77.02886949997628,77.02886949997628,77.5299630999798,45,315,77.5299630999798,77.5299630999798,77.5299630999798,77.5299630999798,77.5299630999798,77.5299630999798,77.5299630999798,77.5299630999798,77.5299630999798,77.89634009997826,77.89634009997826,77.89634009997826,77.89634009997826,77.89634009997826,77.89634009997826,77.89634009997826,77.89634009997826,77.89634009997826,23,0,,,77.89634009997826,78.09658479999052,0.0,78.09658479999052,0,0.0,0,1,1000,num_1,0.589838299958501,,25,4,2026-03-04_17h26.10.237,2026A_exp2,2022.2.4,59.91898952315396,
0,0,0.0,0.0,1,0,12,12,2,,,,,78.71370299998671,79.3644268999924,79.3644268999924,79.84893569996348,45,45,79.84893569996348,79.84893569996348,79.84893569996348,79.84893569996348,79.84893569996348,79.84893569996348,79.84893569996348,79.84893569996348,79.84893569996348,80.21532819996355,80.21532819996355,80.21532819996355,80.21532819996355,80.21532819996355,80.21532819996355,80.21532819996355,80.21532819996355,80.21532819996355,23,0,,,80.21532819996355,80.41543359996285,0.0,80.41543359996285,0,0.0,0,1,1000,num_1,0.6867011999711394,,25,4,2026-03-04_17h26.10.237,2026A_exp2,2022.2.4,59.91898952315396,
1,0,6.1,0.0,1,0,13,13,89,,,,,81.13276119995862,81.78363219997846,81.78363219997846,82.2680177000002,315,315,82.2680177000002,82.2680177000002,82.2680177000002,82.2680177000002,82.2680177000002,82.2680177000002,82.2680177000002,82.2680177000002,82.2680177000002,82.63414779998129,82.63414779998129,82.63414779998129,82.63414779998129,82.63414779998129,82.63414779998129,82.63414779998129,82.63414779998129,82.63414779998129,23,0,,,82.63414779998129,82.83462229999714,0.0,82.83462229999714,1,0.0,0,0,1000,num_4,0.227338700031396,,25,4,2026-03-04_17h26.10.237,2026A_exp2,2022.2.4,59.91898952315396,
1,0,6.1,4.9,1,0,14,14,64,,,,,83.0847351999837,83.73537650000071,83.73537650000071,84.21984360000351,315,45,84.21984360000351,84.21984360000351,84.21984360000351,84.21984360000351,84.21984360000351,84.21984360000351,84.21984360000351,84.21984360000351,84.21984360000351,84.5862533999607,84.5862533999607,84.5862533999607,84.5862533999607,84.5862533999607,84.5862533999607,84.5862533999607,84.5862533999607,84.5862533999607,0,1,[0.001297700044233352],[0.36702589999185875],84.5862533999607,84.78647930000443,4.9,84.78647930000443,1,4.9,1,1,1000,num_4,0.6037053000181913,,25,4,2026-03-04_17h26.10.237,2026A_exp2,2022.2.4,59.91898952315396,
1000,1,0.0,0.0,0,0,15,15,15,,,,,85.42037869995693,86.07121559994994,86.07121559994994,86.55544889997691,45,45,86.55544889997691,86.55544889997691,86.55544889997691,86.55544889997691,86.55544889997691,86.55544889997691,86.55544889997691,86.55544889997691,86.55544889997691,86.92201019998174,86.92201019998174,86.92201019998174,86.92201019998174,86.92201019998174,86.92201019998174,86.92201019998174,86.92201019998174,86.92201019998174,23,0,,,86.92201019998174,87.12387029995443,1000,87.12387029995443,1000,1000,1000,1000,0,num_3,0.3624071999802254,,25,4,2026-03-04_17h26.10.237,2026A_exp2,2022.2.4,59.91898952315396,
1,0,6.1,3.7,1,0,16,16,51,,,,,87.5056999999797,88.15646209998522,88.15646209998522,88.6573324999772,315,45,88.6573324999772,88.6573324999772,88.6573324999772,88.6573324999772,88.6573324999772,88.6573324999772,88.6573324999772,88.6573324999772,88.6573324999772,89.02403629996115,89.02403629996115,89.02403629996115,89.02403629996115,89.02403629996115,89.02403629996115,89.02403629996115,89.02403629996115,89.02403629996115,23,0,,,89.02403629996115,89.22429909999482,3.7,89.22429909999482,0,3.7,1,0,1000,num_1,0.42948340001748875,,25,4,2026-03-04_17h26.10.237,2026A_exp2,2022.2.4,59.91898952315396,
1000,1,3.7,3.7,0,0,17,17,63,,,,,89.67452179995598,90.325554799987,90.325554799987,90.80989879998378,315,45,90.80989879998378,90.80989879998378,90.80989879998378,90.80989879998378,90.80989879998378,90.80989879998378,90.80989879998378,90.80989879998378,90.80989879998378,91.17644139996264,91.17644139996264,91.17644139996264,91.17644139996264,91.17644139996264,91.17644139996264,91.17644139996264,91.17644139996264,91.17644139996264,23,0,,,91.17644139996264,91.37830489996122,1000,91.37830489996122,1000,1000,1000,1000,1,num_2,0.2837370000197552,,25,4,2026-03-04_17h26.10.237,2026A_exp2,2022.2.4,59.91898952315396,
1000,1,6.1,0.0,1,0,18,18,57,,,,,91.69355450000148,92.34401379997144,92.34401379997144,92.84523390000686,315,45,92.84523390000686,92.84523390000686,92.84523390000686,92.84523390000686,92.84523390000686,92.84523390000686,92.84523390000686,92.84523390000686,92.84523390000686,93.19500929996138,93.19500929996138,93.19500929996138,93.19500929996138,93.19500929996138,93.19500929996138,93.19500929996138,93.19500929996138,93.19500929996138,0,1,[0.001218699966557324],[0.35046270000748336],93.19500929996138,93.39537799998652,1000,93.41187799995532,1000,1000,1000,1000,1,num_2,0.34604799997759983,,25,4,2026-03-04_17h26.10.237,2026A_exp2,2022.2.4,59.91898952315396,
1,0,6.1,0.0,0,0,19,19,21,,,,,93.77875189995393,94.42944829998305,94.42944829998305,94.93056959996466,315,45,94.93056959996466,94.93056959996466,94.93056959996466,94.93056959996466,94.93056959996466,94.93056959996466,94.93056959996466,94.93056959996466,94.93056959996466,95.29711019998649,95.29711019998649,95.29711019998649,95.29711019998649,95.29711019998649,95.29711019998649,95.29711019998649,95.29711019998649,95.29711019998649,23,0,,,95.29711019998649,95.49728869996034,6.1,95.49728869996034,1,6.1,1,1,1000,num_4,0.732300799980294,,25,4,2026-03-04_17h26.10.237,2026A_exp2,2022.2.4,59.91898952315396,
1,0,3.7,0.0,0,0,20,20,87,,,,,96.24850589997368,96.89882399997441,96.89882399997441,97.38326639996376,45,315,97.38326639996376,97.38326639996376,97.38326639996376,97.38326639996376,97.38326639996376,97.38326639996376,97.38326639996376,97.38326639996376,97.38326639996376,97.74946709995857,97.74946709995857,97.74946709995857,97.74946709995857,97.74946709995857,97.74946709995857,97.74946709995857,97.74946709995857,97.74946709995857,23,0,,,97.74946709995857,97.94967259996338,3.7,97.94967259996338,1,3.7,1,1,1000,num_4,0.4001348000019789,,25,4,2026-03-04_17h26.10.237,2026A_exp2,2022.2.4,59.91898952315396,
1000,1,6.1,6.1,1,0,21,21,8,,,,,98.3667685999535,99.00988519995008,99.00988519995008,99.50713599997107,315,45,99.50713599997107,99.50713599997107,99.50713599997107,99.50713599997107,99.50713599997107,99.50713599997107,99.50713599997107,99.50713599997107,99.50713599997107,99.86830639996333,99.86830639996333,99.86830639996333,99.86830639996333,99.86830639996333,99.86830639996333,99.86830639996333,99.86830639996333,99.86830639996333,23,0,,,99.86830639996333,100.07019589998526,1000,100.07019589998526,1000,1000,1000,1000,0,num_3,0.35165490000508726,,25,4,2026-03-04_17h26.10.237,2026A_exp2,2022.2.4,59.91898952315396,
1,0,0.0,6.1,1,0,22,22,33,,,,,100.45191790000536,101.11282159999246,101.11282159999246,101.60885249997955,315,315,101.60885249997955,101.60885249997955,101.60885249997955,101.60885249997955,101.60885249997955,101.60885249997955,101.60885249997955,101.60885249997955,101.60885249997955,101.97041629999876,101.97041629999876,101.97041629999876,101.97041629999876,101.97041629999876,101.97041629999876,101.97041629999876,101.97041629999876,101.97041629999876,23,0,,,101.97041629999876,102.17067459999816,6.1,102.17067459999816,0,6.1,1,0,1000,num_1,0.6591244000010192,,25,4,2026-03-04_17h26.10.237,2026A_exp2,2022.2.4,59.91898952315396,
1000,1,3.7,6.1,1,0,23,23,48,,,,,102.85464330000104,103.48867309995694,103.48867309995694,103.98987379996106,45,45,103.98987379996106,103.98987379996106,103.98987379996106,103.98987379996106,103.98987379996106,103.98987379996106,103.98987379996106,103.98987379996106,103.98987379996106,104.35606249998091,104.35606249998091,104.35606249998091,104.35606249998091,104.35606249998091,104.35606249998091,104.35606249998091,104.35606249998091,104.35606249998091,23,0,,,104.35606249998091,104.55829839996295,1000,104.55829839996295,1000,1000,1000,1000,1,num_2,0.4960519000305794,,25,4,2026-03-04_17h26.10.237,2026A_exp2,2022.2.4,59.91898952315396,
1000,1,0.0,4.9,0,0,24,24,6,,,,,105.07340489997296,105.72425609995844,105.72425609995844,106.2252540999907,45,45,106.2252540999907,106.2252540999907,106.2252540999907,106.2252540999907,106.2252540999907,106.2252540999907,106.2252540999907,106.2252540999907,106.2252540999907,106.5914494000026,106.5914494000026,106.5914494000026,106.5914494000026,106.5914494000026,106.5914494000026,106.5914494000026,106.5914494000026,106.5914494000026,23,0,,,106.5914494000026,106.79408289998537,1000,106.79408289998537,1000,1000,1000,1000,0,num_3,0.3641437999904156,,25,4,2026-03-04_17h26.10.237,2026A_exp2,2022.2.4,59.91898952315396,
1000,1,4.9,0.0,0,0,25,25,41,,,,,107.17549839999992,107.8263772999635,107.8263772999635,108.32728809997207,315,315,108.32728809997207,108.32728809997207,108.32728809997207,108.32728809997207,108.32728809997207,108.32728809997207,108.32728809997207,108.32728809997207,108.32728809997207,108.69369759998517,108.69369759998517,108.69369759998517,108.69369759998517,108.69369759998517,108.69369759998517,108.69369759998517,108.69369759998517,108.69369759998517,23,0,,,108.69369759998517,108.89542859996436,1000,108.89542859996436,1000,1000,1000,1000,1,num_2,0.494998799986206,,25,4,2026-03-04_17h26.10.237,2026A_exp2,2022.2.4,59.91898952315396,
1,0,0.0,0.0,0,0,26,26,24,,,,,109.41090339998482,110.06183089996921,110.06183089996921,110.56297819997417,45,45,110.56297819997417,110.56297819997417,110.56297819997417,110.56297819997417,110.56297819997417,110.56297819997417,110.56297819997417,110.56297819997417,110.56297819997417,110.91268069995567,110.91268069995567,110.91268069995567,110.91268069995567,110.91268069995567,110.91268069995567,110.91268069995567,110.91268069995567,110.91268069995567,18,1,[0.30031229997985065],[0.3502666000276804],110.91268069995567,111.11284939997131,0.0,111.11284939997131,0,0.0,0,1,1000,num_1,0.5166857999865897,,25,4,2026-03-04_17h26.10.237,2026A_exp2,2022.2.4,59.91898952315396,
1000,1,4.9,0.0,1,0,27,27,10,,,,,111.64661870000418,112.29743310000049,112.29743310000049,112.79877900000429,45,315,112.79877900000429,112.79877900000429,112.79877900000429,112.79877900000429,112.79877900000429,112.79877900000429,112.79877900000429,112.79877900000429,112.79877900000429,113.14821249997476,113.14821249997476,113.14821249997476,113.14821249997476,113.14821249997476,113.14821249997476,113.14821249997476,113.14821249997476,113.14821249997476,22,0,,,113.14821249997476,113.34846329997526,1000,113.34846329997526,1000,1000,1000,1000,1,num_2,0.44152230001054704,,25,4,2026-03-04_17h26.10.237,2026A_exp2,2022.2.4,59.91898952315396,
1,0,4.9,3.7,0,0,28,28,44,,,,,113.81554739997955,114.46620029996848,114.46620029996848,114.9506613999838,45,315,114.9506613999838,114.9506613999838,114.9506613999838,114.9506613999838,114.9506613999838,114.9506613999838,114.9506613999838,114.9506613999838,114.9506613999838,115.31706619996112,115.31706619996112,115.31706619996112,115.31706619996112,115.31706619996112,115.31706619996112,115.31706619996112,115.31706619996112,115.31706619996112,23,0,,,115.31706619996112,115.51724809996085,4.9,115.51724809996085,1,4.9,1,1,1000,num_4,0.5359969999990426,,25,4,2026-03-04_17h26.10.237,2026A_exp2,2022.2.4,59.91898952315396,
1000,1,0.0,4.9,0,0,29,29,26,,,,,116.08437860000413,116.73505329998443,116.73505329998443,117.21960279997438,315,45,117.21960279997438,117.21960279997438,117.21960279997438,117.21960279997438,117.21960279997438,117.21960279997438,117.21960279997438,117.21960279997438,117.21960279997438,117.5859964999836,117.5859964999836,117.5859964999836,117.5859964999836,117.5859964999836,117.5859964999836,117.5859964999836,117.5859964999836,117.5859964999836,22,1,[0.3167323999805376],[0.33381689997622743],117.5859964999836,117.78863899997668,1000,117.78863899997668,1000,1000,1000,1000,1,num_2,0.6248611999908462,,25,4,2026-03-04_17h26.10.237,2026A_exp2,2022.2.4,59.91898952315396,
1,0,0.0,3.7,1,0,30,30,35,,,,,118.4367250999785,119.08756709995214,119.08756709995214,119.58856099995319,45,315,119.58856099995319,119.58856099995319,119.58856099995319,119.58856099995319,119.58856099995319,119.58856099995319,119.58856099995319,119.58856099995319,119.58856099995319,119.9550995999598,119.9550995999598,119.9550995999598,119.9550995999598,119.9550995999598,119.9550995999598,119.9550995999598,119.9550995999598,119.9550995999598,18,1,[0.3005869000335224],[0.3673795000067912],119.9550995999598,120.15523029997712,3.7,120.15523029997712,1,3.7,1,1,1000,num_4,0.426209099998232,,25,4,2026-03-04_17h26.10.237,2026A_exp2,2022.2.4,59.91898952315396,
1000,1,0.0,0.0,0,0,31,31,86,,,,,120.6057716999785,121.23966969997855,121.23966969997855,121.74081109999679,45,315,121.74081109999679,121.74081109999679,121.74081109999679,121.74081109999679,121.74081109999679,121.74081109999679,121.74081109999679,121.74081109999679,121.74081109999679,122.10710369999288,122.10710369999288,122.10710369999288,122.10710369999288,122.10710369999288,122.10710369999288,122.10710369999288,122.10710369999288,122.10710369999288,23,0,,,122.10710369999288,122.30988889996661,1000,122.30988889996661,1000,1000,1000,1000,0,num_3,0.3284698000061326,,25,4,2026-03-04_17h26.10.237,2026A_exp2,2022.2.4,59.91898952315396,
1000,1,6.1,0.0,1,0,32,32,83,,,,,122.65818589995615,123.30849079997279,123.30849079997279,123.79285909997998,45,45,123.79285909997998,123.79285909997998,123.79285909997998,123.79285909997998,123.79285909997998,123.79285909997998,123.79285909997998,123.79285909997998,123.79285909997998,124.15928919997532,124.15928919997532,124.15928919997532,124.15928919997532,124.15928919997532,124.15928919997532,124.15928919997532,124.15928919997532,124.15928919997532,23,0,,,124.15928919997532,124.35974559996976,1000,124.35974559996976,1000,1000,1000,1000,1,num_2,0.38228930003242567,,25,4,2026-03-04_17h26.10.237,2026A_exp2,2022.2.4,59.91898952315396,
1000,1,0.0,0.0,1,0,33,33,9,,,,,124.75972749997163,125.41055579995736,125.41055579995736,125.91151730000274,45,45,125.91151730000274,125.91151730000274,125.91151730000274,125.91151730000274,125.91151730000274,125.91151730000274,125.91151730000274,125.91151730000274,125.91151730000274,126.27797759999521,126.27797759999521,126.27797759999521,126.27797759999521,126.27797759999521,126.27797759999521,126.27797759999521,126.27797759999521,126.27797759999521,23,0,,,126.27797759999521,126.48008670000127,1000,126.48008670000127,1000,1000,1000,1000,0,num_3,0.2781282000360079,,25,4,2026-03-04_17h26.10.237,2026A_exp2,2022.2.4,59.91898952315396,
1,0,3.7,3.7,1,0,34,34,30,,,,,126.77848310000263,127.42915719997836,127.42915719997836,127.93020709999837,315,45,127.93020709999837,127.93020709999837,127.93020709999837,127.93020709999837,127.93020709999837,127.93020709999837,127.93020709999837,127.93020709999837,127.93020709999837,128.2967745999922,128.2967745999922,128.2967745999922,128.2967745999922,128.2967745999922,128.2967745999922,128.2967745999922,128.2967745999922,128.2967745999922,23,0,,,128.2967745999922,128.49693299998762,3.7,128.49693299998762,1,3.7,1,1,1000,num_4,0.4283638999913819,,25,4,2026-03-04_17h26.10.237,2026A_exp2,2022.2.4,59.91898952315396,
1,0,0.0,0.0,0,0,35,35,88,,,,,128.94732159998966,129.59794669999974,129.59794669999974,130.08246609999333,315,315,130.08246609999333,130.08246609999333,130.08246609999333,130.08246609999333,130.08246609999333,130.08246609999333,130.08246609999333,130.08246609999333,130.08246609999333,130.44867039995734,130.44867039995734,130.44867039995734,130.44867039995734,130.44867039995734,130.44867039995734,130.44867039995734,130.44867039995734,130.44867039995734,0,1,[0.0012260000221431255],[0.3672249999945052],130.44867039995734,130.64913749997504,0.0,130.64913749997504,1,0.0,0,0,1000,num_4,0.47746769996592775,,25,4,2026-03-04_17h26.10.237,2026A_exp2,2022.2.4,59.91898952315396,
1000,1,6.1,6.1,1,0,36,36,4,,,,,131.14946250000503,131.8036522999755,131.8036522999755,132.29258319997462,45,315,132.29258319997462,132.29258319997462,132.29258319997462,132.29258319997462,132.29258319997462,132.29258319997462,132.29258319997462,132.29258319997462,132.29258319997462,132.65117019996978,132.65117019996978,132.65117019996978,132.65117019996978,132.65117019996978,132.65117019996978,132.65117019996978,132.65117019996978,132.65117019996978,23,0,,,132.65117019996978,132.85159269999713,1000,132.85159269999713,1000,1000,1000,1000,1,num_2,0.3226687000133097,,25,4,2026-03-04_17h26.10.237,2026A_exp2,2022.2.4,59.91898952315396,
0,0,4.9,0.0,1,0,37,37,67,,,,,133.2016020999872,133.85232449998148,133.85232449998148,134.35346159996698,315,45,134.35346159996698,134.35346159996698,134.35346159996698,134.35346159996698,134.35346159996698,134.35346159996698,134.35346159996698,134.35346159996698,134.35346159996698,134.70315620000474,134.70315620000474,134.70315620000474,134.70315620000474,134.70315620000474,134.70315620000474,134.70315620000474,134.70315620000474,134.70315620000474,22,0,,,134.70315620000474,134.9032888999791,4.9,134.91992570000002,0,4.9,1,0,1000,num_1,0.5019954000017606,,25,4,2026-03-04_17h26.10.237,2026A_exp2,2022.2.4,59.91898952315396,
0,0,0.0,3.7,0,0,38,38,34,,,,,135.4538465999649,136.0878859999939,136.0878859999939,136.58897989999969,45,315,136.58897989999969,136.58897989999969,136.58897989999969,136.58897989999969,136.58897989999969,136.58897989999969,136.58897989999969,136.58897989999969,136.58897989999969,136.9553339999984,136.9553339999984,136.9553339999984,136.9553339999984,136.9553339999984,136.9553339999984,136.9553339999984,136.9553339999984,136.9553339999984,23,0,,,136.9553339999984,137.15551929996582,3.7,137.15551929996582,1,3.7,1,1,1000,num_4,0.4425544999539852,,25,4,2026-03-04_17h26.10.237,2026A_exp2,2022.2.4,59.91898952315396,
1000,1,0.0,0.0,1,0,39,39,1,,,,,137.62257989996579,138.25674969999818,138.25674969999818,138.7577203999972,45,315,138.7577203999972,138.7577203999972,138.7577203999972,138.7577203999972,138.7577203999972,138.7577203999972,138.7577203999972,138.7577203999972,138.7577203999972,139.12427879997995,139.12427879997995,139.12427879997995,139.12427879997995,139.12427879997995,139.12427879997995,139.12427879997995,139.12427879997995,139.12427879997995,23,0,,,139.12427879997995,139.32623829995282,1000,139.32623829995282,1000,1000,1000,1000,1,num_2,0.6876529000001028,,25,4,2026-03-04_17h26.10.237,2026A_exp2,2022.2.4,59.91898952315396,
1,0,0.0,0.0,1,0,40,40,49,,,,,140.04170889995294,140.69252069998765,140.69252069998765,141.19345849996898,315,45,141.19345849996898,141.19345849996898,141.19345849996898,141.19345849996898,141.19345849996898,141.19345849996898,141.19345849996898,141.19345849996898,141.19345849996898,141.55996799998684,141.55996799998684,141.55996799998684,141.55996799998684,141.55996799998684,141.55996799998684,141.55996799998684,141.55996799998684,141.55996799998684,23,0,,,141.55996799998684,141.75995149998926,0.0,141.75995149998926,1,0.0,0,0,1000,num_4,0.5253244999912567,,25,4,2026-03-04_17h26.10.237,2026A_exp2,2022.2.4,59.91898952315396,
1000,1,0.0,0.0,1,0,41,41,85,,,,,142.3107395999832,142.96134529996198,142.96134529996198,143.4457204999635,45,315,143.4457204999635,143.4457204999635,143.4457204999635,143.4457204999635,143.4457204999635,143.4457204999635,143.4457204999635,143.4457204999635,143.4457204999635,143.81216989998939,143.81216989998939,143.81216989998939,143.81216989998939,143.81216989998939,143.81216989998939,143.81216989998939,143.81216989998939,143.81216989998939,23,0,,,143.81216989998939,144.01632179995067,1000,144.01632179995067,1000,1000,1000,1000,0,num_3,0.9737752999644727,,25,4,2026-03-04_17h26.10.237,2026A_exp2,2022.2.4,59.91898952315396,
1,0,0.0,4.9,0,0,42,42,3,,,,,145.01351139997132,145.66402709996328,145.66402709996328,146.16527319996385,315,45,146.16527319996385,146.16527319996385,146.16527319996385,146.16527319996385,146.16527319996385,146.16527319996385,146.16527319996385,146.16527319996385,146.16527319996385,146.51501839997945,146.51501839997945,146.51501839997945,146.51501839997945,146.51501839997945,146.51501839997945,146.51501839997945,146.51501839997945,146.51501839997945,22,0,,,146.51501839997945,146.71496859996114,0.0,146.73191859998042,0,0.0,0,1,1000,num_1,0.5537957000196911,,25,4,2026-03-04_17h26.10.237,2026A_exp2,2022.2.4,59.91898952315396,
1,0,0.0,6.1,0,0,43,43,0,,,,,147.31576179998228,147.96642269997392,147.96642269997392,148.45088629995007,315,315,148.45088629995007,148.45088629995007,148.45088629995007,148.45088629995007,148.45088629995007,148.45088629995007,148.45088629995007,148.45088629995007,148.45088629995007,148.81708509998862,148.81708509998862,148.81708509998862,148.81708509998862,148.81708509998862,148.81708509998862,148.81708509998862,148.81708509998862,148.81708509998862,13,4,"[0.03349010000238195, 0.20053570001618937, 0.26703960000304505, 0.3337644999846816]","[0.11692659999243915, 0.23373829998308793, 0.2839094999944791, 0.3672744000214152]",148.81708509998862,149.01743179996265,0.0,149.01743179996265,1,0.0,0,0,1000,num_4,0.3802929999656044,,25,4,2026-03-04_17h26.10.237,2026A_exp2,2022.2.4,59.91898952315396,
0,0,6.1,0.0,0,0,44,44,74,,,,,149.4178517999826,150.06852099997923,150.06852099997923,150.5528231000062,45,315,150.5528231000062,150.5528231000062,150.5528231000062,150.5528231000062,150.5528231000062,150.5528231000062,150.5528231000062,150.5528231000062,150.5528231000062,150.91938979999395,150.91938979999395,150.91938979999395,150.91938979999395,150.91938979999395,150.91938979999395,150.91938979999395,150.91938979999395,150.91938979999395,23,0,,,150.91938979999395,151.1196140999673,0.0,151.1196140999673,0,0.0,0,1,1000,num_1,1.0216535999788903,,25,4,2026-03-04_17h26.10.237,2026A_exp2,2022.2.4,59.91898952315396,
1000,1,0.0,4.9,0,0,45,45,61,,,,,152.17030459997477,152.80445609998424,152.80445609998424,153.3057156999712,45,315,153.3057156999712,153.3057156999712,153.3057156999712,153.3057156999712,153.3057156999712,153.3057156999712,153.3057156999712,153.3057156999712,153.3057156999712,153.6722050999524,153.6722050999524,153.6722050999524,153.6722050999524,153.6722050999524,153.6722050999524,153.6722050999524,153.6722050999524,153.6722050999524,23,0,,,153.6722050999524,153.8737756999908,1000,153.8737756999908,1000,1000,1000,1000,0,num_3,0.07554049999453127,,25,4,2026-03-04_17h26.10.237,2026A_exp2,2022.2.4,59.91898952315396,
1,0,0.0,3.7,1,0,46,46,32,,,,,153.9726595999673,154.6064024999505,154.6064024999505,155.10751229996094,45,315,155.10751229996094,155.10751229996094,155.10751229996094,155.10751229996094,155.10751229996094,155.10751229996094,155.10751229996094,155.10751229996094,155.10751229996094,155.47392590000527,155.47392590000527,155.47392590000527,155.47392590000527,155.47392590000527,155.47392590000527,155.47392590000527,155.47392590000527,155.47392590000527,23,0,,,155.47392590000527,155.6741333999671,3.7,155.6741333999671,1,3.7,1,1,1000,num_4,0.07560439995722845,,25,4,2026-03-04_17h26.10.237,2026A_exp2,2022.2.4,59.91898952315396,
1,0,6.1,0.0,0,0,47,47,82,,,,,155.77417170000263,156.42480779998004,156.42480779998004,156.90949319995707,45,45,156.90949319995707,156.90949319995707,156.90949319995707,156.90949319995707,156.90949319995707,156.90949319995707,156.90949319995707,156.90949319995707,156.90949319995707,157.2757844000007,157.2757844000007,157.2757844000007,157.2757844000007,157.2757844000007,157.2757844000007,157.2757844000007,157.2757844000007,157.2757844000007,0,1,[0.0012159000034444034],[0.36723089998122305],157.2757844000007,157.47589830000652,6.1,157.47589830000652,0,6.1,1,0,1000,num_1,0.5537017000024207,,25,4,2026-03-04_17h26.10.237,2026A_exp2,2022.2.4,59.91898952315396,
1,0,4.9,3.7,1,0,48,48,27,,,,,158.05985599994892,158.7104787999997,158.7104787999997,159.19476149999537,45,45,159.19476149999537,159.19476149999537,159.19476149999537,159.19476149999537,159.19476149999537,159.19476149999537,159.19476149999537,159.19476149999537,159.19476149999537,159.56134699995164,159.56134699995164,159.56134699995164,159.56134699995164,159.56134699995164,159.56134699995164,159.56134699995164,159.56134699995164,159.56134699995164,23,0,,,159.56134699995164,159.7614855999709,3.7,159.7614855999709,1,3.7,1,1,1000,num_4,0.1558575999806635,,25,4,2026-03-04_17h26.10.237,2026A_exp2,2022.2.4,59.91898952315396,
1000,1,0.0,6.1,1,0,49,49,71,,,,,159.94499849999556,160.59560929995496,160.59560929995496,161.08013459999347,45,45,161.08013459999347,161.08013459999347,161.08013459999347,161.08013459999347,161.08013459999347,161.08013459999347,161.08013459999347,161.08013459999347,161.08013459999347,161.44659649999812,161.44659649999812,161.44659649999812,161.44659649999812,161.44659649999812,161.44659649999812,161.44659649999812,161.44659649999812,161.44659649999812,23,0,,,161.44659649999812,161.64787539996905,1000,161.64787539996905,1000,1000,1000,1000,1,num_2,0.4216355999815278,,25,4,2026-03-04_17h26.10.237,2026A_exp2,2022.2.4,59.91898952315396,
0,0,3.7,0.0,0,0,50,50,62,,,,,162.09722809999948,162.7478579999879,162.7478579999879,163.24909120000666,45,45,163.24909120000666,163.24909120000666,163.24909120000666,163.24909120000666,163.24909120000666,163.24909120000666,163.24909120000666,163.24909120000666,163.24909120000666,163.61543780000648,163.61543780000648,163.61543780000648,163.61543780000648,163.61543780000648,163.61543780000648,163.61543780000648,163.61543780000648,163.61543780000648,23,0,,,163.61543780000648,163.8156530999695,0.0,163.8156530999695,1,0.0,0,0,1000,num_4,0.4460001999977976,,25,4,2026-03-04_17h26.10.237,2026A_exp2,2022.2.4,59.91898952315396,
1,0,6.1,0.0,1,0,51,51,80,,,,,164.28268449997995,164.9333044999512,164.9333044999512,165.417827999976,45,45,165.417827999976,165.417827999976,165.417827999976,165.417827999976,165.417827999976,165.417827999976,165.417827999976,165.417827999976,165.417827999976,165.7840369999758,165.7840369999758,165.7840369999758,165.7840369999758,165.7840369999758,165.7840369999758,165.7840369999758,165.7840369999758,165.7840369999758,23,0,,,165.7840369999758,165.98425019998103,0.0,165.98425019998103,1,0.0,0,0,1000,num_4,0.7098282999941148,,25,4,2026-03-04_17h26.10.237,2026A_exp2,2022.2.4,59.91898952315396,
1,0,0.0,0.0,1,0,52,52,69,,,,,166.7184943999746,167.36913009994896,167.36913009994896,167.8535789999878,315,45,167.8535789999878,167.8535789999878,167.8535789999878,167.8535789999878,167.8535789999878,167.8535789999878,167.8535789999878,167.8535789999878,167.8535789999878,168.2200259999954,168.2200259999954,168.2200259999954,168.2200259999954,168.2200259999954,168.2200259999954,168.2200259999954,168.2200259999954,168.2200259999954,23,0,,,168.2200259999954,168.4202848999994,0.0,168.4202848999994,0,0.0,0,1,1000,num_1,0.9695177000248805,,25,4,2026-03-04_17h26.10.237,2026A_exp2,2022.2.4,59.91898952315396,
1000,1,0.0,0.0,1,0,53,53,78,,,,,169.4210957000032,170.05600509996293,170.05600509996293,170.5562626000028,315,45,170.5562626000028,170.5562626000028,170.5562626000028,170.5562626000028,170.5562626000028,170.5562626000028,170.5562626000028,170.5562626000028,170.5562626000028,170.9225707000005,170.9225707000005,170.9225707000005,170.9225707000005,170.9225707000005,170.9225707000005,170.9225707000005,170.9225707000005,170.9225707000005,23,0,,,170.9225707000005,171.1246087999898,1000,171.1246087999898,1000,1000,1000,1000,0,num_3,0.4566937999916263,,25,4,2026-03-04_17h26.10.237,2026A_exp2,2022.2.4,59.91898952315396,
1000,1,4.9,4.9,1,0,54,54,68,,,,,171.6068500999827,172.2574235999491,172.2574235999491,172.74259359994903,315,45,172.74259359994903,172.74259359994903,172.74259359994903,172.74259359994903,172.74259359994903,172.74259359994903,172.74259359994903,172.74259359994903,172.74259359994903,173.10797099996125,173.10797099996125,173.10797099996125,173.10797099996125,173.10797099996125,173.10797099996125,173.10797099996125,173.10797099996125,173.10797099996125,23,0,,,173.10797099996125,173.30852169997524,1000,173.32544679997955,1000,1000,1000,1000,1,num_2,0.08828840003116056,,25,4,2026-03-04_17h26.10.237,2026A_exp2,2022.2.4,59.91898952315396,
1000,1,0.0,0.0,0,0,55,55,7,,,,,173.4420444999705,174.07714579999447,174.07714579999447,174.57703569997102,45,45,174.57703569997102,174.57703569997102,174.57703569997102,174.57703569997102,174.57703569997102,174.57703569997102,174.57703569997102,174.57703569997102,174.57703569997102,174.9430974999559,174.9430974999559,174.9430974999559,174.9430974999559,174.9430974999559,174.9430974999559,174.9430974999559,174.9430974999559,174.9430974999559,23,0,,,174.9430974999559,175.14544319995912,1000,175.14544319995912,1000,1000,1000,1000,1,num_2,0.6210134000284597,,25,4,2026-03-04_17h26.10.237,2026A_exp2,2022.2.4,59.91898952315396,
1000,1,0.0,0.0,0,0,56,56,5,,,,,175.7942923999508,176.44492769998033,176.44492769998033,176.94602649996523,315,315,176.94602649996523,176.94602649996523,176.94602649996523,176.94602649996523,176.94602649996523,176.94602649996523,176.94602649996523,176.94602649996523,176.94602649996523,177.31237879995024,177.31237879995024,177.31237879995024,177.31237879995024,177.31237879995024,177.31237879995024,177.31237879995024,177.31237879995024,177.31237879995024,23,0,,,177.31237879995024,177.51436749997083,1000,177.51436749997083,1000,1000,1000,1000,1,num_2,0.3549699000432156,,25,4,2026-03-04_17h26.10.237,2026A_exp2,2022.2.4,59.91898952315396,
1000,1,6.1,0.0,1,0,57,57,25,,,,,177.89638329995796,178.54684749996522,178.54684749996522,179.0479018999613,45,45,179.0479018999613,179.0479018999613,179.0479018999613,179.0479018999613,179.0479018999613,179.0479018999613,179.0479018999613,179.0479018999613,179.0479018999613,179.41450869996333,179.41450869996333,179.41450869996333,179.41450869996333,179.41450869996333,179.41450869996333,179.41450869996333,179.41450869996333,179.41450869996333,23,0,,,179.41450869996333,179.61660779995145,1000,179.61660779995145,1000,1000,1000,1000,0,num_3,0.14118459995370358,,25,4,2026-03-04_17h26.10.237,2026A_exp2,2022.2.4,59.91898952315396,
1,0,0.0,0.0,0,0,58,58,79,,,,,179.78135799994925,180.432192999986,180.432192999986,180.93331599998055,45,45,180.93331599998055,180.93331599998055,180.93331599998055,180.93331599998055,180.93331599998055,180.93331599998055,180.93331599998055,180.93331599998055,180.93331599998055,181.29967459995532,181.29967459995532,181.29967459995532,181.29967459995532,181.29967459995532,181.29967459995532,181.29967459995532,181.29967459995532,181.29967459995532,23,0,,,181.29967459995532,181.49978299997747,0.0,181.49978299997747,0,0.0,0,1,1000,num_1,0.6822416999493726,,25,4,2026-03-04_17h26.10.237,2026A_exp2,2022.2.4,59.91898952315396,
1000,1,0.0,0.0,0,0,59,59,17,,,,,182.20047529996373,182.8513263000059,182.8513263000059,183.35224609996658,315,315,183.35224609996658,183.35224609996658,183.35224609996658,183.35224609996658,183.35224609996658,183.35224609996658,183.35224609996658,183.35224609996658,183.35224609996658,183.7021474999492,183.7021474999492,183.7021474999492,183.7021474999492,183.7021474999492,183.7021474999492,183.7021474999492,183.7021474999492,183.7021474999492,22,0,,,183.7021474999492,183.90406539995456,1000,183.90406539995456,1000,1000,1000,1000,1,num_2,0.6543860000092536,,25,4,2026-03-04_17h26.10.237,2026A_exp2,2022.2.4,59.91898952315396,
0,0,6.1,4.9,0,0,60,60,22,,,,,184.58640829997603,185.2369140999508,185.2369140999508,185.73808499996085,45,315,185.73808499996085,185.73808499996085,185.73808499996085,185.73808499996085,185.73808499996085,185.73808499996085,185.73808499996085,185.73808499996085,185.73808499996085,186.08799430000363,186.08799430000363,186.08799430000363,186.08799430000363,186.08799430000363,186.08799430000363,186.08799430000363,186.08799430000363,186.08799430000363,22,0,,,186.08799430000363,186.28782999998657,4.9,186.30484539997997,1,4.9,1,1,1000,num_4,0.6937618000083603,,25,4,2026-03-04_17h26.10.237,2026A_exp2,2022.2.4,59.91898952315396,
1,0,6.1,4.9,1,0,61,61,11,,,,,187.02219389996026,187.67283579998184,187.67283579998184,188.15714989998378,45,45,188.15714989998378,188.15714989998378,188.15714989998378,188.15714989998378,188.15714989998378,188.15714989998378,188.15714989998378,188.15714989998378,188.15714989998378,188.52361609996296,188.52361609996296,188.52361609996296,188.52361609996296,188.52361609996296,188.52361609996296,188.52361609996296,188.52361609996296,188.52361609996296,23,0,,,188.52361609996296,188.72385409998242,4.9,188.72385409998242,0,4.9,1,0,1000,num_1,0.32949870004085824,,25,4,2026-03-04_17h26.10.237,2026A_exp2,2022.2.4,59.91898952315396,
1000,1,0.0,6.1,1,0,62,62,43,,,,,189.074254999985,189.72484579996672,189.72484579996672,190.20914729998913,315,315,190.20914729998913,190.20914729998913,190.20914729998913,190.20914729998913,190.20914729998913,190.20914729998913,190.20914729998913,190.20914729998913,190.20914729998913,190.5756631999975,190.5756631999975,190.5756631999975,190.5756631999975,190.5756631999975,190.5756631999975,190.5756631999975,190.5756631999975,190.5756631999975,23,0,,,190.5756631999975,190.77789109997684,1000,190.77789109997684,1000,1000,1000,1000,1,num_2,0.5479722999734804,,25,4,2026-03-04_17h26.10.237,2026A_exp2,2022.2.4,59.91898952315396,
1000,1,6.1,3.7,0,0,63,63,75,,,,,191.34321189997718,191.99380279995967,191.99380279995967,192.49500389996683,45,45,192.49500389996683,192.49500389996683,192.49500389996683,192.49500389996683,192.49500389996683,192.49500389996683,192.49500389996683,192.49500389996683,192.49500389996683,192.86115589999827,192.86115589999827,192.86115589999827,192.86115589999827,192.86115589999827,192.86115589999827,192.86115589999827,192.86115589999827,192.86115589999827,23,0,,,192.86115589999827,193.06313709996175,1000,193.06313709996175,1000,1000,1000,1000,0,num_3,0.6951582999899983,,25,4,2026-03-04_17h26.10.237,2026A_exp2,2022.2.4,59.91898952315396,
1,0,4.9,0.0,1,0,64,64,65,,,,,193.77886979997857,194.4296160999802,194.4296160999802,194.93062519998057,45,315,194.93062519998057,194.93062519998057,194.93062519998057,194.93062519998057,194.93062519998057,194.93062519998057,194.93062519998057,194.93062519998057,194.93062519998057,195.29701449995628,195.29701449995628,195.29701449995628,195.29701449995628,195.29701449995628,195.29701449995628,195.29701449995628,195.29701449995628,195.29701449995628,23,0,,,195.29701449995628,195.49731419997988,0.0,195.49731419997988,1,0.0,0,0,1000,num_4,0.7488248000154272,,25,4,2026-03-04_17h26.10.237,2026A_exp2,2022.2.4,59.91898952315396,
1000,1,0.0,3.7,0,0,65,65,46,,,,,196.2647641999647,196.9153946999577,196.9153946999577,197.39971909997985,45,45,197.39971909997985,197.39971909997985,197.39971909997985,197.39971909997985,197.39971909997985,197.39971909997985,197.39971909997985,197.39971909997985,197.39971909997985,197.76614439999685,197.76614439999685,197.76614439999685,197.76614439999685,197.76614439999685,197.76614439999685,197.76614439999685,197.76614439999685,197.76614439999685,23,0,,,197.76614439999685,197.96803940000245,1000,197.96803940000245,1000,1000,1000,1000,1,num_2,0.6296782999997959,,25,4,2026-03-04_17h26.10.237,2026A_exp2,2022.2.4,59.91898952315396,
1000,1,3.7,4.9,0,0,66,66,45,,,,,198.6173029000056,199.251076799992,199.251076799992,199.7519579999498,315,45,199.7519579999498,199.7519579999498,199.7519579999498,199.7519579999498,199.7519579999498,199.7519579999498,199.7519579999498,199.7519579999498,199.7519579999498,200.11846549995244,200.11846549995244,200.11846549995244,200.11846549995244,200.11846549995244,200.11846549995244,200.11846549995244,200.11846549995244,200.11846549995244,21,2,"[0.3175168000161648, 0.3510229000239633]","[0.3341405999963172, 0.367518300015945]",200.11846549995244,200.32051910000155,1000,200.32051910000155,1000,1000,1000,1000,1,num_2,0.2847236000234261,,25,4,2026-03-04_17h26.10.237,2026A_exp2,2022.2.4,59.91898952315396,
1000,1,3.7,3.7,0,0,67,67,72,,,,,200.63588959997287,201.28637990000425,201.28637990000425,201.7709208999877,45,315,201.7709208999877,201.7709208999877,201.7709208999877,201.7709208999877,201.7709208999877,201.7709208999877,201.7709208999877,201.7709208999877,201.7709208999877,202.13722709997091,202.13722709997091,202.13722709997091,202.13722709997091,202.13722709997091,202.13722709997091,202.13722709997091,202.13722709997091,202.13722709997091,23,0,,,202.13722709997091,202.33912099996815,1000,202.33912099996815,1000,1000,1000,1000,0,num_3,0.1949651999748312,,25,4,2026-03-04_17h26.10.237,2026A_exp2,2022.2.4,59.91898952315396,
1,0,3.7,4.9,1,0,68,68,18,,,,,202.55438960000174,203.20492489996832,203.20492489996832,203.7102088999818,315,315,203.7102088999818,203.7102088999818,203.7102088999818,203.7102088999818,203.7102088999818,203.7102088999818,203.7102088999818,203.7102088999818,203.7102088999818,204.07257239997853,204.07257239997853,204.07257239997853,204.07257239997853,204.07257239997853,204.07257239997853,204.07257239997853,204.07257239997853,204.07257239997853,23,0,,,204.07257239997853,204.2726915999665,4.9,204.2726915999665,0,4.9,1,0,1000,num_1,0.2129248999990523,,25,4,2026-03-04_17h26.10.237,2026A_exp2,2022.2.4,59.91898952315396,
1,0,6.1,6.1,1,0,69,69,23,,,,,204.50629729998764,205.1569479999598,205.1569479999598,205.64126549998764,45,45,205.64126549998764,205.64126549998764,205.64126549998764,205.64126549998764,205.64126549998764,205.64126549998764,205.64126549998764,205.64126549998764,205.64126549998764,206.0076936999685,206.0076936999685,206.0076936999685,206.0076936999685,206.0076936999685,206.0076936999685,206.0076936999685,206.0076936999685,206.0076936999685,4,2,"[0.05046370002673939, 0.10049189999699593]","[0.08380740002030507, 0.36715150001691654]",206.0076936999685,206.20782700000564,6.1,206.20782700000564,0,6.1,1,0,1000,num_1,1.157511199999135,,25,4,2026-03-04_17h26.10.237,2026A_exp2,2022.2.4,59.91898952315396,
1,0,0.0,6.1,1,0,70,70,50,,,,,207.39264129998628,208.0429019999574,208.0429019999574,208.5275074999663,45,315,208.5275074999663,208.5275074999663,208.5275074999663,208.5275074999663,208.5275074999663,208.5275074999663,208.5275074999663,208.5275074999663,208.5275074999663,208.89397709997138,208.89397709997138,208.89397709997138,208.89397709997138,208.89397709997138,208.89397709997138,208.89397709997138,208.89397709997138,208.89397709997138,16,3,"[0.11671790003310889, 0.23360140004660934, 0.31690810003783554]","[0.13340680004330352, 0.24996680003823712, 0.36715210002148524]",208.89397709997138,209.09420529997442,6.1,209.09420529997442,1,6.1,1,1,1000,num_4,0.5918406999553554,,25,4,2026-03-04_17h26.10.237,2026A_exp2,2022.2.4,59.91898952315396,
0,0,4.9,3.7,0,0,71,71,28,,,,,209.71153479994973,210.36202519998187,210.36202519998187,210.84665299998596,45,315,210.84665299998596,210.84665299998596,210.84665299998596,210.84665299998596,210.84665299998596,210.84665299998596,210.84665299998596,210.84665299998596,210.84665299998596,211.21298369998112,211.21298369998112,211.21298369998112,211.21298369998112,211.21298369998112,211.21298369998112,211.21298369998112,211.21298369998112,211.21298369998112,23,0,,,211.21298369998112,211.41306609997991,3.7,211.41306609997991,0,3.7,1,0,1000,num_1,0.3774916999973357,,25,4,2026-03-04_17h26.10.237,2026A_exp2,2022.2.4,59.91898952315396,
1000,1,4.9,0.0,0,0,72,72,54,,,,,211.81367469998077,212.46408069995232,212.46408069995232,212.9486307000043,45,45,212.9486307000043,212.9486307000043,212.9486307000043,212.9486307000043,212.9486307000043,212.9486307000043,212.9486307000043,212.9486307000043,212.9486307000043,213.31517489999533,213.31517489999533,213.31517489999533,213.31517489999533,213.31517489999533,213.31517489999533,213.31517489999533,213.31517489999533,213.31517489999533,23,0,,,213.31517489999533,213.5153064999613,1000,213.5153064999613,1000,1000,1000,1000,1,num_2,0.21065789996646345,,25,4,2026-03-04_17h26.10.237,2026A_exp2,2022.2.4,59.91898952315396,
1000,1,3.7,0.0,0,0,73,73,76,,,,,213.74886229995172,214.3995101999608,214.3995101999608,214.90063889999874,315,45,214.90063889999874,214.90063889999874,214.90063889999874,214.90063889999874,214.90063889999874,214.90063889999874,214.90063889999874,214.90063889999874,214.90063889999874,215.25037779996637,215.25037779996637,215.25037779996637,215.25037779996637,215.25037779996637,215.25037779996637,215.25037779996637,215.25037779996637,215.25037779996637,22,0,,,215.25037779996637,215.4525430999929,1000,215.4525430999929,1000,1000,1000,1000,1,num_2,0.4170041999896057,,25,4,2026-03-04_17h26.10.237,2026A_exp2,2022.2.4,59.91898952315396,
1000,1,3.7,6.1,1,0,74,74,58,,,,,215.9010945999762,216.55171639996115,216.55171639996115,217.05262239999138,45,315,217.05262239999138,217.05262239999138,217.05262239999138,217.05262239999138,217.05262239999138,217.05262239999138,217.05262239999138,217.05262239999138,217.05262239999138,217.41916389996186,217.41916389996186,217.41916389996186,217.41916389996186,217.41916389996186,217.41916389996186,217.41916389996186,217.41916389996186,217.41916389996186,23,0,,,217.41916389996186,217.62094559997786,1000,217.62094559997786,1000,1000,1000,1000,0,num_3,0.46419019997119904,,25,4,2026-03-04_17h26.10.237,2026A_exp2,2022.2.4,59.91898952315396,
1,0,0.0,6.1,1,0,75,75,31,,,,,218.10328849998768,218.7538567999727,218.7538567999727,219.25494049995905,315,45,219.25494049995905,219.25494049995905,219.25494049995905,219.25494049995905,219.25494049995905,219.25494049995905,219.25494049995905,219.25494049995905,219.25494049995905,219.6213415999664,219.6213415999664,219.6213415999664,219.6213415999664,219.6213415999664,219.6213415999664,219.6213415999664,219.6213415999664,219.6213415999664,22,1,[0.050297999987378716],[0.06685169995762408],219.6213415999664,219.82155599998077,6.1,219.82155599998077,0,6.1,1,0,1000,num_1,0.33575919998111203,,25,4,2026-03-04_17h26.10.237,2026A_exp2,2022.2.4,59.91898952315396,
1,0,3.7,4.9,1,0,76,76,20,,,,,220.18863569997484,220.83930190000683,220.83930190000683,221.32385439996142,315,315,221.32385439996142,221.32385439996142,221.32385439996142,221.32385439996142,221.32385439996142,221.32385439996142,221.32385439996142,221.32385439996142,221.32385439996142,221.69012379995547,221.69012379995547,221.69012379995547,221.69012379995547,221.69012379995547,221.69012379995547,221.69012379995547,221.69012379995547,221.69012379995547,23,0,,,221.69012379995547,221.89016919996357,4.9,221.89016919996357,0,4.9,1,0,1000,num_1,0.3963602000148967,,25,4,2026-03-04_17h26.10.237,2026A_exp2,2022.2.4,59.91898952315396,
1000,1,0.0,4.9,1,0,77,77,66,,,,,222.3073735999642,222.95803139999043,222.95803139999043,223.44259829999646,315,45,223.44259829999646,223.44259829999646,223.44259829999646,223.44259829999646,223.44259829999646,223.44259829999646,223.44259829999646,223.44259829999646,223.44259829999646,223.80900089995703,223.80900089995703,223.80900089995703,223.80900089995703,223.80900089995703,223.80900089995703,223.80900089995703,223.80900089995703,223.80900089995703,23,0,,,223.80900089995703,224.01095309999073,1000,224.01095309999073,1000,1000,1000,1000,0,num_3,0.3782605999731459,,25,4,2026-03-04_17h26.10.237,2026A_exp2,2022.2.4,59.91898952315396,
1,0,0.0,0.0,1,0,78,78,42,,,,,224.4097792999819,225.06012479995843,225.06012479995843,225.56116629997268,45,45,225.56116629997268,225.56116629997268,225.56116629997268,225.56116629997268,225.56116629997268,225.56116629997268,225.56116629997268,225.56116629997268,225.56116629997268,225.92749849997927,225.92749849997927,225.92749849997927,225.92749849997927,225.92749849997927,225.92749849997927,225.92749849997927,225.92749849997927,225.92749849997927,23,0,,,225.92749849997927,226.13408940000227,0.0,226.13408940000227,0,0.0,0,1,1000,num_1,0.6230449000140652,,25,4,2026-03-04_17h26.10.237,2026A_exp2,2022.2.4,59.91898952315396,
1,0,6.1,0.0,1,0,79,79,70,,,,,226.77856720000273,227.42921649996424,227.42921649996424,227.9136678999639,315,45,227.9136678999639,227.9136678999639,227.9136678999639,227.9136678999639,227.9136678999639,227.9136678999639,227.9136678999639,227.9136678999639,227.9136678999639,228.27985399996396,228.27985399996396,228.27985399996396,228.27985399996396,228.27985399996396,228.27985399996396,228.27985399996396,228.27985399996396,228.27985399996396,23,0,,,228.27985399996396,228.47992529999465,0.0,228.47992529999465,0,0.0,0,1,1000,num_1,0.11747310002101585,,25,4,2026-03-04_17h26.10.237,2026A_exp2,2022.2.4,59.91898952315396,
0,0,0.0,0.0,0,0,80,80,59,,,,,228.6134012999828,229.24845399998594,229.24845399998594,229.74930259998655,45,45,229.74930259998655,229.74930259998655,229.74930259998655,229.74930259998655,229.74930259998655,229.74930259998655,229.74930259998655,229.74930259998655,229.74930259998655,230.1159967999556,230.1159967999556,230.1159967999556,230.1159967999556,230.1159967999556,230.1159967999556,230.1159967999556,230.1159967999556,230.1159967999556,23,0,,,230.1159967999556,230.31537009996828,0.0,230.31537009996828,0,0.0,0,1,1000,num_1,0.31411540001863614,,25,4,2026-03-04_17h26.10.237,2026A_exp2,2022.2.4,59.91898952315396,
1000,1,3.7,0.0,1,0,81,81,38,,,,,230.64901479997206,231.29942429997027,231.29942429997027,231.784700899967,45,45,231.784700899967,231.784700899967,231.784700899967,231.784700899967,231.784700899967,231.784700899967,231.784700899967,231.784700899967,231.784700899967,232.15039510000497,232.15039510000497,232.15039510000497,232.15039510000497,232.15039510000497,232.15039510000497,232.15039510000497,232.15039510000497,232.15039510000497,23,0,,,232.15039510000497,232.35045709996484,1000,232.35045709996484,1000,1000,1000,1000,0,num_3,0.3830912999692373,,25,4,2026-03-04_17h26.10.237,2026A_exp2,2022.2.4,59.91898952315396,
1,0,0.0,4.9,0,0,82,82,73,,,,,232.75094830000307,233.40180339996004,233.40180339996004,233.88808979996247,315,315,233.88808979996247,233.88808979996247,233.88808979996247,233.88808979996247,233.88808979996247,233.88808979996247,233.88808979996247,233.88808979996247,233.88808979996247,234.25245939998422,234.25245939998422,234.25245939998422,234.25245939998422,234.25245939998422,234.25245939998422,234.25245939998422,234.25245939998422,234.25245939998422,23,0,,,234.25245939998422,234.4525896999985,0.0,234.4525896999985,1,0.0,0,0,1000,num_4,0.5530487999785691,,25,4,2026-03-04_17h26.10.237,2026A_exp2,2022.2.4,59.91898952315396,
1,0,0.0,6.1,1,0,83,83,36,,,,,235.03686689998722,235.68741529999534,235.68741529999534,236.17177989997435,45,315,236.17177989997435,236.17177989997435,236.17177989997435,236.17177989997435,236.17177989997435,236.17177989997435,236.17177989997435,236.17177989997435,236.17177989997435,236.53812159999507,236.53812159999507,236.53812159999507,236.53812159999507,236.53812159999507,236.53812159999507,236.53812159999507,236.53812159999507,236.53812159999507,23,0,,,236.53812159999507,236.7384087999817,6.1,236.7384087999817,1,6.1,1,1,1000,num_4,0.3949456999544054,,25,4,2026-03-04_17h26.10.237,2026A_exp2,2022.2.4,59.91898952315396,
1,0,3.7,0.0,1,0,84,84,12,,,,,237.15566379996017,237.80639669997618,237.80639669997618,238.29056239995407,45,315,238.29056239995407,238.29056239995407,238.29056239995407,238.29056239995407,238.29056239995407,238.29056239995407,238.29056239995407,238.29056239995407,238.29056239995407,238.6570796999731,238.6570796999731,238.6570796999731,238.6570796999731,238.6570796999731,238.6570796999731,238.6570796999731,238.6570796999731,238.6570796999731,20,2,"[0.16709320002701133, 0.20042860001558438]","[0.18358270003227517, 0.23363510001217946]",238.6570796999731,238.85726009996142,0.0,238.85726009996142,0,0.0,0,1,1000,num_1,0.4287705000024289,,25,4,2026-03-04_17h26.10.237,2026A_exp2,2022.2.4,59.91898952315396,
1,0,0.0,0.0,1,0,85,85,39,,,,,239.30773959995713,239.95837769994978,239.95837769994978,240.44282349996502,45,315,240.44282349996502,240.44282349996502,240.44282349996502,240.44282349996502,240.44282349996502,240.44282349996502,240.44282349996502,240.44282349996502,240.44282349996502,240.80916199996136,240.80916199996136,240.80916199996136,240.80916199996136,240.80916199996136,240.80916199996136,240.80916199996136,240.80916199996136,240.80916199996136,23,0,,,240.80916199996136,241.00937549996888,0.0,241.00937549996888,0,0.0,0,1,1000,num_1,1.1322462999960408,,25,4,2026-03-04_17h26.10.237,2026A_exp2,2022.2.4,59.91898952315396,
1,0,0.0,4.9,1,0,86,86,37,,,,,242.1606278999825,242.8112275999738,242.8112275999738,243.29561039997498,45,45,243.29561039997498,243.29561039997498,243.29561039997498,243.29561039997498,243.29561039997498,243.29561039997498,243.29561039997498,243.29561039997498,243.29561039997498,243.6619747999939,243.6619747999939,243.6619747999939,243.6619747999939,243.6619747999939,243.6619747999939,243.6619747999939,243.6619747999939,243.6619747999939,16,3,"[0.20016410003881902, 0.3009095000452362, 0.33427020005183294]","[0.25074580003274605, 0.31768050004029647, 0.367686000012327]",243.6619747999939,243.86225479998393,4.9,243.86225479998393,1,4.9,1,1,1000,num_4,0.41576860001077875,,25,4,2026-03-04_17h26.10.237,2026A_exp2,2022.2.4,59.91898952315396,
1000,1,6.1,6.1,0,0,87,87,16,,,,,244.29612610000186,244.94675829994958,244.94675829994958,245.43107489997055,45,45,245.43107489997055,245.43107489997055,245.43107489997055,245.43107489997055,245.43107489997055,245.43107489997055,245.43107489997055,245.43107489997055,245.43107489997055,245.79748139996082,245.79748139996082,245.79748139996082,245.79748139996082,245.79748139996082,245.79748139996082,245.79748139996082,245.79748139996082,245.79748139996082,23,0,,,245.79748139996082,245.9994721999974,1000,245.9994721999974,1000,1000,1000,1000,1,num_2,0.39860329998191446,,25,4,2026-03-04_17h26.10.237,2026A_exp2,2022.2.4,59.91898952315396,
1,0,6.1,0.0,0,0,88,88,47,,,,,246.4149424000061,247.06549539999105,247.06549539999105,247.56666039995616,45,45,247.56666039995616,247.56666039995616,247.56666039995616,247.56666039995616,247.56666039995616,247.56666039995616,247.56666039995616,247.56666039995616,247.56666039995616,247.93286579998676,247.93286579998676,247.93286579998676,247.93286579998676,247.93286579998676,247.93286579998676,247.93286579998676,247.93286579998676,247.93286579998676,23,0,,,247.93286579998676,248.13305509998463,6.1,248.13305509998463,0,6.1,1,0,1000,num_1,0.1933267999556847,,25,4,2026-03-04_17h26.10.237,2026A_exp2,2022.2.4,59.91898952315396,
1,0,0.0,3.7,1,0,89,89,14,,,,,248.35004699998535,249.00062649999745,249.00062649999745,249.48501899995608,315,315,249.48501899995608,249.48501899995608,249.48501899995608,249.48501899995608,249.48501899995608,249.48501899995608,249.48501899995608,249.48501899995608,249.48501899995608,249.85163709998596,249.85163709998596,249.85163709998596,249.85163709998596,249.85163709998596,249.85163709998596,249.85163709998596,249.85163709998596,249.85163709998596,23,0,,,249.85163709998596,250.051808899967,3.7,250.051808899967,0,3.7,1,0,1000,num_1,0.25879249995341524,,25,4,2026-03-04_17h26.10.237,2026A_exp2,2022.2.4,59.91898952315396,
,,,,,,,,,,,,,,,,,,,,,,,,,,,,,,,,,,,,,,,,,,,,,,,,,,,,250.3441957999603,,,,,,,
