validity,detectorcomp,contrastCW,contrastCCW,precueCWorCCW,block_80trials.thisRepN,block_80trials.thisTrialN,block_80trials.thisN,block_80trials.thisIndex,etRecord.started,etRecord.stopped,text.started,text.stopped,text_4.started,text_4.stopped,text_6.started,text_6.stopped,oriCW,oriCCW,roi_2.started,grating_UR.started,grating_UL.started,grating_LR.started,grating_LL.started,noise_UR.started,noise_UL.started,noise_LR.started,noise_LL.started,roi_2.stopped,grating_UR.stopped,grating_UL.stopped,grating_LR.stopped,grating_LL.stopped,noise_UR.stopped,noise_UL.stopped,noise_LR.stopped,noise_LL.stopped,outframe,roi_2.numLooks,roi_2.timesOn,roi_2.timesOff,text_2.started,text_2.stopped,probedcontrast,key_resp.started,respdetect,relevantContrast,correctDetect,TorFdetect,respCWorCCW,key_resp.keys,key_resp.rt,feedback_display_.started,participantNo,blockNo,date,expName,psychopyVersion,frameRate,
1,0,3.7,4.9,1,0,0,0,39,3.510015085339546e-05,3.510015085339546e-05,61.138750300044194,63.15853639994748,63.15853639994748,63.79242830001749,63.79242830001749,64.29414239991456,45,315,64.29414239991456,64.29414239991456,64.29414239991456,64.29414239991456,64.29414239991456,64.29414239991456,64.29414239991456,64.29414239991456,64.29414239991456,64.64322490012273,64.64322490012273,64.64322490012273,64.64322490012273,64.64322490012273,64.64322490012273,64.64322490012273,64.64322490012273,64.64322490012273,13,2,"[0.001010900130495429, 0.20033810008317232]","[0.15027640014886856, 0.21703050006181002]",64.64322490012273,64.84346959996037,4.9,64.84346959996037,1,4.9,1,1,1000,num_4,0.7660640999674797,,35,3,2026-03-13_13h24.23.190,2026A_exp2,2022.2.4,59.87127672279472,
1,0,0.0,0.0,0,0,1,1,59,,,,,65.6275152999442,66.27822740003467,66.27822740003467,66.77931679994799,45,45,66.77931679994799,66.77931679994799,66.77931679994799,66.77931679994799,66.77931679994799,66.77931679994799,66.77931679994799,66.77931679994799,66.77931679994799,67.12898460007273,67.12898460007273,67.12898460007273,67.12898460007273,67.12898460007273,67.12898460007273,67.12898460007273,67.12898460007273,67.12898460007273,4,2,"[0.0012670999858528376, 0.3171757000964135]","[0.2669486999511719, 0.3503273001406342]",67.12898460007273,67.32919459999539,0.0,67.32919459999539,0,0.0,0,1,1000,num_1,1.0006242000963539,,35,3,2026-03-13_13h24.23.190,2026A_exp2,2022.2.4,59.87127672279472,
1,0,0.0,4.9,0,0,2,2,71,,,,,68.3467365000397,68.99759990000166,68.99759990000166,69.48190549993888,315,45,69.48190549993888,69.48190549993888,69.48190549993888,69.48190549993888,69.48190549993888,69.48190549993888,69.48190549993888,69.48190549993888,69.48190549993888,69.8484014000278,69.8484014000278,69.8484014000278,69.8484014000278,69.8484014000278,69.8484014000278,69.8484014000278,69.8484014000278,69.8484014000278,8,6,"[0.001245700055733323, 0.08328910009004176, 0.11671259999275208, 0.14996589999645948, 0.26698950002901256, 0.3337485999800265]","[0.05000549997203052, 0.09975180006586015, 0.13332189992070198, 0.23375450004823506, 0.3171941000036895, 0.3670413000509143]",69.8484014000278,70.0484913000837,0.0,70.0484913000837,0,0.0,0,1,1000,num_1,0.7054695000406355,,35,3,2026-03-13_13h24.23.190,2026A_exp2,2022.2.4,59.87127672279472,
1000,1,4.9,0.0,0,0,3,3,36,,,,,70.78411790006794,71.4431942999363,71.4431942999363,71.93451080005616,315,315,71.93451080005616,71.93451080005616,71.93451080005616,71.93451080005616,71.93451080005616,71.93451080005616,71.93451080005616,71.93451080005616,71.93451080005616,72.30065379990265,72.30065379990265,72.30065379990265,72.30065379990265,72.30065379990265,72.30065379990265,72.30065379990265,72.30065379990265,72.30065379990265,16,5,"[0.15049859997816384, 0.2341121998615563, 0.26738699991256, 0.30079809995368123, 0.3507469999603927]","[0.2007240999955684, 0.25066929985769093, 0.284084300044924, 0.31750439992174506, 0.3675279999151826]",72.30065379990265,72.50591919990256,1000,72.50591919990256,1000,1000,1000,1000,1,num_2,0.791595600079745,,35,3,2026-03-13_13h24.23.190,2026A_exp2,2022.2.4,59.87127672279472,
1,0,0.0,4.9,0,0,4,4,17,,,,,73.31862940010615,73.96899709990248,73.96899709990248,74.47032020008191,45,315,74.47032020008191,74.47032020008191,74.47032020008191,74.47032020008191,74.47032020008191,74.47032020008191,74.47032020008191,74.47032020008191,74.47032020008191,74.83674050006084,74.83674050006084,74.83674050006084,74.83674050006084,74.83674050006084,74.83674050006084,74.83674050006084,74.83674050006084,74.83674050006084,6,6,"[0.0012121000327169895, 0.05026120017282665, 0.08378290012478828, 0.20058180019259453, 0.26717280014418066, 0.31724770017899573]","[0.033645300194621086, 0.06708010006695986, 0.167153500020504, 0.2506919000297785, 0.3008578000590205, 0.3673729000147432]",74.83674050006084,75.03698410000652,0.0,75.03698410000652,0,0.0,0,1,1000,num_1,1.0693463999778032,,35,3,2026-03-13_13h24.23.190,2026A_exp2,2022.2.4,59.87127672279472,
0,0,3.7,0.0,1,0,5,5,83,,,,,76.13798490003683,76.78876730008051,76.78876730008051,77.27315980009735,315,315,77.27315980009735,77.27315980009735,77.27315980009735,77.27315980009735,77.27315980009735,77.27315980009735,77.27315980009735,77.27315980009735,77.27315980009735,77.63952669990249,77.63952669990249,77.63952669990249,77.63952669990249,77.63952669990249,77.63952669990249,77.63952669990249,77.63952669990249,77.63952669990249,7,5,"[0.0012330999597907066, 0.15024319989606738, 0.23378350003622472, 0.28374619991518557, 0.3504530999343842]","[0.11696660006418824, 0.217020999873057, 0.2671932000666857, 0.3170737000182271, 0.3672468999866396]",77.63952669990249,77.83956620004028,3.7,77.83956620004028,0,3.7,1,0,1000,num_1,1.1386180999688804,,35,3,2026-03-13_13h24.23.190,2026A_exp2,2022.2.4,59.87127672279472,
1,0,4.9,4.9,1,0,6,6,89,,,,,79.00740229990333,79.65817290009,79.65817290009,80.14268400007859,315,45,80.14268400007859,80.14268400007859,80.14268400007859,80.14268400007859,80.14268400007859,80.14268400007859,80.14268400007859,80.14268400007859,80.14268400007859,80.50908480002545,80.50908480002545,80.50908480002545,80.50908480002545,80.50908480002545,80.50908480002545,80.50908480002545,80.50908480002545,80.50908480002545,18,4,"[0.1002509999088943, 0.1501037001144141, 0.2503293000627309, 0.2837123000063002]","[0.13347969995811582, 0.16673790011554956, 0.26699050003662705, 0.30047999997623265]",80.50908480002545,80.70935010001995,4.9,80.70935010001995,1,4.9,1,1,1000,num_4,1.7165914999786764,,35,3,2026-03-13_13h24.23.190,2026A_exp2,2022.2.4,59.87127672279472,
1000,1,0.0,0.0,1,0,7,7,47,,,,,82.44420489994809,83.09501249995083,83.09501249995083,83.57942530000582,45,45,83.57942530000582,83.57942530000582,83.57942530000582,83.57942530000582,83.57942530000582,83.57942530000582,83.57942530000582,83.57942530000582,83.57942530000582,83.94585700007156,83.94585700007156,83.94585700007156,83.94585700007156,83.94585700007156,83.94585700007156,83.94585700007156,83.94585700007156,83.94585700007156,22,1,[0.3506819000467658],[0.36735960002988577],83.94585700007156,84.14626690000296,1000,84.14626690000296,1000,1000,1000,1000,1,num_2,0.647315900074318,,35,3,2026-03-13_13h24.23.190,2026A_exp2,2022.2.4,59.87127672279472,
1,0,6.1,0.0,0,0,8,8,50,,,,,84.81358289998025,85.46406230004504,85.46406230004504,85.96508720004931,315,315,85.96508720004931,85.96508720004931,85.96508720004931,85.96508720004931,85.96508720004931,85.96508720004931,85.96508720004931,85.96508720004931,85.96508720004931,86.33156440011226,86.33156440011226,86.33156440011226,86.33156440011226,86.33156440011226,86.33156440011226,86.33156440011226,86.33156440011226,86.33156440011226,22,1,[0.35046530002728105],[0.3673306000418961],86.33156440011226,86.53171400004067,6.1,86.53171400004067,1,6.1,1,1,1000,num_4,0.934164599981159,,35,3,2026-03-13_13h24.23.190,2026A_exp2,2022.2.4,59.87127672279472,
1,0,0.0,6.1,0,0,9,9,5,,,,,87.48279780009761,88.13338080001995,88.13338080001995,88.63436000002548,315,315,88.63436000002548,88.63436000002548,88.63436000002548,88.63436000002548,88.63436000002548,88.63436000002548,88.63436000002548,88.63436000002548,88.63436000002548,88.98403370007873,88.98403370007873,88.98403370007873,88.98403370007873,88.98403370007873,88.98403370007873,88.98403370007873,88.98403370007873,88.98403370007873,19,2,"[0.15031139994971454, 0.18375960015691817]","[0.16669340012595057, 0.21698070014826953]",88.98403370007873,89.18428010004573,0.0,89.18428010004573,0,0.0,0,1,1000,num_1,0.6495529999956489,,35,3,2026-03-13_13h24.23.190,2026A_exp2,2022.2.4,59.87127672279472,
1000,1,4.9,3.7,1,0,10,10,67,,,,,89.85154740000144,90.50240110000595,90.50240110000595,90.99415679997765,315,315,90.99415679997765,90.99415679997765,90.99415679997765,90.99415679997765,90.99415679997765,90.99415679997765,90.99415679997765,90.99415679997765,90.99415679997765,91.3531714999117,91.3531714999117,91.3531714999117,91.3531714999117,91.3531714999117,91.3531714999117,91.3531714999117,91.3531714999117,91.3531714999117,21,2,"[0.2494149999693036, 0.3662357998546213]","[0.26618719985708594, 0.36624419991858304]",91.3531714999117,91.5625448001083,1000,91.5625448001083,1000,1000,1000,1000,1,num_2,1.1199558998923749,,35,3,2026-03-13_13h24.23.190,2026A_exp2,2022.2.4,59.87127672279472,
1,0,0.0,3.7,0,0,11,11,12,,,,,92.70468470011838,93.35527390008792,93.35527390008792,93.8562350999564,45,315,93.8562350999564,93.8562350999564,93.8562350999564,93.8562350999564,93.8562350999564,93.8562350999564,93.8562350999564,93.8562350999564,93.8562350999564,94.22281359997578,94.22281359997578,94.22281359997578,94.22281359997578,94.22281359997578,94.22281359997578,94.22281359997578,94.22281359997578,94.22281359997578,20,3,"[0.15026700007729232, 0.18364590010605752, 0.3499502001795918]","[0.16719710011966527, 0.2002744001802057, 0.3665925001259893]",94.22281359997578,94.42360939993523,0.0,94.42360939993523,0,0.0,0,1,1000,num_1,1.2914413001853973,,35,3,2026-03-13_13h24.23.190,2026A_exp2,2022.2.4,59.87127672279472,
1000,1,6.1,0.0,1,0,12,12,60,,,,,95.74085290008225,96.39168399991468,96.39168399991468,96.89275470003486,315,315,96.89275470003486,96.89275470003486,96.89275470003486,96.89275470003486,96.89275470003486,96.89275470003486,96.89275470003486,96.89275470003486,96.89275470003486,97.25907550007105,97.25907550007105,97.25907550007105,97.25907550007105,97.25907550007105,97.25907550007105,97.25907550007105,97.25907550007105,97.25907550007105,22,1,[0.2337007001042366],[0.25045179994776845],97.25907550007105,97.4613723999355,1000,97.4613723999355,1000,1000,1000,1000,0,num_3,0.7412935998290777,,35,3,2026-03-13_13h24.23.190,2026A_exp2,2022.2.4,59.87127672279472,
1,0,0.0,3.7,1,0,13,13,57,,,,,98.22699910006486,98.87766960007139,98.87766960007139,99.37853009998798,315,315,99.37853009998798,99.37853009998798,99.37853009998798,99.37853009998798,99.37853009998798,99.37853009998798,99.37853009998798,99.37853009998798,99.37853009998798,99.74485570006073,99.74485570006073,99.74485570006073,99.74485570006073,99.74485570006073,99.74485570006073,99.74485570006073,99.74485570006073,99.74485570006073,23,0,,,99.74485570006073,99.94513130001724,3.7,99.94513130001724,1,3.7,1,1,1000,num_4,2.8889111999887973,,35,3,2026-03-13_13h24.23.190,2026A_exp2,2022.2.4,59.87127672279472,
1000,1,0.0,6.1,0,0,14,14,34,,,,,102.86469789990224,103.51548899989575,103.51548899989575,103.99986799992621,45,315,103.99986799992621,103.99986799992621,103.99986799992621,103.99986799992621,103.99986799992621,103.99986799992621,103.99986799992621,103.99986799992621,103.99986799992621,104.36626140004955,104.36626140004955,104.36626140004955,104.36626140004955,104.36626140004955,104.36626140004955,104.36626140004955,104.36626140004955,104.36626140004955,23,0,,,104.36626140004955,104.56654580007307,1000,104.56654580007307,1000,1000,1000,1000,0,num_3,0.6284387998748571,,35,3,2026-03-13_13h24.23.190,2026A_exp2,2022.2.4,59.87127672279472,
1000,1,0.0,4.9,1,0,15,15,51,,,,,105.21697610011324,105.86778740002774,105.86778740002774,106.36875599995255,45,45,106.36875599995255,106.36875599995255,106.36875599995255,106.36875599995255,106.36875599995255,106.36875599995255,106.36875599995255,106.36875599995255,106.36875599995255,106.73518240009435,106.73518240009435,106.73518240009435,106.73518240009435,106.73518240009435,106.73518240009435,106.73518240009435,106.73518240009435,106.73518240009435,18,3,"[0.16720270016230643, 0.26719600008800626, 0.3339222001377493]","[0.20039599994197488, 0.2839804000686854, 0.3672198001295328]",106.73518240009435,106.93746010004543,1000,106.93746010004543,1000,1000,1000,1000,1,num_2,0.6005304001737386,,35,3,2026-03-13_13h24.23.190,2026A_exp2,2022.2.4,59.87127672279472,
1,0,0.0,3.7,0,0,16,16,78,,,,,107.56973129999824,108.22013800009154,108.22013800009154,108.70458490005694,315,45,108.70458490005694,108.70458490005694,108.70458490005694,108.70458490005694,108.70458490005694,108.70458490005694,108.70458490005694,108.70458490005694,108.70458490005694,109.07095650001429,109.07095650001429,109.07095650001429,109.07095650001429,109.07095650001429,109.07095650001429,109.07095650001429,109.07095650001429,109.07095650001429,23,0,,,109.07095650001429,109.27113669994287,0.0,109.27113669994287,0,0.0,0,1,1000,num_1,0.8105165001470596,,35,3,2026-03-13_13h24.23.190,2026A_exp2,2022.2.4,59.87127672279472,
1000,1,4.9,0.0,1,0,17,17,72,,,,,110.10512330010533,110.75600249995477,110.75600249995477,111.24034609994851,45,315,111.24034609994851,111.24034609994851,111.24034609994851,111.24034609994851,111.24034609994851,111.24034609994851,111.24034609994851,111.24034609994851,111.24034609994851,111.60686359996907,111.60686359996907,111.60686359996907,111.60686359996907,111.60686359996907,111.60686359996907,111.60686359996907,111.60686359996907,111.60686359996907,19,3,"[0.10033620009198785, 0.25047410000115633, 0.35023660003207624]","[0.11700510000810027, 0.299984100041911, 0.3667725999839604]",111.60686359996907,111.80873799999245,1000,111.80873799999245,1000,1000,1000,1000,0,num_3,1.001379600027576,,35,3,2026-03-13_13h24.23.190,2026A_exp2,2022.2.4,59.87127672279472,
1,0,0.0,0.0,0,0,18,18,64,,,,,112.84139539999887,113.49195299996063,113.49195299996063,113.99308679997921,315,315,113.99308679997921,113.99308679997921,113.99308679997921,113.99308679997921,113.99308679997921,113.99308679997921,113.99308679997921,113.99308679997921,113.99308679997921,114.34351240005344,114.34351240005344,114.34351240005344,114.34351240005344,114.34351240005344,114.34351240005344,114.34351240005344,114.34351240005344,114.34351240005344,10,5,"[0.0012580000329762697, 0.06699269986711442, 0.13348939991556108, 0.26687419996596873, 0.35026119998656213]","[0.03340059984475374, 0.10004809987731278, 0.21699079987592995, 0.3004479999653995, 0.35026609990745783]",114.34351240005344,114.5430280000437,0.0,114.5430280000437,0,0.0,0,1,1000,num_1,0.7393817000556737,,35,3,2026-03-13_13h24.23.190,2026A_exp2,2022.2.4,59.87127672279472,
1,0,0.0,0.0,0,0,19,19,2,,,,,115.31043569999747,115.96118149999529,115.96118149999529,116.44548209989443,45,45,116.44548209989443,116.44548209989443,116.44548209989443,116.44548209989443,116.44548209989443,116.44548209989443,116.44548209989443,116.44548209989443,116.44548209989443,116.81196599989198,116.81196599989198,116.81196599989198,116.81196599989198,116.81196599989198,116.81196599989198,116.81196599989198,116.81196599989198,116.81196599989198,15,3,"[0.0012589001562446356, 0.23362990003079176, 0.3671169001609087]","[0.08359150006435812, 0.25034320005215704, 0.3671218000818044]",116.81196599989198,117.02603200008161,0.0,117.02603200008161,0,0.0,0,1,1000,num_1,1.216784100048244,,35,3,2026-03-13_13h24.23.190,2026A_exp2,2022.2.4,59.87127672279472,
1000,1,0.0,0.0,1,0,20,20,14,,,,,118.26339600002393,118.91407459997572,118.91407459997572,119.39846280007623,45,315,119.39846280007623,119.39846280007623,119.39846280007623,119.39846280007623,119.39846280007623,119.39846280007623,119.39846280007623,119.39846280007623,119.39846280007623,119.76501159998588,119.76501159998588,119.76501159998588,119.76501159998588,119.76501159998588,119.76501159998588,119.76501159998588,119.76501159998588,119.76501159998588,23,0,,,119.76501159998588,119.96687810006551,1000,119.96687810006551,1000,1000,1000,1000,0,num_3,0.7628007000312209,,35,3,2026-03-13_13h24.23.190,2026A_exp2,2022.2.4,59.87127672279472,
1,0,0.0,0.0,1,0,21,21,43,,,,,120.74934679991566,121.4001565000508,121.4001565000508,121.90111489989795,45,315,121.90111489989795,121.90111489989795,121.90111489989795,121.90111489989795,121.90111489989795,121.90111489989795,121.90111489989795,121.90111489989795,121.90111489989795,122.2674938000273,122.2674938000273,122.2674938000273,122.2674938000273,122.2674938000273,122.2674938000273,122.2674938000273,122.2674938000273,122.2674938000273,23,0,,,122.2674938000273,122.46767150005326,0.0,122.46767150005326,0,0.0,0,1,1000,num_1,0.9259627999272197,,35,3,2026-03-13_13h24.23.190,2026A_exp2,2022.2.4,59.87127672279472,
1000,1,6.1,3.7,0,0,22,22,87,,,,,123.41842860006727,124.06939340010285,124.06939340010285,124.55357360001653,315,45,124.55357360001653,124.55357360001653,124.55357360001653,124.55357360001653,124.55357360001653,124.55357360001653,124.55357360001653,124.55357360001653,124.55357360001653,124.9201630000025,124.9201630000025,124.9201630000025,124.9201630000025,124.9201630000025,124.9201630000025,124.9201630000025,124.9201630000025,124.9201630000025,23,0,,,124.9201630000025,125.12064060010016,1000,125.12064060010016,1000,1000,1000,1000,1,num_2,0.7848396999761462,,35,3,2026-03-13_13h24.23.190,2026A_exp2,2022.2.4,59.87127672279472,
1000,1,0.0,0.0,0,0,23,23,65,,,,,125.92113310005516,126.57179419999011,126.57179419999011,127.0727192000486,315,45,127.0727192000486,127.0727192000486,127.0727192000486,127.0727192000486,127.0727192000486,127.0727192000486,127.0727192000486,127.0727192000486,127.0727192000486,127.43940669996664,127.43940669996664,127.43940669996664,127.43940669996664,127.43940669996664,127.43940669996664,127.43940669996664,127.43940669996664,127.43940669996664,9,6,"[0.03300000005401671, 0.06678309990093112, 0.13351329998113215, 0.1671541000250727, 0.2835675999522209, 0.35042809997685254]","[0.04956439998932183, 0.10015160008333623, 0.1500689999666065, 0.2668566000647843, 0.33367369999177754, 0.3669082000851631]",127.43940669996664,127.63953120005317,1000,127.63953120005317,1000,1000,1000,1000,1,num_2,0.7539480999112129,,35,3,2026-03-13_13h24.23.190,2026A_exp2,2022.2.4,59.87127672279472,
0,0,0.0,0.0,1,0,24,24,62,,,,,128.423539099982,129.074263199931,129.074263199931,129.5755481000524,315,45,129.5755481000524,129.5755481000524,129.5755481000524,129.5755481000524,129.5755481000524,129.5755481000524,129.5755481000524,129.5755481000524,129.5755481000524,129.94188919989392,129.94188919989392,129.94188919989392,129.94188919989392,129.94188919989392,129.94188919989392,129.94188919989392,129.94188919989392,129.94188919989392,23,0,,,129.94188919989392,130.14208579994738,0.0,130.14208579994738,0,0.0,0,1,1000,num_1,0.6679583000950515,,35,3,2026-03-13_13h24.23.190,2026A_exp2,2022.2.4,59.87127672279472,
1,0,6.1,3.7,0,0,25,25,26,,,,,130.82601570012048,131.47669799998403,131.47669799998403,131.97788530006073,45,315,131.97788530006073,131.97788530006073,131.97788530006073,131.97788530006073,131.97788530006073,131.97788530006073,131.97788530006073,131.97788530006073,131.97788530006073,132.3274620999582,132.3274620999582,132.3274620999582,132.3274620999582,132.3274620999582,132.3274620999582,132.3274620999582,132.3274620999582,132.3274620999582,19,2,"[0.20078209997154772, 0.25085039995610714]","[0.21712759998627007, 0.28393939998932183]",132.3274620999582,132.5278698001057,6.1,132.5278698001057,1,6.1,1,1,1000,num_4,1.393867400009185,,35,3,2026-03-13_13h24.23.190,2026A_exp2,2022.2.4,59.87127672279472,
1,0,4.9,6.1,0,0,26,26,15,,,,,133.94577390002087,134.59654720011167,134.59654720011167,135.0808939000126,45,315,135.0808939000126,135.0808939000126,135.0808939000126,135.0808939000126,135.0808939000126,135.0808939000126,135.0808939000126,135.0808939000126,135.0808939000126,135.4473200000357,135.4473200000357,135.4473200000357,135.4473200000357,135.4473200000357,135.4473200000357,135.4473200000357,135.4473200000357,135.4473200000357,6,3,"[0.0012318999506533146, 0.2503607999533415, 0.33388339984230697]","[0.23329170001670718, 0.283696899889037, 0.3504168998915702]",135.4473200000357,135.6475615000818,4.9,135.6475615000818,0,4.9,1,0,1000,num_1,1.098176500061527,,35,3,2026-03-13_13h24.23.190,2026A_exp2,2022.2.4,59.87127672279472,
1,0,6.1,0.0,1,0,27,27,13,,,,,136.7652241999749,137.41595229995437,137.41595229995437,137.90044070011936,315,45,137.90044070011936,137.90044070011936,137.90044070011936,137.90044070011936,137.90044070011936,137.90044070011936,137.90044070011936,137.90044070011936,137.90044070011936,138.26713620009832,138.26713620009832,138.26713620009832,138.26713620009832,138.26713620009832,138.26713620009832,138.26713620009832,138.26713620009832,138.26713620009832,23,0,,,138.26713620009832,138.47063159989193,0.0,138.47063159989193,0,0.0,0,1,1000,num_1,0.9158719000406563,,35,3,2026-03-13_13h24.23.190,2026A_exp2,2022.2.4,59.87127672279472,
1,0,0.0,0.0,1,0,28,28,66,,,,,139.41789739998057,140.0685765000526,140.0685765000526,140.55294080008753,45,315,140.55294080008753,140.55294080008753,140.55294080008753,140.55294080008753,140.55294080008753,140.55294080008753,140.55294080008753,140.55294080008753,140.55294080008753,140.9194449998904,140.9194449998904,140.9194449998904,140.9194449998904,140.9194449998904,140.9194449998904,140.9194449998904,140.9194449998904,140.9194449998904,21,2,"[0.06695290002971888, 0.13363509997725487]","[0.08360409992747009, 0.15045029995962977]",140.9194449998904,141.1196276000701,0.0,141.1196276000701,0,0.0,0,1,1000,num_1,0.7232437999919057,,35,3,2026-03-13_13h24.23.190,2026A_exp2,2022.2.4,59.87127672279472,
1,0,4.9,6.1,1,0,29,29,46,,,,,141.87036140006967,142.5209596999921,142.5209596999921,143.0055748000741,45,45,143.0055748000741,143.0055748000741,143.0055748000741,143.0055748000741,143.0055748000741,143.0055748000741,143.0055748000741,143.0055748000741,143.0055748000741,143.37179189990275,143.37179189990275,143.37179189990275,143.37179189990275,143.37179189990275,143.37179189990275,143.37179189990275,143.37179189990275,143.37179189990275,23,0,,,143.37179189990275,143.5720051000826,6.1,143.5720051000826,1,6.1,1,1,1000,num_4,0.41436020005494356,,35,3,2026-03-13_13h24.23.190,2026A_exp2,2022.2.4,59.87127672279472,
1000,1,0.0,0.0,0,0,30,30,61,,,,,144.00576890003867,144.65638400008902,144.65638400008902,145.14101219992153,45,315,145.14101219992153,145.14101219992153,145.14101219992153,145.14101219992153,145.14101219992153,145.14101219992153,145.14101219992153,145.14101219992153,145.14101219992153,145.5074374000542,145.5074374000542,145.5074374000542,145.5074374000542,145.5074374000542,145.5074374000542,145.5074374000542,145.5074374000542,145.5074374000542,18,3,"[0.0837884999345988, 0.16707369987852871, 0.23388840002007782]","[0.11714819981716573, 0.2005590999033302, 0.2505649998784065]",145.5074374000542,145.71003050007857,1000,145.71003050007857,1000,1000,1000,1000,0,num_3,0.6046764999628067,,35,3,2026-03-13_13h24.23.190,2026A_exp2,2022.2.4,59.87127672279472,
1000,1,6.1,4.9,1,0,31,31,53,,,,,146.3415884000715,146.99189590010792,146.99189590010792,147.47679099999368,315,315,147.47679099999368,147.47679099999368,147.47679099999368,147.47679099999368,147.47679099999368,147.47679099999368,147.47679099999368,147.47679099999368,147.47679099999368,147.8431100999005,147.8431100999005,147.8431100999005,147.8431100999005,147.8431100999005,147.8431100999005,147.8431100999005,147.8431100999005,147.8431100999005,23,0,,,147.8431100999005,148.04521979996935,1000,148.04521979996935,1000,1000,1000,1000,1,num_2,0.5808632001280785,,35,3,2026-03-13_13h24.23.190,2026A_exp2,2022.2.4,59.87127672279472,
1,0,0.0,0.0,0,0,32,32,49,,,,,148.6436978999991,149.29440040001646,149.29440040001646,149.7956264000386,315,315,149.7956264000386,149.7956264000386,149.7956264000386,149.7956264000386,149.7956264000386,149.7956264000386,149.7956264000386,149.7956264000386,149.7956264000386,150.1621226000134,150.1621226000134,150.1621226000134,150.1621226000134,150.1621226000134,150.1621226000134,150.1621226000134,150.1621226000134,150.1621226000134,23,0,,,150.1621226000134,150.3622944999952,0.0,150.3622944999952,0,0.0,0,1,1000,num_1,0.5760760998819023,,35,3,2026-03-13_13h24.23.190,2026A_exp2,2022.2.4,59.87127672279472,
1000,1,0.0,0.0,1,0,33,33,7,,,,,150.9629460000433,151.61346750007942,151.61346750007942,152.09827860002406,45,45,152.09827860002406,152.09827860002406,152.09827860002406,152.09827860002406,152.09827860002406,152.09827860002406,152.09827860002406,152.09827860002406,152.09827860002406,152.464429799933,152.464429799933,152.464429799933,152.464429799933,152.464429799933,152.464429799933,152.464429799933,152.464429799933,152.464429799933,23,0,,,152.464429799933,152.6662781999912,1000,152.6662781999912,1000,1000,1000,1000,0,num_3,0.7593511000741273,,35,3,2026-03-13_13h24.23.190,2026A_exp2,2022.2.4,59.87127672279472,
1,0,4.9,0.0,1,0,34,34,4,,,,,153.44856150005944,154.09930730005726,154.09930730005726,154.60050830012187,315,315,154.60050830012187,154.60050830012187,154.60050830012187,154.60050830012187,154.60050830012187,154.60050830012187,154.60050830012187,154.60050830012187,154.60050830012187,154.95004780008458,154.95004780008458,154.95004780008458,154.95004780008458,154.95004780008458,154.95004780008458,154.95004780008458,154.95004780008458,154.95004780008458,22,0,,,154.95004780008458,155.15039590001106,0.0,155.16696349997073,0,0.0,0,1,1000,num_1,0.914991500088945,,35,3,2026-03-13_13h24.23.190,2026A_exp2,2022.2.4,59.87127672279472,
1,0,4.9,0.0,1,0,35,35,82,,,,,156.10115720005706,156.7519169000443,156.7519169000443,157.2529615999665,45,315,157.2529615999665,157.2529615999665,157.2529615999665,157.2529615999665,157.2529615999665,157.2529615999665,157.2529615999665,157.2529615999665,157.2529615999665,157.60277940006927,157.60277940006927,157.60277940006927,157.60277940006927,157.60277940006927,157.60277940006927,157.60277940006927,157.60277940006927,157.60277940006927,22,0,,,157.60277940006927,157.80308019998483,0.0,157.80308019998483,0,0.0,0,1,1000,num_1,1.0637270000297576,,35,3,2026-03-13_13h24.23.190,2026A_exp2,2022.2.4,59.87127672279472,
1000,1,3.7,3.7,1,0,36,36,40,,,,,158.88734759995714,159.53806079993956,159.53806079993956,160.03927580011077,315,315,160.03927580011077,160.03927580011077,160.03927580011077,160.03927580011077,160.03927580011077,160.03927580011077,160.03927580011077,160.03927580011077,160.03927580011077,160.40535979997367,160.40535979997367,160.40535979997367,160.40535979997367,160.40535979997367,160.40535979997367,160.40535979997367,160.40535979997367,160.40535979997367,23,0,,,160.40535979997367,160.6056649000384,1000,160.6056649000384,1000,1000,1000,1000,0,num_3,0.8128599999472499,,35,3,2026-03-13_13h24.23.190,2026A_exp2,2022.2.4,59.87127672279472,
1,0,0.0,0.0,0,0,37,37,81,,,,,161.43988609989174,162.09070850000717,162.09070850000717,162.59177029994316,315,315,162.59177029994316,162.59177029994316,162.59177029994316,162.59177029994316,162.59177029994316,162.59177029994316,162.59177029994316,162.59177029994316,162.59177029994316,162.95800210000016,162.95800210000016,162.95800210000016,162.95800210000016,162.95800210000016,162.95800210000016,162.95800210000016,162.95800210000016,162.95800210000016,23,0,,,162.95800210000016,163.15847199992277,0.0,163.15847199992277,0,0.0,0,1,1000,num_1,1.4592176999431103,,35,3,2026-03-13_13h24.23.190,2026A_exp2,2022.2.4,59.87127672279472,
1000,1,6.1,0.0,0,0,38,38,19,,,,,164.64317609998398,165.29406019998714,165.29406019998714,165.77817020006478,45,45,165.77817020006478,165.77817020006478,165.77817020006478,165.77817020006478,165.77817020006478,165.77817020006478,165.77817020006478,165.77817020006478,165.77817020006478,166.14456110005267,166.14456110005267,166.14456110005267,166.14456110005267,166.14456110005267,166.14456110005267,166.14456110005267,166.14456110005267,166.14456110005267,23,0,,,166.14456110005267,166.34482689993456,1000,166.34482689993456,1000,1000,1000,1000,0,num_3,0.9931699000298977,,35,3,2026-03-13_13h24.23.190,2026A_exp2,2022.2.4,59.87127672279472,
1,0,4.9,0.0,0,0,39,39,48,,,,,167.3624716999475,168.013107100036,168.013107100036,168.5142932999879,315,45,168.5142932999879,168.5142932999879,168.5142932999879,168.5142932999879,168.5142932999879,168.5142932999879,168.5142932999879,168.5142932999879,168.5142932999879,168.86391970003024,168.86391970003024,168.86391970003024,168.86391970003024,168.86391970003024,168.86391970003024,168.86391970003024,168.86391970003024,168.86391970003024,22,0,,,168.86391970003024,169.0646238999907,4.9,169.08095590001903,1,4.9,1,1,1000,num_4,0.7292524999938905,,35,3,2026-03-13_13h24.23.190,2026A_exp2,2022.2.4,59.87127672279472,
1,0,0.0,0.0,1,0,40,40,41,,,,,169.83164280001074,170.48249830002896,170.48249830002896,170.96754209999926,45,315,170.96754209999926,170.96754209999926,170.96754209999926,170.96754209999926,170.96754209999926,170.96754209999926,170.96754209999926,170.96754209999926,170.96754209999926,171.3333451000508,171.3333451000508,171.3333451000508,171.3333451000508,171.3333451000508,171.3333451000508,171.3333451000508,171.3333451000508,171.3333451000508,23,0,,,171.3333451000508,171.53318880009465,0.0,171.53318880009465,0,0.0,0,1,1000,num_1,0.5326098999939859,,35,3,2026-03-13_13h24.23.190,2026A_exp2,2022.2.4,59.87127672279472,
0,0,4.9,0.0,0,0,41,41,30,,,,,172.08411230007187,172.7347776000388,172.7347776000388,173.21917459997348,315,45,173.21917459997348,173.21917459997348,173.21917459997348,173.21917459997348,173.21917459997348,173.21917459997348,173.21917459997348,173.21917459997348,173.21917459997348,173.585265400121,173.585265400121,173.585265400121,173.585265400121,173.585265400121,173.585265400121,173.585265400121,173.585265400121,173.585265400121,23,0,,,173.585265400121,173.78567899996415,0.0,173.78567899996415,1,0.0,0,0,1000,num_4,0.7848789999261498,,35,3,2026-03-13_13h24.23.190,2026A_exp2,2022.2.4,59.87127672279472,
1000,1,0.0,0.0,0,0,42,42,75,,,,,174.5864186999388,175.23703090008348,175.23703090008348,175.72152879997157,315,315,175.72152879997157,175.72152879997157,175.72152879997157,175.72152879997157,175.72152879997157,175.72152879997157,175.72152879997157,175.72152879997157,175.72152879997157,176.08793679997325,176.08793679997325,176.08793679997325,176.08793679997325,176.08793679997325,176.08793679997325,176.08793679997325,176.08793679997325,176.08793679997325,23,0,,,176.08793679997325,176.28996789990924,1000,176.28996789990924,1000,1000,1000,1000,1,num_2,0.904340700013563,,35,3,2026-03-13_13h24.23.190,2026A_exp2,2022.2.4,59.87127672279472,
1,0,0.0,0.0,0,0,43,43,38,,,,,177.22237029997632,177.8730752998963,177.8730752998963,178.3741919999011,315,45,178.3741919999011,178.3741919999011,178.3741919999011,178.3741919999011,178.3741919999011,178.3741919999011,178.3741919999011,178.3741919999011,178.3741919999011,178.72416039998643,178.72416039998643,178.72416039998643,178.72416039998643,178.72416039998643,178.72416039998643,178.72416039998643,178.72416039998643,178.72416039998643,22,0,,,178.72416039998643,178.92393509997055,0.0,178.94040410011075,0,0.0,0,1,1000,num_1,0.8299177000299096,,35,3,2026-03-13_13h24.23.190,2026A_exp2,2022.2.4,59.87127672279472,
1,0,0.0,0.0,1,0,44,44,73,,,,,179.79158540000208,180.4424364999868,180.4424364999868,180.92683880007826,45,315,180.92683880007826,180.92683880007826,180.92683880007826,180.92683880007826,180.92683880007826,180.92683880007826,180.92683880007826,180.92683880007826,180.92683880007826,181.29306080006063,181.29306080006063,181.29306080006063,181.29306080006063,181.29306080006063,181.29306080006063,181.29306080006063,181.29306080006063,181.29306080006063,23,0,,,181.29306080006063,181.49368420010433,0.0,181.49368420010433,0,0.0,0,1,1000,num_1,0.9966857999097556,,35,3,2026-03-13_13h24.23.190,2026A_exp2,2022.2.4,59.87127672279472,
1,0,0.0,0.0,1,0,45,45,18,,,,,182.5109083999414,183.1617125000339,183.1617125000339,183.6460923999548,45,315,183.6460923999548,183.6460923999548,183.6460923999548,183.6460923999548,183.6460923999548,183.6460923999548,183.6460923999548,183.6460923999548,183.6460923999548,184.01258799992502,184.01258799992502,184.01258799992502,184.01258799992502,184.01258799992502,184.01258799992502,184.01258799992502,184.01258799992502,184.01258799992502,16,4,"[0.10033369995653629, 0.15044860006310046, 0.2838777999859303, 0.36730000004172325]","[0.11693229991942644, 0.18373519997112453, 0.3506446999963373, 0.3673052000813186]",184.01258799992502,184.21274120011367,0.0,184.21274120011367,0,0.0,0,1,1000,num_1,0.6621562999207526,,35,3,2026-03-13_13h24.23.190,2026A_exp2,2022.2.4,59.87127672279472,
1000,1,0.0,4.9,1,0,46,46,27,,,,,184.8966409000568,185.54728369996883,185.54728369996883,186.03184340009466,45,45,186.03184340009466,186.03184340009466,186.03184340009466,186.03184340009466,186.03184340009466,186.03184340009466,186.03184340009466,186.03184340009466,186.03184340009466,186.39831009996124,186.39831009996124,186.39831009996124,186.39831009996124,186.39831009996124,186.39831009996124,186.39831009996124,186.39831009996124,186.39831009996124,23,0,,,186.39831009996124,186.60029640002176,1000,186.60029640002176,1000,1000,1000,1000,0,num_3,0.7693213999737054,,35,3,2026-03-13_13h24.23.190,2026A_exp2,2022.2.4,59.87127672279472,
1,0,0.0,6.1,0,0,47,47,68,,,,,187.39925289992243,188.04990099999122,188.04990099999122,188.5509520000778,315,45,188.5509520000778,188.5509520000778,188.5509520000778,188.5509520000778,188.5509520000778,188.5509520000778,188.5509520000778,188.5509520000778,188.5509520000778,188.9174782000482,188.9174782000482,188.9174782000482,188.9174782000482,188.9174782000482,188.9174782000482,188.9174782000482,188.9174782000482,188.9174782000482,21,2,"[0.1670522999484092, 0.2171658999286592]","[0.18367009982466698, 0.23374479985795915]",188.9174782000482,189.11770660011098,0.0,189.11770660011098,0,0.0,0,1,1000,num_1,0.7644461998715997,,35,3,2026-03-13_13h24.23.190,2026A_exp2,2022.2.4,59.87127672279472,
1000,1,6.1,4.9,1,0,48,48,16,,,,,189.90172549989074,190.55233859992586,190.55233859992586,191.03687310009263,315,45,191.03687310009263,191.03687310009263,191.03687310009263,191.03687310009263,191.03687310009263,191.03687310009263,191.03687310009263,191.03687310009263,191.03687310009263,191.4031156001147,191.4031156001147,191.4031156001147,191.4031156001147,191.4031156001147,191.4031156001147,191.4031156001147,191.4031156001147,191.4031156001147,23,0,,,191.4031156001147,191.6058646000456,1000,191.6058646000456,1000,1000,1000,1000,0,num_3,0.6202992000617087,,35,3,2026-03-13_13h24.23.190,2026A_exp2,2022.2.4,59.87127672279472,
1,0,3.7,0.0,1,0,49,49,74,,,,,192.25410000002012,192.9047894999385,192.9047894999385,193.40591130009852,45,315,193.40591130009852,193.40591130009852,193.40591130009852,193.40591130009852,193.40591130009852,193.40591130009852,193.40591130009852,193.40591130009852,193.40591130009852,193.77244609990157,193.77244609990157,193.77244609990157,193.77244609990157,193.77244609990157,193.77244609990157,193.77244609990157,193.77244609990157,193.77244609990157,23,0,,,193.77244609990157,193.97237870004028,0.0,193.97237870004028,0,0.0,0,1,1000,num_1,0.6938306998927146,,35,3,2026-03-13_13h24.23.190,2026A_exp2,2022.2.4,59.87127672279472,
1000,1,0.0,4.9,0,0,50,50,77,,,,,194.6897539999336,195.34062030003406,195.34062030003406,195.82505189999938,45,315,195.82505189999938,195.82505189999938,195.82505189999938,195.82505189999938,195.82505189999938,195.82505189999938,195.82505189999938,195.82505189999938,195.82505189999938,196.19134610006586,196.19134610006586,196.19134610006586,196.19134610006586,196.19134610006586,196.19134610006586,196.19134610006586,196.19134610006586,196.19134610006586,23,0,,,196.19134610006586,196.391718900064,1000,196.391718900064,1000,1000,1000,1000,0,num_3,0.5550314001739025,,35,3,2026-03-13_13h24.23.190,2026A_exp2,2022.2.4,59.87127672279472,
1,0,4.9,6.1,1,0,51,51,86,,,,,196.9754025998991,197.6261537000537,197.6261537000537,198.12753539998084,315,45,198.12753539998084,198.12753539998084,198.12753539998084,198.12753539998084,198.12753539998084,198.12753539998084,198.12753539998084,198.12753539998084,198.12753539998084,198.49365979991853,198.49365979991853,198.49365979991853,198.49365979991853,198.49365979991853,198.49365979991853,198.49365979991853,198.49365979991853,198.49365979991853,23,0,,,198.49365979991853,198.69369450001977,6.1,198.69369450001977,1,6.1,1,1,1000,num_4,0.7089961997698992,,35,3,2026-03-13_13h24.23.190,2026A_exp2,2022.2.4,59.87127672279472,
1000,1,0.0,3.7,0,0,52,52,44,,,,,199.42782200011425,200.07846289989538,200.07846289989538,200.56309650000185,45,45,200.56309650000185,200.56309650000185,200.56309650000185,200.56309650000185,200.56309650000185,200.56309650000185,200.56309650000185,200.56309650000185,200.56309650000185,200.92930860002525,200.92930860002525,200.92930860002525,200.92930860002525,200.92930860002525,200.92930860002525,200.92930860002525,200.92930860002525,200.92930860002525,15,4,"[0.05005749990232289, 0.20034549990668893, 0.25032350001856685, 0.3672789998818189]","[0.10003539989702404, 0.23370119999162853, 0.28368530003353953, 0.36728399991989136]",200.92930860002525,201.13155080005527,1000,201.13155080005527,1000,1000,1000,1000,0,num_3,0.790947400033474,,35,3,2026-03-13_13h24.23.190,2026A_exp2,2022.2.4,59.87127672279472,
0,0,0.0,6.1,1,0,53,53,76,,,,,201.94714629999362,202.5977666999679,202.5977666999679,203.09887419990264,315,45,203.09887419990264,203.09887419990264,203.09887419990264,203.09887419990264,203.09887419990264,203.09887419990264,203.09887419990264,203.09887419990264,203.09887419990264,203.44850050006062,203.44850050006062,203.44850050006062,203.44850050006062,203.44850050006062,203.44850050006062,203.44850050006062,203.44850050006062,203.44850050006062,22,0,,,203.44850050006062,203.6488578999415,0.0,203.66554410010576,0,0.0,0,1,1000,num_1,3.8568239000160247,,35,3,2026-03-13_13h24.23.190,2026A_exp2,2022.2.4,59.87127672279472,
1000,1,4.9,0.0,1,0,54,54,25,,,,,207.55287709995173,208.18673680000938,208.18673680000938,208.68773490004241,45,45,208.68773490004241,208.68773490004241,208.68773490004241,208.68773490004241,208.68773490004241,208.68773490004241,208.68773490004241,208.68773490004241,208.68773490004241,209.05458980007097,209.05458980007097,209.05458980007097,209.05458980007097,209.05458980007097,209.05458980007097,209.05458980007097,209.05458980007097,209.05458980007097,23,0,,,209.05458980007097,209.2563938999083,1000,209.2563938999083,1000,1000,1000,1000,0,num_3,0.9460857999511063,,35,3,2026-03-13_13h24.23.190,2026A_exp2,2022.2.4,59.87127672279472,
1000,1,0.0,0.0,1,0,55,55,23,,,,,210.22208230011165,210.8727659001015,210.8727659001015,211.37386139994487,315,315,211.37386139994487,211.37386139994487,211.37386139994487,211.37386139994487,211.37386139994487,211.37386139994487,211.37386139994487,211.37386139994487,211.37386139994487,211.7401918999385,211.7401918999385,211.7401918999385,211.7401918999385,211.7401918999385,211.7401918999385,211.7401918999385,211.7401918999385,211.7401918999385,23,0,,,211.7401918999385,211.94206529995427,1000,211.94206529995427,1000,1000,1000,1000,1,num_2,0.5322515999432653,,35,3,2026-03-13_13h24.23.190,2026A_exp2,2022.2.4,59.87127672279472,
1000,1,4.9,4.9,0,0,56,56,31,,,,,212.49096149997786,213.14173660008237,213.14173660008237,213.62607329990715,315,45,213.62607329990715,213.62607329990715,213.62607329990715,213.62607329990715,213.62607329990715,213.62607329990715,213.62607329990715,213.62607329990715,213.62607329990715,213.992524900008,213.992524900008,213.992524900008,213.992524900008,213.992524900008,213.992524900008,213.992524900008,213.992524900008,213.992524900008,23,0,,,213.992524900008,214.19445890001953,1000,214.19445890001953,1000,1000,1000,1000,0,num_3,0.7445988000836223,,35,3,2026-03-13_13h24.23.190,2026A_exp2,2022.2.4,59.87127672279472,
0,0,0.0,4.9,0,0,57,57,54,,,,,214.96446250006557,215.6107328000944,215.6107328000944,216.11195129994303,45,45,216.11195129994303,216.11195129994303,216.11195129994303,216.11195129994303,216.11195129994303,216.11195129994303,216.11195129994303,216.11195129994303,216.11195129994303,216.4783991998993,216.4783991998993,216.4783991998993,216.4783991998993,216.4783991998993,216.4783991998993,216.4783991998993,216.4783991998993,216.4783991998993,22,1,[0.2838297998532653],[0.30051960004493594],216.4783991998993,216.6782110000495,4.9,216.6782110000495,0,4.9,1,0,1000,num_1,0.6278617999050766,,35,3,2026-03-13_13h24.23.190,2026A_exp2,2022.2.4,59.87127672279472,
1000,1,4.9,0.0,0,0,58,58,58,,,,,217.32900690007955,217.97979349992238,217.97979349992238,218.46439519990236,315,45,218.46439519990236,218.46439519990236,218.46439519990236,218.46439519990236,218.46439519990236,218.46439519990236,218.46439519990236,218.46439519990236,218.46439519990236,218.83062650007196,218.83062650007196,218.83062650007196,218.83062650007196,218.83062650007196,218.83062650007196,218.83062650007196,218.83062650007196,218.83062650007196,23,0,,,218.83062650007196,219.03281129989773,1000,219.03281129989773,1000,1000,1000,1000,1,num_2,0.8891946999356151,,35,3,2026-03-13_13h24.23.190,2026A_exp2,2022.2.4,59.87127672279472,
1000,1,4.9,4.9,0,0,59,59,42,,,,,219.9483930999413,220.59878470003605,220.59878470003605,221.10017400002107,315,45,221.10017400002107,221.10017400002107,221.10017400002107,221.10017400002107,221.10017400002107,221.10017400002107,221.10017400002107,221.10017400002107,221.10017400002107,221.46671649999917,221.46671649999917,221.46671649999917,221.46671649999917,221.46671649999917,221.46671649999917,221.46671649999917,221.46671649999917,221.46671649999917,23,0,,,221.46671649999917,221.66864020004869,1000,221.66864020004869,1000,1000,1000,1000,1,num_2,0.6532658999785781,,35,3,2026-03-13_13h24.23.190,2026A_exp2,2022.2.4,59.87127672279472,
1000,1,0.0,3.7,0,0,60,60,52,,,,,222.35096630011685,223.00143599999137,223.00143599999137,223.48605070007034,45,315,223.48605070007034,223.48605070007034,223.48605070007034,223.48605070007034,223.48605070007034,223.48605070007034,223.48605070007034,223.48605070007034,223.48605070007034,223.85237429989502,223.85237429989502,223.85237429989502,223.85237429989502,223.85237429989502,223.85237429989502,223.85237429989502,223.85237429989502,223.85237429989502,23,0,,,223.85237429989502,224.05508890002966,1000,224.05508890002966,1000,1000,1000,1000,0,num_3,0.7715108999982476,,35,3,2026-03-13_13h24.23.190,2026A_exp2,2022.2.4,59.87127672279472,
1000,1,4.9,0.0,0,0,61,61,22,,,,,224.85336029995233,225.50416120002046,225.50416120002046,226.00518009997904,315,315,226.00518009997904,226.00518009997904,226.00518009997904,226.00518009997904,226.00518009997904,226.00518009997904,226.00518009997904,226.00518009997904,226.00518009997904,226.37152600008994,226.37152600008994,226.37152600008994,226.37152600008994,226.37152600008994,226.37152600008994,226.37152600008994,226.37152600008994,226.37152600008994,16,4,"[0.05030949995853007, 0.08375920006074011, 0.18369000009261072, 0.3005125999916345]","[0.0668602001387626, 0.13387589994817972, 0.20049620000645518, 0.3171147000975907]",226.37152600008994,226.57363329990767,1000,226.57363329990767,1000,1000,1000,1000,1,num_2,1.0044000998605043,,35,3,2026-03-13_13h24.23.190,2026A_exp2,2022.2.4,59.87127672279472,
1,0,0.0,4.9,0,0,62,62,85,,,,,227.6059818000067,228.2567614999134,228.2567614999134,228.7579993000254,45,315,228.7579993000254,228.7579993000254,228.7579993000254,228.7579993000254,228.7579993000254,228.7579993000254,228.7579993000254,228.7579993000254,228.7579993000254,229.10757729993202,229.10757729993202,229.10757729993202,229.10757729993202,229.10757729993202,229.10757729993202,229.10757729993202,229.10757729993202,229.10757729993202,14,3,"[0.0012028999626636505, 0.1335432999767363, 0.30038630007766187]","[0.1001836999785155, 0.15044820006005466, 0.3169023999944329]",229.10757729993202,229.30787919997238,0.0,229.30787919997238,0,0.0,0,1,1000,num_1,0.8147088999394327,,35,3,2026-03-13_13h24.23.190,2026A_exp2,2022.2.4,59.87127672279472,
1000,1,6.1,3.7,1,0,63,63,10,,,,,230.14189719990827,230.79260089993477,230.79260089993477,231.27695830003358,45,45,231.27695830003358,231.27695830003358,231.27695830003358,231.27695830003358,231.27695830003358,231.27695830003358,231.27695830003358,231.27695830003358,231.27695830003358,231.6434851998929,231.6434851998929,231.6434851998929,231.6434851998929,231.6434851998929,231.6434851998929,231.6434851998929,231.6434851998929,231.6434851998929,17,2,"[0.0012517001014202833, 0.1337550999596715]","[0.050279099959880114, 0.18361430009827018]",231.6434851998929,231.8460180000402,1000,231.8460180000402,1000,1000,1000,1000,1,num_2,0.6837150999344885,,35,3,2026-03-13_13h24.23.190,2026A_exp2,2022.2.4,59.87127672279472,
1,0,6.1,4.9,1,0,64,64,35,,,,,232.56123080011457,233.21172260004096,233.21172260004096,233.7125570999924,315,315,233.7125570999924,233.7125570999924,233.7125570999924,233.7125570999924,233.7125570999924,233.7125570999924,233.7125570999924,233.7125570999924,233.7125570999924,234.07936679990962,234.07936679990962,234.07936679990962,234.07936679990962,234.07936679990962,234.07936679990962,234.07936679990962,234.07936679990962,234.07936679990962,23,0,,,234.07936679990962,234.2794159001205,4.9,234.2794159001205,1,4.9,1,1,1000,num_4,0.7864423000719398,,35,3,2026-03-13_13h24.23.190,2026A_exp2,2022.2.4,59.87127672279472,
1,0,4.9,4.9,0,0,65,65,63,,,,,235.0968895999249,235.74764370010234,235.74764370010234,236.23211720003746,45,315,236.23211720003746,236.23211720003746,236.23211720003746,236.23211720003746,236.23211720003746,236.23211720003746,236.23211720003746,236.23211720003746,236.23211720003746,236.59831200004555,236.59831200004555,236.59831200004555,236.59831200004555,236.59831200004555,236.59831200004555,236.59831200004555,236.59831200004555,236.59831200004555,23,0,,,236.59831200004555,236.7985847000964,4.9,236.7985847000964,0,4.9,1,0,1000,num_1,1.0832595000974834,,35,3,2026-03-13_13h24.23.190,2026A_exp2,2022.2.4,59.87127672279472,
0,0,0.0,0.0,1,0,66,66,8,,,,,237.89959420007654,238.55032499996014,238.55032499996014,239.03489120001905,45,315,239.03489120001905,239.03489120001905,239.03489120001905,239.03489120001905,239.03489120001905,239.03489120001905,239.03489120001905,239.03489120001905,239.03489120001905,239.40128599992022,239.40128599992022,239.40128599992022,239.40128599992022,239.40128599992022,239.40128599992022,239.40128599992022,239.40128599992022,239.40128599992022,20,3,"[0.017408900195732713, 0.06687340000644326, 0.1835857001133263]","[0.03358980012126267, 0.08373160008341074, 0.2002323002088815]",239.40128599992022,239.60146069992334,0.0,239.60146069992334,0,0.0,0,1,1000,num_1,0.8807737999595702,,35,3,2026-03-13_13h24.23.190,2026A_exp2,2022.2.4,59.87127672279472,
1000,1,0.0,4.9,0,0,67,67,11,,,,,240.50221089995466,241.15295629994944,241.15295629994944,241.65389339998364,45,315,241.65389339998364,241.65389339998364,241.65389339998364,241.65389339998364,241.65389339998364,241.65389339998364,241.65389339998364,241.65389339998364,241.65389339998364,242.0039333999157,242.0039333999157,242.0039333999157,242.0039333999157,242.0039333999157,242.0039333999157,242.0039333999157,242.0039333999157,242.0039333999157,15,2,"[0.1340075999032706, 0.23395819985307753]","[0.2174567999318242, 0.26747089996933937]",242.0039333999157,242.20585400005803,1000,242.20585400005803,1000,1000,1000,1000,1,num_2,0.6598798001650721,,35,3,2026-03-13_13h24.23.190,2026A_exp2,2022.2.4,59.87127672279472,
1,0,0.0,0.0,1,0,68,68,70,,,,,242.88804279989563,243.53869049996138,243.53869049996138,244.0398802999407,315,315,244.0398802999407,244.0398802999407,244.0398802999407,244.0398802999407,244.0398802999407,244.0398802999407,244.0398802999407,244.0398802999407,244.0398802999407,244.40629200008698,244.40629200008698,244.40629200008698,244.40629200008698,244.40629200008698,244.40629200008698,244.40629200008698,244.40629200008698,244.40629200008698,23,0,,,244.40629200008698,244.6064508999698,0.0,244.6064508999698,0,0.0,0,1,1000,num_1,0.6445176999550313,,35,3,2026-03-13_13h24.23.190,2026A_exp2,2022.2.4,59.87127672279472,
1000,1,4.9,6.1,1,0,69,69,1,,,,,245.27386249997653,245.907841200009,245.907841200009,246.4089053000789,45,45,246.4089053000789,246.4089053000789,246.4089053000789,246.4089053000789,246.4089053000789,246.4089053000789,246.4089053000789,246.4089053000789,246.4089053000789,246.77535169990733,246.77535169990733,246.77535169990733,246.77535169990733,246.77535169990733,246.77535169990733,246.77535169990733,246.77535169990733,246.77535169990733,21,1,[0.01743089989759028],[0.05028979992493987],246.77535169990733,246.97765849996358,1000,246.97765849996358,1000,1000,1000,1000,0,num_3,0.7530290000140667,,35,3,2026-03-13_13h24.23.190,2026A_exp2,2022.2.4,59.87127672279472,
1000,1,0.0,3.7,1,0,70,70,80,,,,,247.7595607000403,248.41030150000006,248.41030150000006,248.91141299996525,315,45,248.91141299996525,248.91141299996525,248.91141299996525,248.91141299996525,248.91141299996525,248.91141299996525,248.91141299996525,248.91141299996525,248.91141299996525,249.27784439991228,249.27784439991228,249.27784439991228,249.27784439991228,249.27784439991228,249.27784439991228,249.27784439991228,249.27784439991228,249.27784439991228,23,0,,,249.27784439991228,249.4797084000893,1000,249.4797084000893,1000,1000,1000,1000,1,num_2,0.6185386998113245,,35,3,2026-03-13_13h24.23.190,2026A_exp2,2022.2.4,59.87127672279472,
1000,1,0.0,6.1,1,0,71,71,88,,,,,250.12853819993325,250.77945840009488,250.77945840009488,251.2803724000696,315,45,251.2803724000696,251.2803724000696,251.2803724000696,251.2803724000696,251.2803724000696,251.2803724000696,251.2803724000696,251.2803724000696,251.2803724000696,251.6469656000845,251.6469656000845,251.6469656000845,251.6469656000845,251.6469656000845,251.6469656000845,251.6469656000845,251.6469656000845,251.6469656000845,22,1,[0.017337099881842732],[0.03329179994761944],251.6469656000845,251.84863719996065,1000,251.84863719996065,1000,1000,1000,1000,1,num_2,0.8567298001144081,,35,3,2026-03-13_13h24.23.190,2026A_exp2,2022.2.4,59.87127672279472,
0,0,0.0,4.9,1,0,72,72,56,,,,,252.73105839989148,253.38201080006547,253.38201080006547,253.8831305000931,315,315,253.8831305000931,253.8831305000931,253.8831305000931,253.8831305000931,253.8831305000931,253.8831305000931,253.8831305000931,253.8831305000931,253.8831305000931,254.23277750005946,254.23277750005946,254.23277750005946,254.23277750005946,254.23277750005946,254.23277750005946,254.23277750005946,254.23277750005946,254.23277750005946,22,0,,,254.23277750005946,254.4328991000075,0.0,254.4328991000075,0,0.0,0,1,1000,num_1,0.9291207001078874,,35,3,2026-03-13_13h24.23.190,2026A_exp2,2022.2.4,59.87127672279472,
1000,1,0.0,0.0,1,0,73,73,29,,,,,255.38378240005113,256.0345908999443,256.0345908999443,256.5189008000307,315,315,256.5189008000307,256.5189008000307,256.5189008000307,256.5189008000307,256.5189008000307,256.5189008000307,256.5189008000307,256.5189008000307,256.5189008000307,256.88528500008397,256.88528500008397,256.88528500008397,256.88528500008397,256.88528500008397,256.88528500008397,256.88528500008397,256.88528500008397,256.88528500008397,23,0,,,256.88528500008397,257.08765690005384,1000,257.08765690005384,1000,1000,1000,1000,0,num_3,1.9943654001690447,,35,3,2026-03-13_13h24.23.190,2026A_exp2,2022.2.4,59.87127672279472,
0,0,3.7,4.9,1,0,74,74,3,,,,,259.1042647000868,259.754966000095,259.754966000095,260.2560151000507,315,45,260.2560151000507,260.2560151000507,260.2560151000507,260.2560151000507,260.2560151000507,260.2560151000507,260.2560151000507,260.2560151000507,260.2560151000507,260.62253660010174,260.62253660010174,260.62253660010174,260.62253660010174,260.62253660010174,260.62253660010174,260.62253660010174,260.62253660010174,260.62253660010174,20,2,"[0.0012264000251889229, 0.05017770011909306]","[0.033378500025719404, 0.06664160010404885]",260.62253660010174,260.82273659994826,3.7,260.82273659994826,0,3.7,1,0,1000,num_1,0.9955887999385595,,35,3,2026-03-13_13h24.23.190,2026A_exp2,2022.2.4,59.87127672279472,
1000,1,3.7,0.0,1,0,75,75,79,,,,,261.8402714000549,262.49099229997955,262.49099229997955,262.9755176999606,45,315,262.9755176999606,262.9755176999606,262.9755176999606,262.9755176999606,262.9755176999606,262.9755176999606,262.9755176999606,262.9755176999606,262.9755176999606,263.34178150002845,263.34178150002845,263.34178150002845,263.34178150002845,263.34178150002845,263.34178150002845,263.34178150002845,263.34178150002845,263.34178150002845,12,3,"[0.033675300190225244, 0.11721330019645393, 0.2505326000973582]","[0.050381800159811974, 0.21731040021404624, 0.3006496001034975]",263.34178150002845,263.54385740007274,1000,263.54385740007274,1000,1000,1000,1000,0,num_3,0.7299622998107225,,35,3,2026-03-13_13h24.23.190,2026A_exp2,2022.2.4,59.87127672279472,
1000,1,6.1,3.7,1,0,76,76,0,,,,,264.2927665000316,264.94355889991857,264.94355889991857,265.4444750000257,315,315,265.4444750000257,265.4444750000257,265.4444750000257,265.4444750000257,265.4444750000257,265.4444750000257,265.4444750000257,265.4444750000257,265.4444750000257,265.8110607000999,265.8110607000999,265.8110607000999,265.8110607000999,265.8110607000999,265.8110607000999,265.8110607000999,265.8110607000999,265.8110607000999,21,1,[0.2829536001663655],[0.3164183001499623],265.8110607000999,266.01320579997264,1000,266.01320579997264,1000,1000,1000,1000,1,num_2,0.6934454999864101,,35,3,2026-03-13_13h24.23.190,2026A_exp2,2022.2.4,59.87127672279472,
1,0,4.9,0.0,1,0,77,77,84,,,,,266.72865599999204,267.37919949996285,267.37919949996285,267.88042120006867,315,45,267.88042120006867,267.88042120006867,267.88042120006867,267.88042120006867,267.88042120006867,267.88042120006867,267.88042120006867,267.88042120006867,267.88042120006867,268.24682070012204,268.24682070012204,268.24682070012204,268.24682070012204,268.24682070012204,268.24682070012204,268.24682070012204,268.24682070012204,268.24682070012204,21,2,"[0.2837108999956399, 0.36722469981759787]","[0.3006002998445183, 0.36722929985262454]",268.24682070012204,268.4470263000112,0.0,268.4470263000112,1,0.0,0,0,1000,num_4,0.803475399967283,,35,3,2026-03-13_13h24.23.190,2026A_exp2,2022.2.4,59.87127672279472,
1000,1,6.1,3.7,1,0,78,78,24,,,,,269.28101989999413,269.9317906999495,269.9317906999495,270.4162951000035,315,315,270.4162951000035,270.4162951000035,270.4162951000035,270.4162951000035,270.4162951000035,270.4162951000035,270.4162951000035,270.4162951000035,270.4162951000035,270.78270830004476,270.78270830004476,270.78270830004476,270.78270830004476,270.78270830004476,270.78270830004476,270.78270830004476,270.78270830004476,270.78270830004476,20,3,"[0.03352910000830889, 0.06695470004342496, 0.25038979994133115]","[0.050158799858763814, 0.08345749997533858, 0.2668794998899102]",270.78270830004476,270.98458470008336,1000,270.98458470008336,1000,1000,1000,1000,1,num_2,0.8903180998750031,,35,3,2026-03-13_13h24.23.190,2026A_exp2,2022.2.4,59.87127672279472,
0,0,0.0,3.7,1,0,79,79,21,,,,,271.9003431000747,272.55114570003934,272.55114570003934,273.05225559999235,45,45,273.05225559999235,273.05225559999235,273.05225559999235,273.05225559999235,273.05225559999235,273.05225559999235,273.05225559999235,273.05225559999235,273.05225559999235,273.41846080007963,273.41846080007963,273.41846080007963,273.41846080007963,273.41846080007963,273.41846080007963,273.41846080007963,273.41846080007963,273.41846080007963,23,0,,,273.41846080007963,,0.0,273.6207469000947,0,0.0,0,1,1000,num_1,0.5335437001194805,,35,3,2026-03-13_13h24.23.190,2026A_exp2,2022.2.4,59.87127672279472,
1000,1,3.7,0.0,1,0,80,80,55,,,,,274.18589810002595,274.83701099990867,274.83701099990867,275.32125600008294,315,45,275.32125600008294,275.32125600008294,275.32125600008294,275.32125600008294,275.32125600008294,275.32125600008294,275.32125600008294,275.32125600008294,275.32125600008294,275.6876119999215,275.6876119999215,275.6876119999215,275.6876119999215,275.6876119999215,275.6876119999215,275.6876119999215,275.6876119999215,275.6876119999215,15,5,"[0.1503349000122398, 0.20054829982109368, 0.2335287998430431, 0.283723299857229, 0.3337624999694526]","[0.18365309992805123, 0.21699589979834855, 0.2502746998798102, 0.3171989999245852, 0.3671061999630183]",275.6876119999215,275.8897331999615,1000,275.8897331999615,1000,1000,1000,1000,0,num_3,1.2322829000186175,,35,3,2026-03-13_13h24.23.190,2026A_exp2,2022.2.4,59.87127672279472,
1,0,4.9,0.0,1,0,81,81,6,,,,,277.1390784000978,277.78952270001173,277.78952270001173,278.290836900007,45,45,278.290836900007,278.290836900007,278.290836900007,278.290836900007,278.290836900007,278.290836900007,278.290836900007,278.290836900007,278.290836900007,278.65712410002016,278.65712410002016,278.65712410002016,278.65712410002016,278.65712410002016,278.65712410002016,278.65712410002016,278.65712410002016,278.65712410002016,18,2,"[0.06668639997951686, 0.13359340000897646]","[0.10014149989001453, 0.18350049993023276]",278.65712410002016,278.8574689999223,0.0,278.8574689999223,0,0.0,0,1,1000,num_1,1.7606539998669177,,35,3,2026-03-13_13h24.23.190,2026A_exp2,2022.2.4,59.87127672279472,
1000,1,0.0,0.0,0,0,82,82,20,,,,,280.6423047001008,281.27645960007794,281.27645960007794,281.7776033000555,315,45,281.7776033000555,281.7776033000555,281.7776033000555,281.7776033000555,281.7776033000555,281.7776033000555,281.7776033000555,281.7776033000555,281.7776033000555,282.1440528999083,282.1440528999083,282.1440528999083,282.1440528999083,282.1440528999083,282.1440528999083,282.1440528999083,282.1440528999083,282.1440528999083,17,3,"[0.08357979985885322, 0.18361089983955026, 0.26706109987571836]","[0.11647380003705621, 0.20039859996177256, 0.3172494999598712]",282.1440528999083,282.3464287999086,1000,282.3464287999086,1000,1000,1000,1000,0,num_3,0.7994292001239955,,35,3,2026-03-13_13h24.23.190,2026A_exp2,2022.2.4,59.87127672279472,
1,0,0.0,0.0,0,0,83,83,9,,,,,283.16166629991494,283.8125781000126,283.8125781000126,284.31352320010774,45,45,284.31352320010774,284.31352320010774,284.31352320010774,284.31352320010774,284.31352320010774,284.31352320010774,284.31352320010774,284.31352320010774,284.31352320010774,284.67989540006965,284.67989540006965,284.67989540006965,284.67989540006965,284.67989540006965,284.67989540006965,284.67989540006965,284.67989540006965,284.67989540006965,23,0,,,284.67989540006965,284.8801526001189,0.0,284.8801526001189,0,0.0,0,1,1000,num_1,0.9373707000631839,,35,3,2026-03-13_13h24.23.190,2026A_exp2,2022.2.4,59.87127672279472,
1000,1,4.9,3.7,1,0,84,84,32,,,,,285.8475556001067,286.48164059990086,286.48164059990086,286.98283610004,315,315,286.98283610004,286.98283610004,286.98283610004,286.98283610004,286.98283610004,286.98283610004,286.98283610004,286.98283610004,286.98283610004,287.3492729999125,287.3492729999125,287.3492729999125,287.3492729999125,287.3492729999125,287.3492729999125,287.3492729999125,287.3492729999125,287.3492729999125,20,2,"[0.2501201000995934, 0.35025659995153546]","[0.2838590000756085, 0.36677310010418296]",287.3492729999125,287.55120490002446,1000,287.55120490002446,1000,1000,1000,1000,1,num_2,0.834335400024429,,35,3,2026-03-13_13h24.23.190,2026A_exp2,2022.2.4,59.87127672279472,
1,0,0.0,4.9,1,0,85,85,45,,,,,288.41703750006855,289.0675274999812,289.0675274999812,289.5687428000383,45,45,289.5687428000383,289.5687428000383,289.5687428000383,289.5687428000383,289.5687428000383,289.5687428000383,289.5687428000383,289.5687428000383,289.5687428000383,289.91834510001354,289.91834510001354,289.91834510001354,289.91834510001354,289.91834510001354,289.91834510001354,289.91834510001354,289.91834510001354,289.91834510001354,20,2,"[0.017512999940663576, 0.06698859995231032]","[0.033485999796539545, 0.08361609978601336]",289.91834510001354,290.11872879997827,4.9,290.1353718000464,0,4.9,1,0,1000,num_1,0.7063641001004726,,35,3,2026-03-13_13h24.23.190,2026A_exp2,2022.2.4,59.87127672279472,
1,0,0.0,0.0,1,0,86,86,37,,,,,290.8692479999736,291.52012620004825,291.52012620004825,292.0043792000506,45,315,292.0043792000506,292.0043792000506,292.0043792000506,292.0043792000506,292.0043792000506,292.0043792000506,292.0043792000506,292.0043792000506,292.0043792000506,292.37091669999063,292.37091669999063,292.37091669999063,292.37091669999063,292.37091669999063,292.37091669999063,292.37091669999063,292.37091669999063,292.37091669999063,12,7,"[0.0012314999476075172, 0.04974219994619489, 0.10014660004526377, 0.1837442999240011, 0.26704439986497164, 0.3170197999570519, 0.35037830006331205]","[0.017142599914222956, 0.06672100001014769, 0.16683140001259744, 0.20020890003070235, 0.30034870002418756, 0.3335738000459969, 0.3670820000115782]",292.37091669999063,292.5711815999821,0.0,292.5711815999821,0,0.0,0,1,1000,num_1,0.6064015000592917,,35,3,2026-03-13_13h24.23.190,2026A_exp2,2022.2.4,59.87127672279472,
1000,1,6.1,0.0,0,0,87,87,33,,,,,293.2049267999828,293.85596739989705,293.85596739989705,294.3402017999906,45,45,294.3402017999906,294.3402017999906,294.3402017999906,294.3402017999906,294.3402017999906,294.3402017999906,294.3402017999906,294.3402017999906,294.3402017999906,294.7065487001091,294.7065487001091,294.7065487001091,294.7065487001091,294.7065487001091,294.7065487001091,294.7065487001091,294.7065487001091,294.7065487001091,21,1,[0.30018070014193654],[0.3335714000277221],294.7065487001091,294.90877120010555,1000,294.90877120010555,1000,1000,1000,1000,0,num_3,0.6055741999298334,,35,3,2026-03-13_13h24.23.190,2026A_exp2,2022.2.4,59.87127672279472,
1000,1,3.7,6.1,0,0,88,88,28,,,,,295.54082449991256,296.19136189995334,296.19136189995334,296.6924014000688,45,315,296.6924014000688,296.6924014000688,296.6924014000688,296.6924014000688,296.6924014000688,296.6924014000688,296.6924014000688,296.6924014000688,296.6924014000688,297.05895460001193,297.05895460001193,297.05895460001193,297.05895460001193,297.05895460001193,297.05895460001193,297.05895460001193,297.05895460001193,297.05895460001193,21,1,[0.08311640005558729],[0.11638660007156432],297.05895460001193,297.25954740005545,1000,297.25954740005545,1000,1000,1000,1000,1,num_2,0.8220487001817673,,35,3,2026-03-13_13h24.23.190,2026A_exp2,2022.2.4,59.87127672279472,
1000,1,0.0,0.0,0,0,89,89,69,,,,,298.1099231999833,298.760647600051,298.760647600051,299.24502560007386,315,315,299.24502560007386,299.24502560007386,299.24502560007386,299.24502560007386,299.24502560007386,299.24502560007386,299.24502560007386,299.24502560007386,299.24502560007386,299.6281387999188,299.6281387999188,299.6281387999188,299.6281387999188,299.6281387999188,299.6281387999188,299.6281387999188,299.6281387999188,299.6281387999188,22,1,[0.2501573998015374],[0.2830568999052048],299.6281387999188,299.83268960006535,1000,299.83268960006535,1000,1000,1000,1000,1,num_2,0.8177606000099331,,35,3,2026-03-13_13h24.23.190,2026A_exp2,2022.2.4,59.87127672279472,
,,,,,,,,,,,,,,,,,,,,,,,,,,,,,,,,,,,,,,,,,,,,,,,,,,,,300.6870949000586,,,,,,,
