validity,detectorcomp,contrastCW,contrastCCW,precueCWorCCW,block_80trials.thisRepN,block_80trials.thisTrialN,block_80trials.thisN,block_80trials.thisIndex,etRecord.started,etRecord.stopped,text.started,text.stopped,text_4.started,text_4.stopped,text_6.started,text_6.stopped,oriCW,oriCCW,roi_2.started,grating_UR.started,grating_UL.started,grating_LR.started,grating_LL.started,noise_UR.started,noise_UL.started,noise_LR.started,noise_LL.started,roi_2.stopped,grating_UR.stopped,grating_UL.stopped,grating_LR.stopped,grating_LL.stopped,noise_UR.stopped,noise_UL.stopped,noise_LR.stopped,noise_LL.stopped,outframe,roi_2.numLooks,roi_2.timesOn,roi_2.timesOff,text_2.started,text_2.stopped,probedcontrast,key_resp.started,respdetect,relevantContrast,correctDetect,TorFdetect,respCWorCCW,key_resp.keys,key_resp.rt,feedback_display_.started,participantNo,blockNo,date,expName,psychopyVersion,frameRate,
1000,1,0.0,0.0,0,0,0,0,69,3.6499928683042526e-05,3.6499928683042526e-05,51.609786899993196,53.61280929995701,53.61280929995701,54.24632799997926,54.24632799997926,54.76640109997243,45,45,54.76640109997243,54.76640109997243,54.76640109997243,54.76640109997243,54.76640109997243,54.76640109997243,54.76640109997243,54.76640109997243,54.76640109997243,55.11410910007544,55.11410910007544,55.11410910007544,55.11410910007544,55.11410910007544,55.11410910007544,55.11410910007544,55.11410910007544,55.11410910007544,0,1,[0.0011276998557150364],[0.3676493000239134],55.11410910007544,55.33272680011578,1000,55.33272680011578,1000,1000,1000,1000,1,num_2,0.8790206999983639,,34,3,2026-03-13_10h22.12.394,2026A_exp2,2022.2.4,59.84340179204501,
1,0,0.0,0.0,0,0,1,1,2,,,,,56.232023200020194,56.88244860013947,56.88244860013947,57.38363409996964,315,315,57.38363409996964,57.38363409996964,57.38363409996964,57.38363409996964,57.38363409996964,57.38363409996964,57.38363409996964,57.38363409996964,57.38363409996964,57.733297700062394,57.733297700062394,57.733297700062394,57.733297700062394,57.733297700062394,57.733297700062394,57.733297700062394,57.733297700062394,57.733297700062394,0,1,[0.004325599875301123],[0.36401449982076883],57.733297700062394,57.93347829999402,0.0,57.93347829999402,0,0.0,0,1,1000,num_1,0.6385075999423862,,34,3,2026-03-13_10h22.12.394,2026A_exp2,2022.2.4,59.84340179204501,
1,0,0.0,0.0,1,0,2,2,73,,,,,58.60077999997884,59.25139250000939,59.25139250000939,59.735850900178775,315,315,59.735850900178775,59.735850900178775,59.735850900178775,59.735850900178775,59.735850900178775,59.735850900178775,59.735850900178775,59.735850900178775,59.735850900178775,60.102385400095955,60.102385400095955,60.102385400095955,60.102385400095955,60.102385400095955,60.102385400095955,60.102385400095955,60.102385400095955,60.102385400095955,0,1,[0.0012179999612271786],[0.3672295999713242],60.102385400095955,60.30230650003068,0.0,60.30230650003068,0,0.0,0,1,1000,num_1,0.7097377998288721,,34,3,2026-03-13_10h22.12.394,2026A_exp2,2022.2.4,59.84340179204501,
1,0,0.0,4.9,0,0,3,3,17,,,,,61.03669219999574,61.67054710001685,61.67054710001685,62.171663500135764,315,45,62.171663500135764,62.171663500135764,62.171663500135764,62.171663500135764,62.171663500135764,62.171663500135764,62.171663500135764,62.171663500135764,62.171663500135764,62.53805850003846,62.53805850003846,62.53805850003846,62.53805850003846,62.53805850003846,62.53805850003846,62.53805850003846,62.53805850003846,62.53805850003846,0,1,[0.0013200999237596989],[0.36698819999583066],62.53805850003846,62.73834399995394,0.0,62.73834399995394,0,0.0,0,1,1000,num_1,0.5774089999031276,,34,3,2026-03-13_10h22.12.394,2026A_exp2,2022.2.4,59.84340179204501,
1000,1,6.1,3.7,1,0,4,4,0,,,,,63.33879519999027,63.989423900144175,63.989423900144175,64.47400810010731,315,45,64.47400810010731,64.47400810010731,64.47400810010731,64.47400810010731,64.47400810010731,64.47400810010731,64.47400810010731,64.47400810010731,64.47400810010731,64.84033409995027,64.84033409995027,64.84033409995027,64.84033409995027,64.84033409995027,64.84033409995027,64.84033409995027,64.84033409995027,64.84033409995027,0,1,[0.0012356000952422619],[0.36762340017594397],64.84033409995027,65.04266130016185,1000,65.04266130016185,1000,1000,1000,1000,0,num_3,0.6417175997048616,,34,3,2026-03-13_10h22.12.394,2026A_exp2,2022.2.4,59.84340179204501,
1000,1,6.1,3.7,0,0,5,5,87,,,,,65.70808160002343,66.35845030006021,66.35845030006021,66.85973710007966,315,315,66.85973710007966,66.85973710007966,66.85973710007966,66.85973710007966,66.85973710007966,66.85973710007966,66.85973710007966,66.85973710007966,66.85973710007966,67.2095143001061,67.2095143001061,67.2095143001061,67.2095143001061,67.2095143001061,67.2095143001061,67.2095143001061,67.2095143001061,67.2095143001061,0,1,[0.0012086001224815845],[0.3506847000680864],67.2095143001061,67.411576700164,1000,67.411576700164,1000,1000,1000,1000,0,num_3,0.49565099994651973,,34,3,2026-03-13_10h22.12.394,2026A_exp2,2022.2.4,59.84340179204501,
1,0,0.0,0.0,0,0,6,6,9,,,,,67.92693930002861,68.57758030015975,68.57758030015975,69.07857310003601,315,315,69.07857310003601,69.07857310003601,69.07857310003601,69.07857310003601,69.07857310003601,69.07857310003601,69.07857310003601,69.07857310003601,69.07857310003601,69.44503900012933,69.44503900012933,69.44503900012933,69.44503900012933,69.44503900012933,69.44503900012933,69.44503900012933,69.44503900012933,69.44503900012933,0,1,[0.0012385000009089708],[0.36743379989638925],69.44503900012933,69.64518980006687,0.0,69.64518980006687,0,0.0,0,1,1000,num_1,0.6387030999176204,,34,3,2026-03-13_10h22.12.394,2026A_exp2,2022.2.4,59.84340179204501,
1,0,0.0,4.9,0,0,7,7,71,,,,,70.31242860015482,70.96322350017726,70.96322350017726,71.4476517001167,45,315,71.4476517001167,71.4476517001167,71.4476517001167,71.4476517001167,71.4476517001167,71.4476517001167,71.4476517001167,71.4476517001167,71.4476517001167,71.81402900000103,71.81402900000103,71.81402900000103,71.81402900000103,71.81402900000103,71.81402900000103,71.81402900000103,71.81402900000103,71.81402900000103,0,1,[0.001269900007173419],[0.3669108999893069],71.81402900000103,72.01414700015448,0.0,72.01414700015448,0,0.0,0,1,1000,num_1,0.5970126998145133,,34,3,2026-03-13_10h22.12.394,2026A_exp2,2022.2.4,59.84340179204501,
1,0,4.9,6.1,1,0,8,8,86,,,,,72.63148850016296,73.28221570001915,73.28221570001915,73.76656950009055,315,315,73.76656950009055,73.76656950009055,73.76656950009055,73.76656950009055,73.76656950009055,73.76656950009055,73.76656950009055,73.76656950009055,73.76656950009055,74.1330371000804,74.1330371000804,74.1330371000804,74.1330371000804,74.1330371000804,74.1330371000804,74.1330371000804,74.1330371000804,74.1330371000804,0,1,[0.0011969998013228178],[0.3670828999020159],74.1330371000804,74.33328500017524,6.1,74.33328500017524,1,6.1,1,1,1000,num_4,0.8070926000364125,,34,3,2026-03-13_10h22.12.394,2026A_exp2,2022.2.4,59.84340179204501,
0,0,0.0,4.9,1,0,9,9,56,,,,,75.1672235999722,75.81798010016792,75.81798010016792,76.31922450009733,45,315,76.31922450009733,76.31922450009733,76.31922450009733,76.31922450009733,76.31922450009733,76.31922450009733,76.31922450009733,76.31922450009733,76.31922450009733,76.68565340014175,76.68565340014175,76.68565340014175,76.68565340014175,76.68565340014175,76.68565340014175,76.68565340014175,76.68565340014175,76.68565340014175,0,1,[0.0012438001576811075],[0.36706820013932884],76.68565340014175,76.88573170010932,0.0,76.88573170010932,0,0.0,0,1,1000,num_1,0.5745945000089705,,34,3,2026-03-13_10h22.12.394,2026A_exp2,2022.2.4,59.84340179204501,
1,0,0.0,0.0,1,0,10,10,18,,,,,77.4861507001333,78.13697480014525,78.13697480014525,78.62152649997734,45,315,78.62152649997734,78.62152649997734,78.62152649997734,78.62152649997734,78.62152649997734,78.62152649997734,78.62152649997734,78.62152649997734,78.62152649997734,78.98788220016286,78.98788220016286,78.98788220016286,78.98788220016286,78.98788220016286,78.98788220016286,78.98788220016286,78.98788220016286,78.98788220016286,7,1,[0.1168102000374347],[0.3672153998631984],78.98788220016286,79.18802900006995,0.0,79.18802900006995,0,0.0,0,1,1000,num_1,0.6471518997568637,,34,3,2026-03-13_10h22.12.394,2026A_exp2,2022.2.4,59.84340179204501,
1000,1,4.9,4.9,0,0,11,11,42,,,,,79.85524970013648,80.50608079996891,80.50608079996891,80.99036990012974,315,315,80.99036990012974,80.99036990012974,80.99036990012974,80.99036990012974,80.99036990012974,80.99036990012974,80.99036990012974,80.99036990012974,80.99036990012974,81.35681070014834,81.35681070014834,81.35681070014834,81.35681070014834,81.35681070014834,81.35681070014834,81.35681070014834,81.35681070014834,81.35681070014834,0,1,[0.001286099897697568],[0.36713929986581206],81.35681070014834,81.55930520012043,1000,81.55930520012043,1000,1000,1000,1000,0,num_3,0.5965640998911113,,34,3,2026-03-13_10h22.12.394,2026A_exp2,2022.2.4,59.84340179204501,
1000,1,4.9,0.0,0,0,12,12,22,,,,,82.17430529999547,82.8249494000338,82.8249494000338,83.326209400082,315,45,83.326209400082,83.326209400082,83.326209400082,83.326209400082,83.326209400082,83.326209400082,83.326209400082,83.326209400082,83.326209400082,83.69261720008217,83.69261720008217,83.69261720008217,83.69261720008217,83.69261720008217,83.69261720008217,83.69261720008217,83.69261720008217,83.69261720008217,0,1,[0.0012062001042068005],[0.36715240008197725],83.69261720008217,83.89263470005244,1000,83.89263470005244,1000,1000,1000,1000,1,num_2,0.8951563998125494,,34,3,2026-03-13_10h22.12.394,2026A_exp2,2022.2.4,59.84340179204501,
1000,1,0.0,0.0,0,0,13,13,65,,,,,84.81017680000514,85.46055219997652,85.46055219997652,85.94509829999879,45,45,85.94509829999879,85.94509829999879,85.94509829999879,85.94509829999879,85.94509829999879,85.94509829999879,85.94509829999879,85.94509829999879,85.94509829999879,86.31147249997593,86.31147249997593,86.31147249997593,86.31147249997593,86.31147249997593,86.31147249997593,86.31147249997593,86.31147249997593,86.31147249997593,0,1,[0.0008689002133905888],[0.36716560018248856],86.31147249997593,86.51211160002276,1000,86.51211160002276,1000,1000,1000,1000,0,num_3,0.6831352997105569,,34,3,2026-03-13_10h22.12.394,2026A_exp2,2022.2.4,59.84340179204501,
1,0,4.9,0.0,1,0,14,14,82,,,,,87.21289680013433,87.84653039998375,87.84653039998375,88.34824450011365,315,315,88.34824450011365,88.34824450011365,88.34824450011365,88.34824450011365,88.34824450011365,88.34824450011365,88.34824450011365,88.34824450011365,88.34824450011365,88.71410139999352,88.71410139999352,88.71410139999352,88.71410139999352,88.71410139999352,88.71410139999352,88.71410139999352,88.71410139999352,88.71410139999352,0,1,[0.0010586001444607973],[0.3668222001288086],88.71410139999352,88.91432960005477,0.0,88.91432960005477,0,0.0,0,1,1000,num_1,0.7132981999311596,,34,3,2026-03-13_10h22.12.394,2026A_exp2,2022.2.4,59.84340179204501,
1,0,6.1,3.7,0,0,15,15,26,,,,,89.64855429995805,90.28258830006234,90.28258830006234,90.78374990005977,45,45,90.78374990005977,90.78374990005977,90.78374990005977,90.78374990005977,90.78374990005977,90.78374990005977,90.78374990005977,90.78374990005977,90.78374990005977,91.15015730005689,91.15015730005689,91.15015730005689,91.15015730005689,91.15015730005689,91.15015730005689,91.15015730005689,91.15015730005689,91.15015730005689,5,1,[0.08351570018567145],[0.3670431000646204],91.15015730005689,91.3502668000292,6.1,91.3502668000292,0,6.1,1,0,1000,num_1,0.5410504997707903,,34,3,2026-03-13_10h22.12.394,2026A_exp2,2022.2.4,59.84340179204501,
1000,1,6.1,0.0,1,0,16,16,60,,,,,91.91727400012314,92.56821670010686,92.56821670010686,93.05248560011387,45,45,93.05248560011387,93.05248560011387,93.05248560011387,93.05248560011387,93.05248560011387,93.05248560011387,93.05248560011387,93.05248560011387,93.05248560011387,93.41904509998858,93.41904509998858,93.41904509998858,93.41904509998858,93.41904509998858,93.41904509998858,93.41904509998858,93.41904509998858,93.41904509998858,0,1,[0.001233499962836504],[0.3669185000471771],93.41904509998858,93.6210922000464,1000,93.6210922000464,1000,1000,1000,1000,0,num_3,0.5828667997848243,,34,3,2026-03-13_10h22.12.394,2026A_exp2,2022.2.4,59.84340179204501,
1000,1,0.0,4.9,1,0,17,17,27,,,,,94.21988180000335,94.87050810013898,94.87050810013898,95.35477220010944,45,315,95.35477220010944,95.35477220010944,95.35477220010944,95.35477220010944,95.35477220010944,95.35477220010944,95.35477220010944,95.35477220010944,95.35477220010944,95.721344999969,95.721344999969,95.721344999969,95.721344999969,95.721344999969,95.721344999969,95.721344999969,95.721344999969,95.721344999969,18,2,"[0.0015813999343663454, 0.23334659985266626]","[0.03321459982544184, 0.2666092000436038]",95.721344999969,95.92312319995835,1000,95.92312319995835,1000,1000,1000,1000,1,num_2,0.9601400999817997,,34,3,2026-03-13_10h22.12.394,2026A_exp2,2022.2.4,59.84340179204501,
1000,1,6.1,4.9,1,0,18,18,16,,,,,96.90601389994845,97.55647640000097,97.55647640000097,98.04076310014352,315,315,98.04076310014352,98.04076310014352,98.04076310014352,98.04076310014352,98.04076310014352,98.04076310014352,98.04076310014352,98.04076310014352,98.04076310014352,98.40727990004234,98.40727990004234,98.40727990004234,98.40727990004234,98.40727990004234,98.40727990004234,98.40727990004234,98.40727990004234,98.40727990004234,23,0,,,98.40727990004234,98.60959020000882,1000,98.60959020000882,1000,1000,1000,1000,0,num_3,0.5943807000294328,,34,3,2026-03-13_10h22.12.394,2026A_exp2,2022.2.4,59.84340179204501,
1000,1,6.1,3.7,1,0,19,19,10,,,,,99.22464270005003,99.87554150004871,99.87554150004871,100.37670400016941,45,315,100.37670400016941,100.37670400016941,100.37670400016941,100.37670400016941,100.37670400016941,100.37670400016941,100.37670400016941,100.37670400016941,100.37670400016941,100.74298220011406,100.74298220011406,100.74298220011406,100.74298220011406,100.74298220011406,100.74298220011406,100.74298220011406,100.74298220011406,100.74298220011406,7,3,"[0.05016109999269247, 0.23380279983393848, 0.28393539995886385]","[0.21697840001434088, 0.2505840000230819, 0.36719959997572005]",100.74298220011406,100.94502310012467,1000,100.94502310012467,1000,1000,1000,1000,1,num_2,0.47481369972229004,,34,3,2026-03-13_10h22.12.394,2026A_exp2,2022.2.4,59.84340179204501,
1,0,0.0,0.0,1,0,20,20,43,,,,,101.44359250017442,102.09436079999432,102.09436079999432,102.59549250011332,45,315,102.59549250011332,102.59549250011332,102.59549250011332,102.59549250011332,102.59549250011332,102.59549250011332,102.59549250011332,102.59549250011332,102.59549250011332,102.94506120006554,102.94506120006554,102.94506120006554,102.94506120006554,102.94506120006554,102.94506120006554,102.94506120006554,102.94506120006554,102.94506120006554,0,1,[0.0012145999353379011],[0.3503682999871671],102.94506120006554,103.14534720010124,0.0,103.16210269997828,0,0.0,0,1,1000,num_1,0.5698738999199122,,34,3,2026-03-13_10h22.12.394,2026A_exp2,2022.2.4,59.84340179204501,
1,0,3.7,4.9,1,0,21,21,39,,,,,103.76266450015828,104.41337750013918,104.41337750013918,104.89780430006795,315,315,104.89780430006795,104.89780430006795,104.89780430006795,104.89780430006795,104.89780430006795,104.89780430006795,104.89780430006795,104.89780430006795,104.89780430006795,105.2641187000554,105.2641187000554,105.2641187000554,105.2641187000554,105.2641187000554,105.2641187000554,105.2641187000554,105.2641187000554,105.2641187000554,0,1,[0.0013129999861121178],[0.3672108999453485],105.2641187000554,105.46444749995135,4.9,105.46444749995135,1,4.9,1,1,1000,num_4,0.6673029998783022,,34,3,2026-03-13_10h22.12.394,2026A_exp2,2022.2.4,59.84340179204501,
1000,1,0.0,0.0,1,0,22,22,7,,,,,106.14825820014812,106.79906060011126,106.79906060011126,107.28339960006997,45,45,107.28339960006997,107.28339960006997,107.28339960006997,107.28339960006997,107.28339960006997,107.28339960006997,107.28339960006997,107.28339960006997,107.28339960006997,107.64984630001709,107.64984630001709,107.64984630001709,107.64984630001709,107.64984630001709,107.64984630001709,107.64984630001709,107.64984630001709,107.64984630001709,2,1,[0.017116600181907415],[0.36704830010421574],107.64984630001709,107.85223320010118,1000,107.85223320010118,1000,1000,1000,1000,0,num_3,0.5749915998894721,,34,3,2026-03-13_10h22.12.394,2026A_exp2,2022.2.4,59.84340179204501,
0,0,3.7,0.0,1,0,23,23,83,,,,,108.45049720001407,109.10140269994736,109.10140269994736,109.60247060004622,315,315,109.60247060004622,109.60247060004622,109.60247060004622,109.60247060004622,109.60247060004622,109.60247060004622,109.60247060004622,109.60247060004622,109.60247060004622,109.95213260012679,109.95213260012679,109.95213260012679,109.95213260012679,109.95213260012679,109.95213260012679,109.95213260012679,109.95213260012679,109.95213260012679,0,1,[0.0012978001032024622],[0.3506396000739187],109.95213260012679,110.15251330006868,3.7,110.15251330006868,0,3.7,1,0,1000,num_1,0.5628532997798175,,34,3,2026-03-13_10h22.12.394,2026A_exp2,2022.2.4,59.84340179204501,
1,0,6.1,0.0,1,0,24,24,13,,,,,110.73627860005945,111.38681209995411,111.38681209995411,111.87129770009778,315,45,111.87129770009778,111.87129770009778,111.87129770009778,111.87129770009778,111.87129770009778,111.87129770009778,111.87129770009778,111.87129770009778,111.87129770009778,112.23782479995862,112.23782479995862,112.23782479995862,112.23782479995862,112.23782479995862,112.23782479995862,112.23782479995862,112.23782479995862,112.23782479995862,22,1,[0.25047819991596043],[0.2667997998651117],112.23782479995862,112.43792830011807,0.0,112.43792830011807,0,0.0,0,1,1000,num_1,0.6697140999604017,,34,3,2026-03-13_10h22.12.394,2026A_exp2,2022.2.4,59.84340179204501,
1000,1,0.0,0.0,1,0,25,25,47,,,,,113.13881000014953,113.78936409996822,113.78936409996822,114.29066359996796,45,45,114.29066359996796,114.29066359996796,114.29066359996796,114.29066359996796,114.29066359996796,114.29066359996796,114.29066359996796,114.29066359996796,114.29066359996796,114.65684710000642,114.65684710000642,114.65684710000642,114.65684710000642,114.65684710000642,114.65684710000642,114.65684710000642,114.65684710000642,114.65684710000642,0,1,[0.0007182999979704618],[0.3674857998266816],114.65684710000642,114.85875690006651,1000,114.85875690006651,1000,1000,1000,1000,0,num_3,0.7369701999705285,,34,3,2026-03-13_10h22.12.394,2026A_exp2,2022.2.4,59.84340179204501,
1,0,0.0,0.0,0,0,26,26,59,,,,,115.62444290006533,116.27505620010197,116.27505620010197,116.77618329995312,315,315,116.77618329995312,116.77618329995312,116.77618329995312,116.77618329995312,116.77618329995312,116.77618329995312,116.77618329995312,116.77618329995312,116.77618329995312,117.14259800012223,117.14259800012223,117.14259800012223,117.14259800012223,117.14259800012223,117.14259800012223,117.14259800012223,117.14259800012223,117.14259800012223,10,7,"[0.0007448000833392143, 0.10025219991803169, 0.13322499999776483, 0.1835721000097692, 0.2332941999193281, 0.31716570002026856, 0.3674637000076473]","[0.06676529999822378, 0.11682430002838373, 0.16707520000636578, 0.21691680001094937, 0.2500165000092238, 0.3499475000426173, 0.36746730003505945]",117.14259800012223,117.34285450004973,0.0,117.34285450004973,0,0.0,0,1,1000,num_1,0.4926111998502165,,34,3,2026-03-13_10h22.12.394,2026A_exp2,2022.2.4,59.84340179204501,
1000,1,0.0,0.0,0,0,27,27,75,,,,,117.86000089999288,118.51077740010805,118.51077740010805,118.9951453001704,45,45,118.9951453001704,118.9951453001704,118.9951453001704,118.9951453001704,118.9951453001704,118.9951453001704,118.9951453001704,118.9951453001704,118.9951453001704,119.36145039997064,119.36145039997064,119.36145039997064,119.36145039997064,119.36145039997064,119.36145039997064,119.36145039997064,119.36145039997064,119.36145039997064,23,0,,,119.36145039997064,119.5637701000087,1000,119.5637701000087,1000,1000,1000,1000,0,num_3,0.5604387000203133,,34,3,2026-03-13_10h22.12.394,2026A_exp2,2022.2.4,59.84340179204501,
1,0,0.0,3.7,0,0,28,28,12,,,,,120.145620000083,120.79635690012947,120.79635690012947,121.29753310000524,315,315,121.29753310000524,121.29753310000524,121.29753310000524,121.29753310000524,121.29753310000524,121.29753310000524,121.29753310000524,121.29753310000524,121.29753310000524,121.66388879995793,121.66388879995793,121.66388879995793,121.66388879995793,121.66388879995793,121.66388879995793,121.66388879995793,121.66388879995793,121.66388879995793,3,3,"[0.0012057002168148756, 0.21731680002994835, 0.3506516001652926]","[0.20053210016340017, 0.3173813000321388, 0.3673276000190526]",121.66388879995793,121.87824610015377,0.0,121.87824610015377,0,0.0,0,1,1000,num_1,0.46989949978888035,,34,3,2026-03-13_10h22.12.394,2026A_exp2,2022.2.4,59.84340179204501,
1,0,4.9,6.1,1,0,29,29,46,,,,,122.36458400008269,123.01511140004732,123.01511140004732,123.51627480005845,315,315,123.51627480005845,123.51627480005845,123.51627480005845,123.51627480005845,123.51627480005845,123.51627480005845,123.51627480005845,123.51627480005845,123.51627480005845,123.88273510010913,123.88273510010913,123.88273510010913,123.88273510010913,123.88273510010913,123.88273510010913,123.88273510010913,123.88273510010913,123.88273510010913,0,1,[0.0011942998971790075],[0.36703289998695254],123.88273510010913,124.08305160002783,6.1,124.08305160002783,1,6.1,1,1,1000,num_4,0.5603012996725738,,34,3,2026-03-13_10h22.12.394,2026A_exp2,2022.2.4,59.84340179204501,
1,0,0.0,4.9,0,0,30,30,85,,,,,124.66804759996012,125.31754540000111,125.31754540000111,125.8185004000552,315,45,125.8185004000552,125.8185004000552,125.8185004000552,125.8185004000552,125.8185004000552,125.8185004000552,125.8185004000552,125.8185004000552,125.8185004000552,126.18508019996807,126.18508019996807,126.18508019996807,126.18508019996807,126.18508019996807,126.18508019996807,126.18508019996807,126.18508019996807,126.18508019996807,1,2,"[0.0012492998503148556, 0.31704590003937483]","[0.3004240000154823, 0.36709429998882115]",126.18508019996807,126.38526170002297,0.0,126.38526170002297,0,0.0,0,1,1000,num_1,0.5550067997537553,,34,3,2026-03-13_10h22.12.394,2026A_exp2,2022.2.4,59.84340179204501,
1,0,0.0,6.1,0,0,31,31,68,,,,,126.96905790013261,127.61991670005955,127.61991670005955,128.1043299001176,45,315,128.1043299001176,128.1043299001176,128.1043299001176,128.1043299001176,128.1043299001176,128.1043299001176,128.1043299001176,128.1043299001176,128.1043299001176,128.47065949998796,128.47065949998796,128.47065949998796,128.47065949998796,128.47065949998796,128.47065949998796,128.47065949998796,128.47065949998796,128.47065949998796,23,0,,,128.47065949998796,128.67088190000504,0.0,128.67088190000504,0,0.0,0,1,1000,num_1,0.5564374998211861,,34,3,2026-03-13_10h22.12.394,2026A_exp2,2022.2.4,59.84340179204501,
1,0,0.0,0.0,0,0,32,32,49,,,,,129.25467870011926,129.90533219999634,129.90533219999634,130.38978920015506,315,45,130.38978920015506,130.38978920015506,130.38978920015506,130.38978920015506,130.38978920015506,130.38978920015506,130.38978920015506,130.38978920015506,130.38978920015506,130.75631780014373,130.75631780014373,130.75631780014373,130.75631780014373,130.75631780014373,130.75631780014373,130.75631780014373,130.75631780014373,130.75631780014373,23,0,,,130.75631780014373,130.95653750002384,0.0,130.95653750002384,0,0.0,0,1,1000,num_1,0.5595483998768032,,34,3,2026-03-13_10h22.12.394,2026A_exp2,2022.2.4,59.84340179204501,
1,0,0.0,0.0,0,0,33,33,64,,,,,131.54040129994974,132.1910839001648,132.1910839001648,132.67550070001744,45,315,132.67550070001744,132.67550070001744,132.67550070001744,132.67550070001744,132.67550070001744,132.67550070001744,132.67550070001744,132.67550070001744,132.67550070001744,133.04192790016532,133.04192790016532,133.04192790016532,133.04192790016532,133.04192790016532,133.04192790016532,133.04192790016532,133.04192790016532,133.04192790016532,23,0,,,133.04192790016532,133.24217030010186,0.0,133.24217030010186,0,0.0,0,1,1000,num_1,0.6978605999611318,,34,3,2026-03-13_10h22.12.394,2026A_exp2,2022.2.4,59.84340179204501,
1,0,0.0,4.9,1,0,34,34,45,,,,,133.95941290003248,134.6101808999665,134.6101808999665,135.09448830015026,315,45,135.09448830015026,135.09448830015026,135.09448830015026,135.09448830015026,135.09448830015026,135.09448830015026,135.09448830015026,135.09448830015026,135.09448830015026,135.46108070015907,135.46108070015907,135.46108070015907,135.46108070015907,135.46108070015907,135.46108070015907,135.46108070015907,135.46108070015907,135.46108070015907,23,0,,,135.46108070015907,135.66132270009257,4.9,135.66132270009257,1,4.9,1,1,1000,num_4,0.5988266998901963,,34,3,2026-03-13_10h22.12.394,2026A_exp2,2022.2.4,59.84340179204501,
1000,1,6.1,0.0,0,0,35,35,19,,,,,136.27833999996074,136.92909850017168,136.92909850017168,137.4135027001612,315,315,137.4135027001612,137.4135027001612,137.4135027001612,137.4135027001612,137.4135027001612,137.4135027001612,137.4135027001612,137.4135027001612,137.4135027001612,137.7799339001067,137.7799339001067,137.7799339001067,137.7799339001067,137.7799339001067,137.7799339001067,137.7799339001067,137.7799339001067,137.7799339001067,23,0,,,137.7799339001067,137.98244950012304,1000,137.98244950012304,1000,1000,1000,1000,0,num_3,0.5649557998403907,,34,3,2026-03-13_10h22.12.394,2026A_exp2,2022.2.4,59.84340179204501,
1,0,0.0,0.0,1,0,36,36,41,,,,,138.56406880007125,139.21479979995638,139.21479979995638,139.71579549997114,45,315,139.71579549997114,139.71579549997114,139.71579549997114,139.71579549997114,139.71579549997114,139.71579549997114,139.71579549997114,139.71579549997114,139.71579549997114,140.08231099997647,140.08231099997647,140.08231099997647,140.08231099997647,140.08231099997647,140.08231099997647,140.08231099997647,140.08231099997647,140.08231099997647,23,0,,,140.08231099997647,140.28247199999169,0.0,140.28247199999169,0,0.0,0,1,1000,num_1,0.6098271999508142,,34,3,2026-03-13_10h22.12.394,2026A_exp2,2022.2.4,59.84340179204501,
1000,1,4.9,3.7,1,0,37,37,32,,,,,140.91629940015264,141.57538289995864,141.57538289995864,142.05159669998102,315,45,142.05159669998102,142.05159669998102,142.05159669998102,142.05159669998102,142.05159669998102,142.05159669998102,142.05159669998102,142.05159669998102,142.05159669998102,142.41797520010732,142.41797520010732,142.41797520010732,142.41797520010732,142.41797520010732,142.41797520010732,142.41797520010732,142.41797520010732,142.41797520010732,23,0,,,142.41797520010732,142.61988759995438,1000,142.61988759995438,1000,1000,1000,1000,1,num_2,0.6318057999014854,,34,3,2026-03-13_10h22.12.394,2026A_exp2,2022.2.4,59.84340179204501,
1000,1,0.0,0.0,0,0,38,38,61,,,,,143.26912180008367,143.90284950006753,143.90284950006753,144.4040845001582,45,45,144.4040845001582,144.4040845001582,144.4040845001582,144.4040845001582,144.4040845001582,144.4040845001582,144.4040845001582,144.4040845001582,144.4040845001582,144.77033520000987,144.77033520000987,144.77033520000987,144.77033520000987,144.77033520000987,144.77033520000987,144.77033520000987,144.77033520000987,144.77033520000987,23,0,,,144.77033520000987,144.97273200005293,1000,144.97273200005293,1000,1000,1000,1000,0,num_3,0.5103019999805838,,34,3,2026-03-13_10h22.12.394,2026A_exp2,2022.2.4,59.84340179204501,
1000,1,6.1,4.9,1,0,39,39,53,,,,,145.50438800011761,146.1549943999853,146.1549943999853,146.65578599995933,315,45,146.65578599995933,146.65578599995933,146.65578599995933,146.65578599995933,146.65578599995933,146.65578599995933,146.65578599995933,146.65578599995933,146.65578599995933,147.0225214001257,147.0225214001257,147.0225214001257,147.0225214001257,147.0225214001257,147.0225214001257,147.0225214001257,147.0225214001257,147.0225214001257,23,0,,,147.0225214001257,147.24593070009723,1000,147.24593070009723,1000,1000,1000,1000,1,num_2,0.6058899997733533,,34,3,2026-03-13_10h22.12.394,2026A_exp2,2022.2.4,59.84340179204501,
1,0,4.9,0.0,1,0,40,40,84,,,,,147.87352899997495,148.5241054999642,148.5241054999642,149.02527000010014,45,315,149.02527000010014,149.02527000010014,149.02527000010014,149.02527000010014,149.02527000010014,149.02527000010014,149.02527000010014,149.02527000010014,149.02527000010014,149.37489960016683,149.37489960016683,149.37489960016683,149.37489960016683,149.37489960016683,149.37489960016683,149.37489960016683,149.37489960016683,149.37489960016683,0,1,[0.001224700128659606],[0.35056810011155903],149.37489960016683,149.57519280002452,0.0,149.57519280002452,0,0.0,0,1,1000,num_1,0.5730808000080287,,34,3,2026-03-13_10h22.12.394,2026A_exp2,2022.2.4,59.84340179204501,
1000,1,4.9,6.1,1,0,41,41,1,,,,,150.17561389994808,150.8264451001305,150.8264451001305,151.31087610009126,45,315,151.31087610009126,151.31087610009126,151.31087610009126,151.31087610009126,151.31087610009126,151.31087610009126,151.31087610009126,151.31087610009126,151.31087610009126,151.67726929998025,151.67726929998025,151.67726929998025,151.67726929998025,151.67726929998025,151.67726929998025,151.67726929998025,151.67726929998025,151.67726929998025,23,0,,,151.67726929998025,151.87969750002958,1000,151.87969750002958,1000,1000,1000,1000,1,num_2,0.5805146999191493,,34,3,2026-03-13_10h22.12.394,2026A_exp2,2022.2.4,59.84340179204501,
0,0,0.0,4.9,0,0,42,42,54,,,,,152.47789099998772,153.12867130013183,153.12867130013183,153.62979130004533,45,315,153.62979130004533,153.62979130004533,153.62979130004533,153.62979130004533,153.62979130004533,153.62979130004533,153.62979130004533,153.62979130004533,153.62979130004533,153.99617519997992,153.99617519997992,153.99617519997992,153.99617519997992,153.99617519997992,153.99617519997992,153.99617519997992,153.99617519997992,153.99617519997992,23,0,,,153.99617519997992,154.19629290001467,4.9,154.19629290001467,1,4.9,1,1,1000,num_4,0.6561319997999817,,34,3,2026-03-13_10h22.12.394,2026A_exp2,2022.2.4,59.84340179204501,
1000,1,0.0,3.7,0,0,43,43,52,,,,,154.8803008000832,155.5310578001663,155.5310578001663,156.02079079998657,315,315,156.02079079998657,156.02079079998657,156.02079079998657,156.02079079998657,156.02079079998657,156.02079079998657,156.02079079998657,156.02079079998657,156.02079079998657,156.38210940011777,156.38210940011777,156.38210940011777,156.38210940011777,156.38210940011777,156.38210940011777,156.38210940011777,156.38210940011777,156.38210940011777,23,0,,,156.38210940011777,156.59829220012762,1000,156.59829220012762,1000,1000,1000,1000,1,num_2,0.7177209998480976,,34,3,2026-03-13_10h22.12.394,2026A_exp2,2022.2.4,59.84340179204501,
1000,1,4.9,0.0,0,0,44,44,58,,,,,157.33280610013753,157.98356950003654,157.98356950003654,158.4846904000733,315,45,158.4846904000733,158.4846904000733,158.4846904000733,158.4846904000733,158.4846904000733,158.4846904000733,158.4846904000733,158.4846904000733,158.4846904000733,158.8511959000025,158.8511959000025,158.8511959000025,158.8511959000025,158.8511959000025,158.8511959000025,158.8511959000025,158.8511959000025,158.8511959000025,0,1,[0.0012397998943924904],[0.3671328998170793],158.8511959000025,159.05287949997,1000,159.05287949997,1000,1000,1000,1000,0,num_3,0.4788638998288661,,34,3,2026-03-13_10h22.12.394,2026A_exp2,2022.2.4,59.84340179204501,
1000,1,4.9,0.0,1,0,45,45,72,,,,,159.55162369995378,160.20245430013165,160.20245430013165,160.70365040004253,315,45,160.70365040004253,160.70365040004253,160.70365040004253,160.70365040004253,160.70365040004253,160.70365040004253,160.70365040004253,160.70365040004253,160.70365040004253,161.07000500010327,161.07000500010327,161.07000500010327,161.07000500010327,161.07000500010327,161.07000500010327,161.07000500010327,161.07000500010327,161.07000500010327,0,1,[0.0011949001345783472],[0.3668945000972599],161.07000500010327,161.2719678999856,1000,161.2719678999856,1000,1000,1000,1000,0,num_3,0.5400055998470634,,34,3,2026-03-13_10h22.12.394,2026A_exp2,2022.2.4,59.84340179204501,
1,0,0.0,3.7,1,0,46,46,57,,,,,161.83755660010502,162.49023620015942,162.49023620015942,162.98892899998464,315,45,162.98892899998464,162.98892899998464,162.98892899998464,162.98892899998464,162.98892899998464,162.98892899998464,162.98892899998464,162.98892899998464,162.98892899998464,163.35526380012743,163.35526380012743,163.35526380012743,163.35526380012743,163.35526380012743,163.35526380012743,163.35526380012743,163.35526380012743,163.35526380012743,0,1,[0.00166229996830225],[0.36648950004018843],163.35526380012743,163.55580750014633,3.7,163.55580750014633,1,3.7,1,1,1000,num_4,0.5914060997311026,,34,3,2026-03-13_10h22.12.394,2026A_exp2,2022.2.4,59.84340179204501,
0,0,0.0,6.1,1,0,47,47,76,,,,,164.17295070015825,164.82379369996488,164.82379369996488,165.32487540016882,315,45,165.32487540016882,165.32487540016882,165.32487540016882,165.32487540016882,165.32487540016882,165.32487540016882,165.32487540016882,165.32487540016882,165.32487540016882,165.69120020000264,165.69120020000264,165.69120020000264,165.69120020000264,165.69120020000264,165.69120020000264,165.69120020000264,165.69120020000264,165.69120020000264,0,1,[0.001228800043463707],[0.36713879997842014],165.69120020000264,165.8914108001627,0.0,165.8914108001627,0,0.0,0,1,1000,num_1,0.5522852998692542,,34,3,2026-03-13_10h22.12.394,2026A_exp2,2022.2.4,59.84340179204501,
1000,1,3.7,6.1,0,0,48,48,28,,,,,166.47528320015408,167.12606120016426,167.12606120016426,167.61049410002306,45,45,167.61049410002306,167.61049410002306,167.61049410002306,167.61049410002306,167.61049410002306,167.61049410002306,167.61049410002306,167.61049410002306,167.61049410002306,167.97688520001248,167.97688520001248,167.97688520001248,167.97688520001248,167.97688520001248,167.97688520001248,167.97688520001248,167.97688520001248,167.97688520001248,0,1,[0.0011931001208722591],[0.3672084999270737],167.97688520001248,168.17805690015666,1000,168.17805690015666,1000,1000,1000,1000,1,num_2,0.5222818998154253,,34,3,2026-03-13_10h22.12.394,2026A_exp2,2022.2.4,59.84340179204501,
1000,1,3.7,0.0,1,0,49,49,79,,,,,168.72781049995683,169.37823140015826,169.37823140015826,169.8793730000034,315,45,169.8793730000034,169.8793730000034,169.8793730000034,169.8793730000034,169.8793730000034,169.8793730000034,169.8793730000034,169.8793730000034,169.8793730000034,170.24579100008123,170.24579100008123,170.24579100008123,170.24579100008123,170.24579100008123,170.24579100008123,170.24579100008123,170.24579100008123,170.24579100008123,23,0,,,170.24579100008123,170.448049900122,1000,170.448049900122,1000,1000,1000,1000,0,num_3,0.4924172000028193,,34,3,2026-03-13_10h22.12.394,2026A_exp2,2022.2.4,59.84340179204501,
1,0,4.9,0.0,1,0,50,50,4,,,,,170.9631095000077,171.61362790013663,171.61362790013663,172.11491260002367,45,45,172.11491260002367,172.11491260002367,172.11491260002367,172.11491260002367,172.11491260002367,172.11491260002367,172.11491260002367,172.11491260002367,172.11491260002367,172.46470480016433,172.46470480016433,172.46470480016433,172.46470480016433,172.46470480016433,172.46470480016433,172.46470480016433,172.46470480016433,172.46470480016433,22,0,,,172.46470480016433,172.66477310005575,0.0,172.68159090005793,1,0.0,0,0,1000,num_4,0.6501420000568032,,34,3,2026-03-13_10h22.12.394,2026A_exp2,2022.2.4,59.84340179204501,
0,0,0.0,0.0,1,0,51,51,62,,,,,173.34880709997378,173.99959300016053,173.99959300016053,174.48400670010597,315,45,174.48400670010597,174.48400670010597,174.48400670010597,174.48400670010597,174.48400670010597,174.48400670010597,174.48400670010597,174.48400670010597,174.48400670010597,174.850452600047,174.850452600047,174.850452600047,174.850452600047,174.850452600047,174.850452600047,174.850452600047,174.850452600047,174.850452600047,23,0,,,174.850452600047,175.05051210010424,0.0,175.05051210010424,0,0.0,0,1,1000,num_1,0.5365290998015553,,34,3,2026-03-13_10h22.12.394,2026A_exp2,2022.2.4,59.84340179204501,
1000,1,3.7,0.0,1,0,52,52,55,,,,,175.6178462000098,176.26846259995364,176.26846259995364,,315,315,176.76968690007925,176.76968690007925,176.76968690007925,176.76968690007925,176.76968690007925,176.76968690007925,176.76968690007925,176.76968690007925,176.76968690007925,177.11947040003724,177.11947040003724,177.11947040003724,177.11947040003724,177.11947040003724,177.11947040003724,177.11947040003724,177.11947040003724,177.11947040003724,22,0,,,177.11947040003724,177.31963200005703,1000,177.31963200005703,1000,1000,1000,1000,1,num_2,0.6043207999318838,,34,3,2026-03-13_10h22.12.394,2026A_exp2,2022.2.4,59.84340179204501,
0,0,0.0,0.0,1,0,53,53,8,,,,,177.95350400009193,178.6042716000229,178.6042716000229,179.1053704000078,315,315,179.1053704000078,179.1053704000078,179.1053704000078,179.1053704000078,179.1053704000078,179.1053704000078,179.1053704000078,179.1053704000078,179.1053704000078,179.47163309995085,179.47163309995085,179.47163309995085,179.47163309995085,179.47163309995085,179.47163309995085,179.47163309995085,179.47163309995085,179.47163309995085,8,2,"[0.06691799988038838, 0.20050579984672368]","[0.15039619989693165, 0.3672700999304652]",179.47163309995085,179.67189230001532,0.0,179.67189230001532,0,0.0,0,1,1000,num_1,0.5645298999734223,,34,3,2026-03-13_10h22.12.394,2026A_exp2,2022.2.4,59.84340179204501,
1000,1,3.7,3.7,1,0,54,54,40,,,,,180.2557210000232,180.90649520000443,180.90649520000443,181.39079750003293,315,315,181.39079750003293,181.39079750003293,181.39079750003293,181.39079750003293,181.39079750003293,181.39079750003293,181.39079750003293,181.39079750003293,181.39079750003293,181.75738860014826,181.75738860014826,181.75738860014826,181.75738860014826,181.75738860014826,181.75738860014826,181.75738860014826,181.75738860014826,181.75738860014826,23,0,,,181.75738860014826,181.95924600004219,1000,181.95924600004219,1000,1000,1000,1000,0,num_3,0.5807027998380363,,34,3,2026-03-13_10h22.12.394,2026A_exp2,2022.2.4,59.84340179204501,
0,0,4.9,0.0,0,0,55,55,30,,,,,182.5580009999685,183.20874490006827,183.20874490006827,183.70994410011917,45,315,183.70994410011917,183.70994410011917,183.70994410011917,183.70994410011917,183.70994410011917,183.70994410011917,183.70994410011917,183.70994410011917,183.70994410011917,184.0596755000297,184.0596755000297,184.0596755000297,184.0596755000297,184.0596755000297,184.0596755000297,184.0596755000297,184.0596755000297,184.0596755000297,22,0,,,184.0596755000297,184.25974930007942,0.0,184.25974930007942,0,0.0,0,1,1000,num_1,0.5918732997961342,,34,3,2026-03-13_10h22.12.394,2026A_exp2,2022.2.4,59.84340179204501,
1000,1,4.9,4.9,0,0,56,56,31,,,,,184.87700630002655,185.52768420008942,185.52768420008942,186.01217860006727,45,315,186.01217860006727,186.01217860006727,186.01217860006727,186.01217860006727,186.01217860006727,186.01217860006727,186.01217860006727,186.01217860006727,186.01217860006727,186.37856670003384,186.37856670003384,186.37856670003384,186.37856670003384,186.37856670003384,186.37856670003384,186.37856670003384,186.37856670003384,186.37856670003384,23,0,,,186.37856670003384,186.58056979998946,1000,186.58056979998946,1000,1000,1000,1000,0,num_3,0.4627771999221295,,34,3,2026-03-13_10h22.12.394,2026A_exp2,2022.2.4,59.84340179204501,
1000,1,4.9,3.7,1,0,57,57,67,,,,,187.06246390007436,187.7132979000453,187.7132979000453,188.2142872000113,315,45,188.2142872000113,188.2142872000113,188.2142872000113,188.2142872000113,188.2142872000113,188.2142872000113,188.2142872000113,188.2142872000113,188.2142872000113,188.56414160015993,188.56414160015993,188.56414160015993,188.56414160015993,188.56414160015993,188.56414160015993,188.56414160015993,188.56414160015993,188.56414160015993,22,0,,,188.56414160015993,188.76670090015978,1000,188.76670090015978,1000,1000,1000,1000,0,num_3,0.5246191998012364,,34,3,2026-03-13_10h22.12.394,2026A_exp2,2022.2.4,59.84340179204501,
0,0,0.0,3.7,1,0,58,58,21,,,,,189.31482610013336,189.96566620003432,189.96566620003432,190.4665272999555,315,315,190.4665272999555,190.4665272999555,190.4665272999555,190.4665272999555,190.4665272999555,190.4665272999555,190.4665272999555,190.4665272999555,190.4665272999555,190.8331653000787,190.8331653000787,190.8331653000787,190.8331653000787,190.8331653000787,190.8331653000787,190.8331653000787,190.8331653000787,190.8331653000787,17,3,"[0.23367039998993278, 0.28369039995595813, 0.36704249982722104]","[0.26701750000938773, 0.3170934999361634, 0.3670474998652935]",190.8331653000787,191.0331876000855,0.0,191.0331876000855,0,0.0,0,1,1000,num_1,0.49905329989269376,,34,3,2026-03-13_10h22.12.394,2026A_exp2,2022.2.4,59.84340179204501,
1000,1,0.0,3.7,1,0,59,59,80,,,,,191.55041250004433,192.20119659998454,192.20119659998454,192.68553300015628,315,45,192.68553300015628,192.68553300015628,192.68553300015628,192.68553300015628,192.68553300015628,192.68553300015628,192.68553300015628,192.68553300015628,192.68553300015628,193.05196549999528,193.05196549999528,193.05196549999528,193.05196549999528,193.05196549999528,193.05196549999528,193.05196549999528,193.05196549999528,193.05196549999528,23,0,,,193.05196549999528,193.25397570012137,1000,193.25397570012137,1000,1000,1000,1000,1,num_2,0.789549799868837,,34,3,2026-03-13_10h22.12.394,2026A_exp2,2022.2.4,59.84340179204501,
1,0,0.0,3.7,0,0,60,60,78,,,,,194.06958260014653,194.72031909995712,194.72031909995712,195.2212700000964,45,45,195.2212700000964,195.2212700000964,195.2212700000964,195.2212700000964,195.2212700000964,195.2212700000964,195.2212700000964,195.2212700000964,195.2212700000964,195.58756730007008,195.58756730007008,195.58756730007008,195.58756730007008,195.58756730007008,195.58756730007008,195.58756730007008,195.58756730007008,195.58756730007008,23,0,,,195.58756730007008,195.78790460014716,0.0,195.78790460014716,0,0.0,0,1,1000,num_1,0.5031454998534173,,34,3,2026-03-13_10h22.12.394,2026A_exp2,2022.2.4,59.84340179204501,
1,0,0.0,0.0,1,0,61,61,37,,,,,196.32202760013752,196.9725572001189,196.9725572001189,197.4570152000524,315,45,197.4570152000524,197.4570152000524,197.4570152000524,197.4570152000524,197.4570152000524,197.4570152000524,197.4570152000524,197.4570152000524,197.4570152000524,197.823359800037,197.823359800037,197.823359800037,197.823359800037,197.823359800037,197.823359800037,197.823359800037,197.823359800037,197.823359800037,23,0,,,197.823359800037,198.02346180006862,0.0,198.02346180006862,1,0.0,0,0,1000,num_4,0.7156636998988688,,34,3,2026-03-13_10h22.12.394,2026A_exp2,2022.2.4,59.84340179204501,
1000,1,0.0,6.1,1,0,62,62,88,,,,,198.7574702000711,199.40827140002511,199.40827140002511,199.89277680008672,315,45,199.89277680008672,199.89277680008672,199.89277680008672,199.89277680008672,199.89277680008672,199.89277680008672,199.89277680008672,199.89277680008672,199.89277680008672,200.2590610999614,200.2590610999614,200.2590610999614,200.2590610999614,200.2590610999614,200.2590610999614,200.2590610999614,200.2590610999614,200.2590610999614,0,1,[0.001241500023752451],[0.3672663001343608],200.2590610999614,200.4612990000751,1000,200.4612990000751,1000,1000,1000,1000,1,num_2,0.6540391000453383,,34,3,2026-03-13_10h22.12.394,2026A_exp2,2022.2.4,59.84340179204501,
1000,1,0.0,0.0,1,0,63,63,23,,,,,201.1432652999647,201.7940945001319,201.7940945001319,202.29516550013795,315,315,202.29516550013795,202.29516550013795,202.29516550013795,202.29516550013795,202.29516550013795,202.29516550013795,202.29516550013795,202.29516550013795,202.29516550013795,202.66122490004636,202.66122490004636,202.66122490004636,202.66122490004636,202.66122490004636,202.66122490004636,202.66122490004636,202.66122490004636,202.66122490004636,11,1,[0.0012079000007361174],[0.20008490001782775],202.66122490004636,202.8640678001102,1000,202.8640678001102,1000,1000,1000,1000,0,num_3,0.699098999844864,,34,3,2026-03-13_10h22.12.394,2026A_exp2,2022.2.4,59.84340179204501,
1,0,6.1,0.0,0,0,64,64,50,,,,,203.5790958001744,204.22977040009573,204.22977040009573,204.73080300004221,315,315,204.73080300004221,204.73080300004221,204.73080300004221,204.73080300004221,204.73080300004221,204.73080300004221,204.73080300004221,204.73080300004221,204.73080300004221,205.09735779999755,205.09735779999755,205.09735779999755,205.09735779999755,205.09735779999755,205.09735779999755,205.09735779999755,205.09735779999755,205.09735779999755,2,1,[0.0012885001488029957],[0.35053930012509227],205.09735779999755,205.297560099978,6.1,205.297560099978,1,6.1,1,1,1000,num_4,0.6342593997251242,,34,3,2026-03-13_10h22.12.394,2026A_exp2,2022.2.4,59.84340179204501,
1000,1,0.0,4.9,0,0,65,65,77,,,,,205.94812920014374,206.59853900014423,206.59853900014423,207.0831830999814,315,315,207.0831830999814,207.0831830999814,207.0831830999814,207.0831830999814,207.0831830999814,207.0831830999814,207.0831830999814,207.0831830999814,207.0831830999814,207.449901800137,207.449901800137,207.449901800137,207.449901800137,207.449901800137,207.449901800137,207.449901800137,207.449901800137,207.449901800137,23,0,,,207.449901800137,207.65177930006757,1000,207.65177930006757,1000,1000,1000,1000,1,num_2,0.5913285999558866,,34,3,2026-03-13_10h22.12.394,2026A_exp2,2022.2.4,59.84340179204501,
1000,1,0.0,4.9,1,0,66,66,51,,,,,208.26712079998106,208.91785660013556,208.91785660013556,209.41899599996395,45,315,209.41899599996395,209.41899599996395,209.41899599996395,209.41899599996395,209.41899599996395,209.41899599996395,209.41899599996395,209.41899599996395,209.41899599996395,209.76867990009487,209.76867990009487,209.76867990009487,209.76867990009487,209.76867990009487,209.76867990009487,209.76867990009487,209.76867990009487,209.76867990009487,22,0,,,209.76867990009487,209.97122359997593,1000,209.97122359997593,1000,1000,1000,1000,1,num_2,0.6728727999143302,,34,3,2026-03-13_10h22.12.394,2026A_exp2,2022.2.4,59.84340179204501,
1,0,0.0,0.0,1,0,67,67,70,,,,,210.66963970009238,211.3202124000527,211.3202124000527,211.80457919999026,45,45,211.80457919999026,211.80457919999026,211.80457919999026,211.80457919999026,211.80457919999026,211.80457919999026,211.80457919999026,211.80457919999026,211.80457919999026,212.17101219994947,212.17101219994947,212.17101219994947,212.17101219994947,212.17101219994947,212.17101219994947,212.17101219994947,212.17101219994947,212.17101219994947,23,0,,,212.17101219994947,212.3712765001692,0.0,212.3712765001692,1,0.0,0,0,1000,num_4,1.1043727998621762,,34,3,2026-03-13_10h22.12.394,2026A_exp2,2022.2.4,59.84340179204501,
1,0,4.9,6.1,0,0,68,68,15,,,,,213.5056568,214.1563236999791,214.1563236999791,214.6406620000489,45,45,214.6406620000489,214.6406620000489,214.6406620000489,214.6406620000489,214.6406620000489,214.6406620000489,214.6406620000489,214.6406620000489,214.6406620000489,215.00727730011567,215.00727730011567,215.00727730011567,215.00727730011567,215.00727730011567,215.00727730011567,215.00727730011567,215.00727730011567,215.00727730011567,0,1,[0.0012020999565720558],[0.3670673999004066],215.00727730011567,215.20736500015482,4.9,215.20736500015482,1,4.9,1,1,1000,num_4,0.7408316999208182,,34,3,2026-03-13_10h22.12.394,2026A_exp2,2022.2.4,59.84340179204501,
1000,1,0.0,3.7,0,0,69,69,44,,,,,215.97485939995386,216.62542060017586,216.62542060017586,217.10992270009592,45,45,217.10992270009592,217.10992270009592,217.10992270009592,217.10992270009592,217.10992270009592,217.10992270009592,217.10992270009592,217.10992270009592,217.10992270009592,217.47636279999278,217.47636279999278,217.47636279999278,217.47636279999278,217.47636279999278,217.47636279999278,217.47636279999278,217.47636279999278,217.47636279999278,0,1,[0.0012491000816226006],[0.3671486999373883],217.47636279999278,217.67892340011895,1000,217.67892340011895,1000,1000,1000,1000,1,num_2,0.5002241998445243,,34,3,2026-03-13_10h22.12.394,2026A_exp2,2022.2.4,59.84340179204501,
0,0,3.7,4.9,1,0,70,70,3,,,,,218.21055950014852,218.86115650017746,218.86115650017746,219.3621346000582,315,45,219.3621346000582,219.3621346000582,219.3621346000582,219.3621346000582,219.3621346000582,219.3621346000582,219.3621346000582,219.3621346000582,219.3621346000582,219.72858899994753,219.72858899994753,219.72858899994753,219.72858899994753,219.72858899994753,219.72858899994753,219.72858899994753,219.72858899994753,219.72858899994753,0,1,[0.0012159000616520643],[0.36736120004206896],219.72858899994753,219.92871150001884,3.7,219.92871150001884,0,3.7,1,0,1000,num_1,0.6351838998962194,,34,3,2026-03-13_10h22.12.394,2026A_exp2,2022.2.4,59.84340179204501,
1000,1,4.9,0.0,0,0,71,71,36,,,,,220.5961973001249,221.2301855001133,221.2301855001133,221.73130049998872,315,45,221.73130049998872,221.73130049998872,221.73130049998872,221.73130049998872,221.73130049998872,221.73130049998872,221.73130049998872,221.73130049998872,221.73130049998872,222.09747810009867,222.09747810009867,222.09747810009867,222.09747810009867,222.09747810009867,222.09747810009867,222.09747810009867,222.09747810009867,222.09747810009867,0,1,[0.001306300051510334],[0.3672011001035571],222.09747810009867,222.29983310005628,1000,222.29983310005628,1000,1000,1000,1000,0,num_3,0.511568799847737,,34,3,2026-03-13_10h22.12.394,2026A_exp2,2022.2.4,59.84340179204501,
1,0,0.0,6.1,0,0,72,72,5,,,,,222.83166810008697,223.48240800015628,223.48240800015628,223.98355909995735,315,45,223.98355909995735,223.98355909995735,223.98355909995735,223.98355909995735,223.98355909995735,223.98355909995735,223.98355909995735,223.98355909995735,223.98355909995735,224.34995750011876,224.34995750011876,224.34995750011876,224.34995750011876,224.34995750011876,224.34995750011876,224.34995750011876,224.34995750011876,224.34995750011876,0,1,[0.0012626999523490667],[0.36703299987129867],224.34995750011876,224.55013400013559,0.0,224.55013400013559,0,0.0,0,1,1000,num_1,0.5577031997963786,,34,3,2026-03-13_10h22.12.394,2026A_exp2,2022.2.4,59.84340179204501,
1000,1,6.1,3.7,1,0,73,73,24,,,,,225.13385800016113,225.7847321999725,225.7847321999725,226.26915649999864,315,315,226.26915649999864,226.26915649999864,226.26915649999864,226.26915649999864,226.26915649999864,226.26915649999864,226.26915649999864,226.26915649999864,226.26915649999864,226.63551499997266,226.63551499997266,226.63551499997266,226.63551499997266,226.63551499997266,226.63551499997266,226.63551499997266,226.63551499997266,226.63551499997266,0,1,[0.0011078999377787113],[0.367120600072667],226.63551499997266,226.83743160008453,1000,226.83743160008453,1000,1000,1000,1000,0,num_3,0.5417601999361068,,34,3,2026-03-13_10h22.12.394,2026A_exp2,2022.2.4,59.84340179204501,
1,0,0.0,0.0,0,0,74,74,38,,,,,227.40292510017753,228.05355229997076,228.05355229997076,228.55465820012614,45,45,228.55465820012614,228.55465820012614,228.55465820012614,228.55465820012614,228.55465820012614,228.55465820012614,228.55465820012614,228.55465820012614,228.55465820012614,228.9211136000231,228.9211136000231,228.9211136000231,228.9211136000231,228.9211136000231,228.9211136000231,228.9211136000231,228.9211136000231,228.9211136000231,0,1,[0.0013206000439822674],[0.3672966999001801],228.9211136000231,229.12126960000023,0.0,229.12126960000023,1,0.0,0,0,1000,num_4,1.1379089998081326,,34,3,2026-03-13_10h22.12.394,2026A_exp2,2022.2.4,59.84340179204501,
1,0,4.9,4.9,0,0,75,75,63,,,,,230.28897290001623,230.93989090016112,230.93989090016112,231.42403750005178,45,45,231.42403750005178,231.42403750005178,231.42403750005178,231.42403750005178,231.42403750005178,231.42403750005178,231.42403750005178,231.42403750005178,231.42403750005178,231.79059530002996,231.79059530002996,231.79059530002996,231.79059530002996,231.79059530002996,231.79059530002996,231.79059530002996,231.79059530002996,231.79059530002996,0,1,[0.0007340998854488134],[0.36782469996251166],231.79059530002996,231.9909521001391,4.9,231.9909521001391,0,4.9,1,0,1000,num_1,0.5409882997628301,,34,3,2026-03-13_10h22.12.394,2026A_exp2,2022.2.4,59.84340179204501,
1,0,4.9,4.9,1,0,76,76,89,,,,,232.55798369995318,233.20881280000322,233.20881280000322,233.6930971001275,315,315,233.6930971001275,233.6930971001275,233.6930971001275,233.6930971001275,233.6930971001275,233.6930971001275,233.6930971001275,233.6930971001275,233.6930971001275,234.05960500007495,234.05960500007495,234.05960500007495,234.05960500007495,234.05960500007495,234.05960500007495,234.05960500007495,234.05960500007495,234.05960500007495,0,1,[0.0012107000220566988],[0.36696290015242994],234.05960500007495,234.25983780017123,4.9,234.25983780017123,1,4.9,1,1,1000,num_4,0.7036445997655392,,34,3,2026-03-13_10h22.12.394,2026A_exp2,2022.2.4,59.84340179204501,
1000,1,0.0,0.0,1,0,77,77,29,,,,,234.99374930001795,235.64455309999175,235.64455309999175,236.12887300015427,45,315,236.12887300015427,236.12887300015427,236.12887300015427,236.12887300015427,236.12887300015427,236.12887300015427,236.12887300015427,236.12887300015427,236.12887300015427,236.49536729999818,236.49536729999818,236.49536729999818,236.49536729999818,236.49536729999818,236.49536729999818,236.49536729999818,236.49536729999818,236.49536729999818,0,1,[0.0012004999443888664],[0.36698980000801384],236.49536729999818,236.69559490005486,1000,236.69559490005486,1000,1000,1000,1000,0,num_3,0.523726899875328,,34,3,2026-03-13_10h22.12.394,2026A_exp2,2022.2.4,59.84340179204501,
1000,1,6.1,0.0,0,0,78,78,33,,,,,237.2462027000729,237.87999529996887,237.87999529996887,238.38125310000032,45,315,238.38125310000032,238.38125310000032,238.38125310000032,238.38125310000032,238.38125310000032,238.38125310000032,238.38125310000032,238.38125310000032,238.38125310000032,238.7477019999642,238.7477019999642,238.7477019999642,238.7477019999642,238.7477019999642,238.7477019999642,238.7477019999642,238.7477019999642,238.7477019999642,0,1,[0.0013150000013411045],[0.36698920000344515],238.7477019999642,238.94961330015212,1000,238.94961330015212,1000,1000,1000,1000,0,num_3,0.6620988997165114,,34,3,2026-03-13_10h22.12.394,2026A_exp2,2022.2.4,59.84340179204501,
1,0,3.7,0.0,1,0,79,79,74,,,,,239.6317611001432,240.2825496001169,240.2825496001169,240.78368060011417,315,45,240.78368060011417,240.78368060011417,240.78368060011417,240.78368060011417,240.78368060011417,240.78368060011417,240.78368060011417,240.78368060011417,240.78368060011417,241.150124900043,241.150124900043,241.150124900043,241.150124900043,241.150124900043,241.150124900043,241.150124900043,241.150124900043,241.150124900043,0,1,[0.0011496997904032469],[0.36722259991802275],241.150124900043,241.35011530015618,0.0,241.35011530015618,1,0.0,0,0,1000,num_4,0.5492706999648362,,34,3,2026-03-13_10h22.12.394,2026A_exp2,2022.2.4,59.84340179204501,
1,0,0.0,0.0,1,0,80,80,66,,,,,241.91732080001384,242.56820069998503,242.56820069998503,243.0524721001275,45,315,243.0524721001275,243.0524721001275,243.0524721001275,243.0524721001275,243.0524721001275,243.0524721001275,243.0524721001275,243.0524721001275,243.0524721001275,243.41897880006582,243.41897880006582,243.41897880006582,243.41897880006582,243.41897880006582,243.41897880006582,243.41897880006582,243.41897880006582,243.41897880006582,0,1,[0.0012056000996381044],[0.3674403000622988],243.41897880006582,243.61916900007054,0.0,243.61916900007054,1,0.0,0,0,1000,num_4,0.7048933000769466,,34,3,2026-03-13_10h22.12.394,2026A_exp2,2022.2.4,59.84340179204501,
1000,1,4.9,0.0,1,0,81,81,25,,,,,244.35331140016206,244.98707660008222,244.98707660008222,245.4881637999788,45,45,245.4881637999788,245.4881637999788,245.4881637999788,245.4881637999788,245.4881637999788,245.4881637999788,245.4881637999788,245.4881637999788,245.4881637999788,245.8547780001536,245.8547780001536,245.8547780001536,245.8547780001536,245.8547780001536,245.8547780001536,245.8547780001536,245.8547780001536,245.8547780001536,0,1,[0.0011982000432908535],[0.36709300009533763],245.8547780001536,246.05715030012652,1000,246.05715030012652,1000,1000,1000,1000,0,num_3,0.5382579998113215,,34,3,2026-03-13_10h22.12.394,2026A_exp2,2022.2.4,59.84340179204501,
1,0,0.0,0.0,0,0,82,82,81,,,,,246.62213500007056,247.2727677000221,247.2727677000221,247.7738648999948,45,45,247.7738648999948,247.7738648999948,247.7738648999948,247.7738648999948,247.7738648999948,247.7738648999948,247.7738648999948,247.7738648999948,247.7738648999948,248.14039680012502,248.14039680012502,248.14039680012502,248.14039680012502,248.14039680012502,248.14039680012502,248.14039680012502,248.14039680012502,248.14039680012502,0,1,[0.001262499950826168],[0.3671033999416977],248.14039680012502,248.34060320002027,0.0,248.34060320002027,1,0.0,0,0,1000,num_4,0.8316677997354418,,34,3,2026-03-13_10h22.12.394,2026A_exp2,2022.2.4,59.84340179204501,
1,0,6.1,4.9,1,0,83,83,35,,,,,249.19134540017694,249.84190990007482,249.84190990007482,250.34323320002295,45,45,250.34323320002295,250.34323320002295,250.34323320002295,250.34323320002295,250.34323320002295,250.34323320002295,250.34323320002295,250.34323320002295,250.34323320002295,250.70947150001302,250.70947150001302,250.70947150001302,250.70947150001302,250.70947150001302,250.70947150001302,250.70947150001302,250.70947150001302,250.70947150001302,0,1,[0.0011956000234931707],[0.3672946998849511],250.70947150001302,250.90986909996718,4.9,250.90986909996718,1,4.9,1,1,1000,num_4,0.5972839000169188,,34,3,2026-03-13_10h22.12.394,2026A_exp2,2022.2.4,59.84340179204501,
1000,1,0.0,4.9,0,0,84,84,11,,,,,251.52687590010464,252.1777715999633,252.1777715999633,252.66215240000747,315,45,252.66215240000747,252.66215240000747,252.66215240000747,252.66215240000747,252.66215240000747,252.66215240000747,252.66215240000747,252.66215240000747,252.66215240000747,253.02844940009527,253.02844940009527,253.02844940009527,253.02844940009527,253.02844940009527,253.02844940009527,253.02844940009527,253.02844940009527,253.02844940009527,0,1,[0.0012157999444752932],[0.3671174000483006],253.02844940009527,253.23045190004632,1000,253.23045190004632,1000,1000,1000,1000,0,num_3,0.7326976999174803,,34,3,2026-03-13_10h22.12.394,2026A_exp2,2022.2.4,59.84340179204501,
1000,1,0.0,0.0,0,0,85,85,20,,,,,253.97967629996128,254.63029880006798,254.63029880006798,255.13116640015505,45,45,255.13116640015505,255.13116640015505,255.13116640015505,255.13116640015505,255.13116640015505,255.13116640015505,255.13116640015505,255.13116640015505,255.13116640015505,255.497760000173,255.497760000173,255.497760000173,255.497760000173,255.497760000173,255.497760000173,255.497760000173,255.497760000173,255.497760000173,0,1,[0.001261100172996521],[0.36722660018131137],255.497760000173,255.69964080001228,1000,255.69964080001228,1000,1000,1000,1000,1,num_2,0.6881258997600526,,34,3,2026-03-13_10h22.12.394,2026A_exp2,2022.2.4,59.84340179204501,
1,0,4.9,0.0,1,0,86,86,6,,,,,256.41527610016055,257.0658404000569,257.0658404000569,257.56706390017644,315,45,257.56706390017644,257.56706390017644,257.56706390017644,257.56706390017644,257.56706390017644,257.56706390017644,257.56706390017644,257.56706390017644,257.56706390017644,257.93349870014936,257.93349870014936,257.93349870014936,257.93349870014936,257.93349870014936,257.93349870014936,257.93349870014936,257.93349870014936,257.93349870014936,0,1,[0.001196000026538968],[0.3669334000442177],257.93349870014936,258.13366020005196,0.0,258.13366020005196,0,0.0,0,1,1000,num_1,0.597802999895066,,34,3,2026-03-13_10h22.12.394,2026A_exp2,2022.2.4,59.84340179204501,
1000,1,0.0,6.1,0,0,87,87,34,,,,,258.7509201001376,259.41230299999006,259.41230299999006,259.8861216001678,45,315,259.8861216001678,259.8861216001678,259.8861216001678,259.8861216001678,259.8861216001678,259.8861216001678,259.8861216001678,259.8861216001678,259.8861216001678,260.2524397999514,260.2524397999514,260.2524397999514,260.2524397999514,260.2524397999514,260.2524397999514,260.2524397999514,260.2524397999514,260.2524397999514,0,1,[0.0014374000020325184],[0.3671746999025345],260.2524397999514,260.45439220010303,1000,260.45439220010303,1000,1000,1000,1000,1,num_2,0.9893145998939872,,34,3,2026-03-13_10h22.12.394,2026A_exp2,2022.2.4,59.84340179204501,
1,0,4.9,0.0,0,0,88,88,48,,,,,261.47060500015505,262.12092520017177,262.12092520017177,262.6055052001029,45,45,262.6055052001029,262.6055052001029,262.6055052001029,262.6055052001029,262.6055052001029,262.6055052001029,262.6055052001029,262.6055052001029,262.6055052001029,262.971623999998,262.971623999998,262.971623999998,262.971623999998,262.971623999998,262.971623999998,262.971623999998,262.971623999998,262.971623999998,0,1,[0.001213999930769205],[0.3673090999945998],262.971623999998,263.1719162000809,4.9,263.1719162000809,1,4.9,1,1,1000,num_4,0.8319738998543471,,34,3,2026-03-13_10h22.12.394,2026A_exp2,2022.2.4,59.84340179204501,
1000,1,0.0,0.0,1,0,89,89,14,,,,,264.0228476000484,264.67348979995586,264.67348979995586,265.1578883000184,45,45,265.1578883000184,265.1578883000184,265.1578883000184,265.1578883000184,265.1578883000184,265.1578883000184,265.1578883000184,265.1578883000184,265.1578883000184,265.52417109999806,265.52417109999806,265.52417109999806,265.52417109999806,265.52417109999806,265.52417109999806,265.52417109999806,265.52417109999806,265.52417109999806,0,1,[0.0012393000070005655],[0.3671440000180155],265.52417109999806,265.72630420001224,1000,265.72630420001224,1000,1000,1000,1000,1,num_2,0.7177657997235656,,34,3,2026-03-13_10h22.12.394,2026A_exp2,2022.2.4,59.84340179204501,
,,,,,,,,,,,,,,,,,,,,,,,,,,,,,,,,,,,,,,,,,,,,,,,,,,,,266.4840752000455,,,,,,,
