validity,detectorcomp,contrastCW,contrastCCW,precueCWorCCW,block_80trials.thisRepN,block_80trials.thisTrialN,block_80trials.thisN,block_80trials.thisIndex,etRecord.started,etRecord.stopped,text.started,text.stopped,text_4.started,text_4.stopped,text_6.started,text_6.stopped,oriCW,oriCCW,roi_2.started,grating_UR.started,grating_UL.started,grating_LR.started,grating_LL.started,noise_UR.started,noise_UL.started,noise_LR.started,noise_LL.started,roi_2.stopped,grating_UR.stopped,grating_UL.stopped,grating_LR.stopped,grating_LL.stopped,noise_UR.stopped,noise_UL.stopped,noise_LR.stopped,noise_LL.stopped,outframe,roi_2.numLooks,roi_2.timesOn,roi_2.timesOff,text_2.started,text_2.stopped,probedcontrast,key_resp.started,respdetect,relevantContrast,correctDetect,TorFdetect,respCWorCCW,key_resp.keys,key_resp.rt,feedback_display_.started,participantNo,blockNo,date,expName,psychopyVersion,frameRate,
1000,1,3.7,0.0,1,0,0,0,78,0.00013079994823783636,0.00013079994823783636,49.44989129999885,51.45444459997816,51.45444459997816,52.08683729998302,52.08683729998302,52.60701819998212,45,45,52.60701819998212,52.60701819998212,52.60701819998212,52.60701819998212,52.60701819998212,52.60701819998212,52.60701819998212,52.60701819998212,52.60701819998212,52.95294990000548,52.95294990000548,52.95294990000548,52.95294990000548,52.95294990000548,52.95294990000548,52.95294990000548,52.95294990000548,52.95294990000548,0,1,[0.0009623999940231442],[0.3668370000086725],52.95294990000548,53.15351989999181,1000,53.15351989999181,1000,1000,1000,1000,0,num_3,0.7036246000207029,,24,7,2026-03-04_15h44.59.615,2026A_exp2,2022.2.4,59.97458277377605,
1,0,0.0,0.0,1,0,1,1,59,,,,,53.88725859997794,54.53790719999233,54.53790719999233,55.02214369998546,45,315,55.02214369998546,55.02214369998546,55.02214369998546,55.02214369998546,55.02214369998546,55.02214369998546,55.02214369998546,55.02214369998546,55.02214369998546,55.38864229997853,55.38864229997853,55.38864229997853,55.38864229997853,55.38864229997853,55.38864229997853,55.38864229997853,55.38864229997853,55.38864229997853,0,1,[0.0008200000156648457],[0.3674812000244856],55.38864229997853,55.5888002999709,0.0,55.5888002999709,0,0.0,0,1,1000,num_1,0.8600298000383191,,24,7,2026-03-04_15h44.59.615,2026A_exp2,2022.2.4,59.97458277377605,
0,0,4.9,0.0,1,0,2,2,26,,,,,56.47330439998768,57.12397159996908,57.12397159996908,57.60815039998852,45,45,57.60815039998852,57.60815039998852,57.60815039998852,57.60815039998852,57.60815039998852,57.60815039998852,57.60815039998852,57.60815039998852,57.60815039998852,57.97447610000381,57.97447610000381,57.97447610000381,57.97447610000381,57.97447610000381,57.97447610000381,57.97447610000381,57.97447610000381,57.97447610000381,0,1,[0.0009512000251561403],[0.3670101999887265],57.97447610000381,58.17485000001034,4.9,58.17485000001034,1,4.9,1,1,1000,num_4,1.3619329999783076,,24,7,2026-03-04_15h44.59.615,2026A_exp2,2022.2.4,59.97458277377605,
0,0,3.7,3.7,1,0,3,3,62,,,,,59.559525099990424,60.21038479998242,60.21038479998242,60.69456909998553,45,45,60.69456909998553,60.69456909998553,60.69456909998553,60.69456909998553,60.69456909998553,60.69456909998553,60.69456909998553,60.69456909998553,60.69456909998553,61.061174599977676,61.061174599977676,61.061174599977676,61.061174599977676,61.061174599977676,61.061174599977676,61.061174599977676,61.061174599977676,61.061174599977676,10,2,"[0.0007612999761477113, 0.1840976999956183]","[0.15066320000914857, 0.2506087999790907]",61.061174599977676,61.26103910000529,3.7,61.26103910000529,0,3.7,1,0,1000,num_1,1.1967268000007607,,24,7,2026-03-04_15h44.59.615,2026A_exp2,2022.2.4,59.97458277377605,
1,0,0.0,4.9,1,0,4,4,73,,,,,62.479181199974846,63.112976100004744,63.112976100004744,63.6146035999991,45,315,63.6146035999991,63.6146035999991,63.6146035999991,63.6146035999991,63.6146035999991,63.6146035999991,63.6146035999991,63.6146035999991,63.6146035999991,63.980813700007275,63.980813700007275,63.980813700007275,63.980813700007275,63.980813700007275,63.980813700007275,63.980813700007275,63.980813700007275,63.980813700007275,15,3,"[0.0010094000026583672, 0.10061610001139343, 0.2832075000042096]","[0.08363110001664609, 0.133780799980741, 0.2998638999997638]",63.980813700007275,64.18119749997277,4.9,64.18119749997277,1,4.9,1,1,1000,num_4,0.7001857999712229,,24,7,2026-03-04_15h44.59.615,2026A_exp2,2022.2.4,59.97458277377605,
1000,1,0.0,4.9,1,0,5,5,72,,,,,64.8983528999961,65.53184790001251,65.53184790001251,66.03429109998979,45,45,66.03429109998979,66.03429109998979,66.03429109998979,66.03429109998979,66.03429109998979,66.03429109998979,66.03429109998979,66.03429109998979,66.03429109998979,66.39937249996001,66.39937249996001,66.39937249996001,66.39937249996001,66.39937249996001,66.39937249996001,66.39937249996001,66.39937249996001,66.39937249996001,13,4,"[0.01777029997901991, 0.08423249999759719, 0.15067160001490265, 0.2663662999984808]","[0.06692569999722764, 0.09998160001123324, 0.1840360999922268, 0.3330143999774009]",66.39937249996001,66.60010529996362,1000,66.60010529996362,1000,1000,1000,1000,1,num_2,0.8009284000145271,,24,7,2026-03-04_15h44.59.615,2026A_exp2,2022.2.4,59.97458277377605,
1,0,6.1,3.7,1,0,6,6,16,,,,,67.4173785999883,68.06778109999141,68.06778109999141,68.55270389997168,315,45,68.55270389997168,68.55270389997168,68.55270389997168,68.55270389997168,68.55270389997168,68.55270389997168,68.55270389997168,68.55270389997168,68.55270389997168,68.91904429998249,68.91904429998249,68.91904429998249,68.91904429998249,68.91904429998249,68.91904429998249,68.91904429998249,68.91904429998249,68.91904429998249,0,1,[0.0009011999936774373],[0.3669851999729872],68.91904429998249,69.11910079995869,3.7,69.11910079995869,1,3.7,1,1,1000,num_4,0.8981600000406615,,24,7,2026-03-04_15h44.59.615,2026A_exp2,2022.2.4,59.97458277377605,
1,0,0.0,0.0,0,0,7,7,39,,,,,70.03655229997821,70.67082979995757,70.67082979995757,71.17167289997451,315,315,71.17167289997451,71.17167289997451,71.17167289997451,71.17167289997451,71.17167289997451,71.17167289997451,71.17167289997451,71.17167289997451,71.17167289997451,71.5383227999555,71.5383227999555,71.5383227999555,71.5383227999555,71.5383227999555,71.5383227999555,71.5383227999555,71.5383227999555,71.5383227999555,17,6,"[0.0010936000035144389, 0.03347229998325929, 0.06668430002173409, 0.10011539998231456, 0.1337614000076428, 0.21696679998422042]","[0.017470200022216886, 0.050162100000306964, 0.08396040002116933, 0.1172305999789387, 0.15029530000174418, 0.23383629997260869]",71.5383227999555,71.73846299998695,0.0,71.73846299998695,0,0.0,0,1,1000,num_1,0.7188832000247203,,24,7,2026-03-04_15h44.59.615,2026A_exp2,2022.2.4,59.97458277377605,
1000,1,4.9,0.0,1,0,8,8,84,,,,,72.48877239995636,73.12329959997442,73.12329959997442,73.62429639999755,315,315,73.62429639999755,73.62429639999755,73.62429639999755,73.62429639999755,73.62429639999755,73.62429639999755,73.62429639999755,73.62429639999755,73.62429639999755,73.99080869997852,73.99080869997852,73.99080869997852,73.99080869997852,73.99080869997852,73.99080869997852,73.99080869997852,73.99080869997852,73.99080869997852,0,1,[0.0007316999835893512],[0.36750449996907264],73.99080869997852,74.19082640000852,1000,74.19082640000852,1000,1000,1000,1000,0,num_3,0.6507665999815799,,24,7,2026-03-04_15h44.59.615,2026A_exp2,2022.2.4,59.97458277377605,
1,0,4.9,0.0,0,0,9,9,47,,,,,74.85842790000606,75.49213979998603,75.49213979998603,75.99334619997535,315,45,75.99334619997535,75.99334619997535,75.99334619997535,75.99334619997535,75.99334619997535,75.99334619997535,75.99334619997535,75.99334619997535,75.99334619997535,76.35980340000242,76.35980340000242,76.35980340000242,76.35980340000242,76.35980340000242,76.35980340000242,76.35980340000242,76.35980340000242,76.35980340000242,0,1,[0.000750600011087954],[0.3672618999844417],76.35980340000242,76.55990349996137,4.9,76.55990349996137,1,4.9,1,1,1000,num_4,0.6727663000347093,,24,7,2026-03-04_15h44.59.615,2026A_exp2,2022.2.4,59.97458277377605,
0,0,0.0,6.1,1,0,10,10,46,,,,,77.2606043999549,77.89438229997177,77.89438229997177,78.39553839998553,315,315,78.39553839998553,78.39553839998553,78.39553839998553,78.39553839998553,78.39553839998553,78.39553839998553,78.39553839998553,78.39553839998553,78.39553839998553,78.76216109999223,78.76216109999223,78.76216109999223,78.76216109999223,78.76216109999223,78.76216109999223,78.76216109999223,78.76216109999223,78.76216109999223,0,1,[0.0007327999919652939],[0.36749350000172853],78.76216109999223,78.96247389999917,0.0,78.96247389999917,0,0.0,0,1,1000,num_1,1.2863514000200666,,24,7,2026-03-04_15h44.59.615,2026A_exp2,2022.2.4,59.97458277377605,
1,0,3.7,0.0,0,0,11,11,3,,,,,80.28025489998981,80.93139079998946,80.93139079998946,81.41508279996924,45,315,81.41508279996924,81.41508279996924,81.41508279996924,81.41508279996924,81.41508279996924,81.41508279996924,81.41508279996924,81.41508279996924,81.41508279996924,81.78167920000851,81.78167920000851,81.78167920000851,81.78167920000851,81.78167920000851,81.78167920000851,81.78167920000851,81.78167920000851,81.78167920000851,2,5,"[0.0007767999777570367, 0.08419119997415692, 0.2507896000170149, 0.33449159999145195, 0.3673026000033133]","[0.06758109998190776, 0.23411720001604408, 0.3172469999990426, 0.350764499977231, 0.3673053999664262]",81.78167920000851,81.9818915000069,3.7,81.9818915000069,1,3.7,1,1,1000,num_4,0.5234861000208184,,24,7,2026-03-04_15h44.59.615,2026A_exp2,2022.2.4,59.97458277377605,
1000,1,4.9,3.7,0,0,12,12,40,,,,,82.53260009997757,83.16690419998486,83.16690419998486,83.6673710999894,45,315,83.6673710999894,83.6673710999894,83.6673710999894,83.6673710999894,83.6673710999894,83.6673710999894,83.6673710999894,83.6673710999894,83.6673710999894,84.03424519998953,84.03424519998953,84.03424519998953,84.03424519998953,84.03424519998953,84.03424519998953,84.03424519998953,84.03424519998953,84.03424519998953,11,5,"[0.0009444999741390347, 0.049835699959658086, 0.1496538000064902, 0.20012819999828935, 0.266933600010816]","[0.03303190000588074, 0.13305649999529123, 0.18338619999121875, 0.21689290000358596, 0.29994880000595003]",84.03424519998953,84.2341744999867,1000,84.2341744999867,1000,1000,1000,1000,0,num_3,0.8233749999781139,,24,7,2026-03-04_15h44.59.615,2026A_exp2,2022.2.4,59.97458277377605,
1,0,4.9,6.1,1,0,13,13,36,,,,,85.0863309999695,85.73585299996193,85.73585299996193,86.23698429996148,45,315,86.23698429996148,86.23698429996148,86.23698429996148,86.23698429996148,86.23698429996148,86.23698429996148,86.23698429996148,86.23698429996148,86.23698429996148,86.60339679999743,86.60339679999743,86.60339679999743,86.60339679999743,86.60339679999743,86.60339679999743,86.60339679999743,86.60339679999743,86.60339679999743,7,6,"[0.0010584999690763652, 0.10012040002038702, 0.183827199973166, 0.21684810001170263, 0.26700809999601915, 0.36714350001420826]","[0.08341700001619756, 0.13348299998324364, 0.2002280000015162, 0.2503242999664508, 0.35085350001463667, 0.367146699980367]",86.60339679999743,86.80355289997533,6.1,86.80355289997533,1,6.1,1,1,1000,num_4,0.5898998000193387,,24,7,2026-03-04_15h44.59.615,2026A_exp2,2022.2.4,59.97458277377605,
1000,1,0.0,0.0,1,0,14,14,35,,,,,87.42070289998082,88.05472099996405,88.05472099996405,88.555974399962,315,45,88.555974399962,88.555974399962,88.555974399962,88.555974399962,88.555974399962,88.555974399962,88.555974399962,88.555974399962,88.555974399962,88.92222579999361,88.92222579999361,88.92222579999361,88.92222579999361,88.92222579999361,88.92222579999361,88.92222579999361,88.92222579999361,88.92222579999361,2,2,"[0.0007243999862112105, 0.33350040001096204]","[0.28383089997805655, 0.36683840001933277]",88.92222579999361,89.12251349998405,1000,89.12251349998405,1000,1000,1000,1000,0,num_3,1.1827599999960512,,24,7,2026-03-04_15h44.59.615,2026A_exp2,2022.2.4,59.97458277377605,
0,0,6.1,6.1,1,0,15,15,48,,,,,90.32383020000998,90.95784139999887,90.95784139999887,91.4589403999853,45,45,91.4589403999853,91.4589403999853,91.4589403999853,91.4589403999853,91.4589403999853,91.4589403999853,91.4589403999853,91.4589403999853,91.4589403999853,91.825373700005,91.825373700005,91.825373700005,91.825373700005,91.825373700005,91.825373700005,91.825373700005,91.825373700005,91.825373700005,22,1,[0.33384350000415],[0.35080870002275333],91.825373700005,92.02564349997556,6.1,92.02564349997556,1,6.1,1,1,1000,num_4,0.6790663999854587,,24,7,2026-03-04_15h44.59.615,2026A_exp2,2022.2.4,59.97458277377605,
1000,1,0.0,4.9,1,0,16,16,57,,,,,92.72653449996142,93.37676359998295,93.37676359998295,93.86116989998845,315,45,93.86116989998845,93.86116989998845,93.86116989998845,93.86116989998845,93.86116989998845,93.86116989998845,93.86116989998845,93.86116989998845,93.86116989998845,94.2277986999834,94.2277986999834,94.2277986999834,94.2277986999834,94.2277986999834,94.2277986999834,94.2277986999834,94.2277986999834,94.2277986999834,3,4,"[0.0009952999535016716, 0.06706829997710884, 0.2665162999765016, 0.35080829996149987]","[0.03267699998104945, 0.2340340999653563, 0.3346861999598332, 0.36737100000027567]",94.2277986999834,94.42773549997946,1000,94.42773549997946,1000,1000,1000,1000,1,num_2,0.740831499977503,,24,7,2026-03-04_15h44.59.615,2026A_exp2,2022.2.4,59.97458277377605,
1000,1,0.0,0.0,0,0,17,17,24,,,,,95.19490050000604,95.82882190000964,95.82882190000964,96.3307538999943,45,45,96.3307538999943,96.3307538999943,96.3307538999943,96.3307538999943,96.3307538999943,96.3307538999943,96.3307538999943,96.3307538999943,96.3307538999943,96.69641859998228,96.69641859998228,96.69641859998228,96.69641859998228,96.69641859998228,96.69641859998228,96.69641859998228,96.69641859998228,96.69641859998228,1,2,"[0.0007463999791070819, 0.2668644999503158]","[0.2503118999884464, 0.36741859995527193]",96.69641859998228,96.89707119995728,1000,96.89707119995728,1000,1000,1000,1000,0,num_3,0.7359101000474766,,24,7,2026-03-04_15h44.59.615,2026A_exp2,2022.2.4,59.97458277377605,
1000,1,0.0,0.0,1,0,18,18,44,,,,,97.6646417999873,98.31489789998159,98.31489789998159,98.79942830000073,315,45,98.79942830000073,98.79942830000073,98.79942830000073,98.79942830000073,98.79942830000073,98.79942830000073,98.79942830000073,98.79942830000073,98.79942830000073,99.1657951999805,99.1657951999805,99.1657951999805,99.1657951999805,99.1657951999805,99.1657951999805,99.1657951999805,99.1657951999805,99.1657951999805,19,1,[0.0009064999758265913],[0.06671649997588247],99.1657951999805,99.36628009995911,1000,99.36628009995911,1000,1000,1000,1000,0,num_3,0.4986052000313066,,24,7,2026-03-04_15h44.59.615,2026A_exp2,2022.2.4,59.97458277377605,
1,0,3.7,6.1,1,0,19,19,75,,,,,99.88327409996418,100.53382010001224,100.53382010001224,101.01817719999235,45,315,101.01817719999235,101.01817719999235,101.01817719999235,101.01817719999235,101.01817719999235,101.01817719999235,101.01817719999235,101.01817719999235,101.01817719999235,101.38461899996037,101.38461899996037,101.38461899996037,101.38461899996037,101.38461899996037,101.38461899996037,101.38461899996037,101.38461899996037,101.38461899996037,0,1,[0.0008911000331863761],[0.36737799999536946],101.38461899996037,101.58487949997652,6.1,101.58487949997652,1,6.1,1,1,1000,num_4,0.7038728999905288,,24,7,2026-03-04_15h44.59.615,2026A_exp2,2022.2.4,59.97458277377605,
1,0,0.0,0.0,0,0,20,20,11,,,,,102.31938219995936,102.9529968999559,102.9529968999559,103.45415720000165,45,45,103.45415720000165,103.45415720000165,103.45415720000165,103.45415720000165,103.45415720000165,103.45415720000165,103.45415720000165,103.45415720000165,103.45415720000165,103.82059739995748,103.82059739995748,103.82059739995748,103.82059739995748,103.82059739995748,103.82059739995748,103.82059739995748,103.82059739995748,103.82059739995748,0,1,[0.0009147000382654369],[0.36665240000002086],103.82059739995748,104.02109439997002,0.0,104.02109439997002,0,0.0,0,1,1000,num_1,0.7479738000547513,,24,7,2026-03-04_15h44.59.615,2026A_exp2,2022.2.4,59.97458277377605,
0,0,6.1,4.9,1,0,21,21,42,,,,,104.78816920000827,105.43871219997527,105.43871219997527,105.92329199996311,315,315,105.92329199996311,105.92329199996311,105.92329199996311,105.92329199996311,105.92329199996311,105.92329199996311,105.92329199996311,105.92329199996311,105.92329199996311,106.2899475999875,106.2899475999875,106.2899475999875,106.2899475999875,106.2899475999875,106.2899475999875,106.2899475999875,106.2899475999875,106.2899475999875,0,1,[0.0008504000143148005],[0.3669755000155419],106.2899475999875,106.48987879999913,6.1,106.48987879999913,0,6.1,1,0,1000,num_1,1.215120200009551,,24,7,2026-03-04_15h44.59.615,2026A_exp2,2022.2.4,59.97458277377605,
1,0,3.7,0.0,0,0,22,22,10,,,,,107.72435029997723,108.37518849998014,108.37518849998014,108.87660259997938,45,45,108.87660259997938,108.87660259997938,108.87660259997938,108.87660259997938,108.87660259997938,108.87660259997938,108.87660259997938,108.87660259997938,108.87660259997938,109.2427584999823,109.2427584999823,109.2427584999823,109.2427584999823,109.2427584999823,109.2427584999823,109.2427584999823,109.2427584999823,109.2427584999823,23,0,,,109.2427584999823,109.44303989998298,3.7,109.44303989998298,1,3.7,1,1,1000,num_4,0.7576331000309438,,24,7,2026-03-04_15h44.59.615,2026A_exp2,2022.2.4,59.97458277377605,
1,0,6.1,0.0,1,0,23,23,17,,,,,110.22684540000046,110.86073869996471,110.86073869996471,111.36170949996449,315,315,111.36170949996449,111.36170949996449,111.36170949996449,111.36170949996449,111.36170949996449,111.36170949996449,111.36170949996449,111.36170949996449,111.36170949996449,111.72820909996517,111.72820909996517,111.72820909996517,111.72820909996517,111.72820909996517,111.72820909996517,111.72820909996517,111.72820909996517,111.72820909996517,23,0,,,111.72820909996517,111.92857409996213,0.0,111.92857409996213,0,0.0,0,1,1000,num_1,0.8243967000162229,,24,7,2026-03-04_15h44.59.615,2026A_exp2,2022.2.4,59.97458277377605,
1000,1,4.9,0.0,0,0,24,24,45,,,,,112.77957009995589,113.41328539996175,113.41328539996175,113.91451979998965,45,315,113.91451979998965,113.91451979998965,113.91451979998965,113.91451979998965,113.91451979998965,113.91451979998965,113.91451979998965,113.91451979998965,113.91451979998965,114.28091769997263,114.28091769997263,114.28091769997263,114.28091769997263,114.28091769997263,114.28091769997263,114.28091769997263,114.28091769997263,114.28091769997263,0,1,[0.000907599984202534],[0.36710249999305233],114.28091769997263,114.48146619996987,1000,114.48146619996987,1000,1000,1000,1000,0,num_3,0.7433609000290744,,24,7,2026-03-04_15h44.59.615,2026A_exp2,2022.2.4,59.97458277377605,
1,0,4.9,4.9,0,0,25,25,28,,,,,115.24877209996339,115.8992014999967,115.8992014999967,116.38355669996236,315,315,116.38355669996236,116.38355669996236,116.38355669996236,116.38355669996236,116.38355669996236,116.38355669996236,116.38355669996236,116.38355669996236,116.38355669996236,116.75009009998757,116.75009009998757,116.75009009998757,116.75009009998757,116.75009009998757,116.75009009998757,116.75009009998757,116.75009009998757,116.75009009998757,23,0,,,116.75009009998757,116.9502013999736,4.9,116.9502013999736,1,4.9,1,1,1000,num_4,0.8267798000015318,,24,7,2026-03-04_15h44.59.615,2026A_exp2,2022.2.4,59.97458277377605,
1000,1,0.0,0.0,1,0,26,26,68,,,,,117.80092299997341,118.43500110000605,118.43500110000605,118.93647829996189,315,45,118.93647829996189,118.93647829996189,118.93647829996189,118.93647829996189,118.93647829996189,118.93647829996189,118.93647829996189,118.93647829996189,118.93647829996189,119.30250190000515,119.30250190000515,119.30250190000515,119.30250190000515,119.30250190000515,119.30250190000515,119.30250190000515,119.30250190000515,119.30250190000515,0,1,[0.0008937999955378473],[0.36691839998820797],119.30250190000515,119.50275200000033,1000,119.50275200000033,1000,1000,1000,1000,0,num_3,0.8658198000048287,,24,7,2026-03-04_15h44.59.615,2026A_exp2,2022.2.4,59.97458277377605,
1,0,6.1,3.7,1,0,27,27,83,,,,,120.38694579998264,121.02111639996292,121.02111639996292,121.52193779998925,45,315,121.52193779998925,121.52193779998925,121.52193779998925,121.52193779998925,121.52193779998925,121.52193779998925,121.52193779998925,121.52193779998925,121.52193779998925,121.8888358999975,121.8888358999975,121.8888358999975,121.8888358999975,121.8888358999975,121.8888358999975,121.8888358999975,121.8888358999975,121.8888358999975,1,2,"[0.0008299999753944576, 0.3508523000054993]","[0.33416999998735264, 0.36761630000546575]",121.8888358999975,122.08925699995598,3.7,122.08925699995598,1,3.7,1,1,1000,num_4,0.8320492999628186,,24,7,2026-03-04_15h44.59.615,2026A_exp2,2022.2.4,59.97458277377605,
1,0,3.7,3.7,0,0,28,28,60,,,,,122.93976139998995,123.57350229995791,123.57350229995791,124.07490529998904,45,45,124.07490529998904,124.07490529998904,124.07490529998904,124.07490529998904,124.07490529998904,124.07490529998904,124.07490529998904,124.07490529998904,124.07490529998904,124.4418240999803,124.4418240999803,124.4418240999803,124.4418240999803,124.4418240999803,124.4418240999803,124.4418240999803,124.4418240999803,124.4418240999803,6,1,[0.0009011999936774373],[0.28374710003845394],124.4418240999803,124.64209159999155,3.7,124.64209159999155,1,3.7,1,1,1000,num_4,0.6715473000076599,,24,7,2026-03-04_15h44.59.615,2026A_exp2,2022.2.4,59.97458277377605,
1,0,3.7,0.0,0,0,29,29,9,,,,,125.34214470000006,125.99276459997054,125.99276459997054,126.47688339999877,315,45,126.47688339999877,126.47688339999877,126.47688339999877,126.47688339999877,126.47688339999877,126.47688339999877,126.47688339999877,126.47688339999877,126.47688339999877,126.84336749999784,126.84336749999784,126.84336749999784,126.84336749999784,126.84336749999784,126.84336749999784,126.84336749999784,126.84336749999784,126.84336749999784,0,1,[0.000999300042167306],[0.3672600000281818],126.84336749999784,127.04376099997899,3.7,127.04376099997899,1,3.7,1,1,1000,num_4,0.5492700000177138,,24,7,2026-03-04_15h44.59.615,2026A_exp2,2022.2.4,59.97458277377605,
1000,1,0.0,3.7,0,0,30,30,50,,,,,127.61096610000823,128.26237630000105,128.26237630000105,128.76215669995872,45,315,128.76215669995872,128.76215669995872,128.76215669995872,128.76215669995872,128.76215669995872,128.76215669995872,128.76215669995872,128.76215669995872,128.76215669995872,129.1123488000012,129.1123488000012,129.1123488000012,129.1123488000012,129.1123488000012,129.1123488000012,129.1123488000012,129.1123488000012,129.1123488000012,0,1,[0.0008417000062763691],[0.35100989998318255],129.1123488000012,129.31268179998733,1000,129.31268179998733,1000,1000,1000,1000,1,num_2,0.8802193000447005,,24,7,2026-03-04_15h44.59.615,2026A_exp2,2022.2.4,59.97458277377605,
1,0,0.0,0.0,0,0,31,31,85,,,,,130.21331199997803,130.86378670000704,130.86378670000704,131.3486287999549,45,45,131.3486287999549,131.3486287999549,131.3486287999549,131.3486287999549,131.3486287999549,131.3486287999549,131.3486287999549,131.3486287999549,131.3486287999549,131.73167409998132,131.73167409998132,131.73167409998132,131.73167409998132,131.73167409998132,131.73167409998132,131.73167409998132,131.73167409998132,131.73167409998132,1,2,"[0.0007479999912902713, 0.21694000001298264]","[0.20014390000142157, 0.3835187999648042]",131.73167409998132,131.931693099963,0.0,131.931693099963,0,0.0,0,1,1000,num_1,0.917681300023105,,24,7,2026-03-04_15h44.59.615,2026A_exp2,2022.2.4,59.97458277377605,
1,0,3.7,3.7,0,0,32,32,8,,,,,132.86596119997557,133.51648250001017,133.51648250001017,134.00167169998167,315,45,134.00167169998167,134.00167169998167,134.00167169998167,134.00167169998167,134.00167169998167,134.00167169998167,134.00167169998167,134.00167169998167,134.00167169998167,134.3675704000052,134.3675704000052,134.3675704000052,134.3675704000052,134.3675704000052,134.3675704000052,134.3675704000052,134.3675704000052,134.3675704000052,16,5,"[0.06730639998568222, 0.11708980001276359, 0.15053839999018237, 0.2171980999992229, 0.2506033999961801]","[0.08390640001744032, 0.13372660003369674, 0.18381890002638102, 0.23401060001924634, 0.2840038000140339]",134.3675704000052,134.56774649996078,3.7,134.56774649996078,0,3.7,1,0,1000,num_1,1.1689821999752894,,24,7,2026-03-04_15h44.59.615,2026A_exp2,2022.2.4,59.97458277377605,
1,0,0.0,0.0,1,0,33,33,20,,,,,135.76926849997835,136.40305799996713,136.40305799996713,136.9041115999571,45,45,136.9041115999571,136.9041115999571,136.9041115999571,136.9041115999571,136.9041115999571,136.9041115999571,136.9041115999571,136.9041115999571,136.9041115999571,137.27037069998914,137.27037069998914,137.27037069998914,137.27037069998914,137.27037069998914,137.27037069998914,137.27037069998914,137.27037069998914,137.27037069998914,17,4,"[0.0010263000149279833, 0.05010829999810085, 0.08355660003144294, 0.3336960999877192]","[0.03350220003630966, 0.06671739998273551, 0.11683710000943393, 0.3508051999961026]",137.27037069998914,137.47081699996488,0.0,137.47081699996488,0,0.0,0,1,1000,num_1,0.7377231999998912,,24,7,2026-03-04_15h44.59.615,2026A_exp2,2022.2.4,59.97458277377605,
1000,1,0.0,0.0,1,0,34,34,34,,,,,138.2380946999765,138.87223639996955,138.87223639996955,139.37333059997763,45,45,139.37333059997763,139.37333059997763,139.37333059997763,139.37333059997763,139.37333059997763,139.37333059997763,139.37333059997763,139.37333059997763,139.37333059997763,139.73947169998428,139.73947169998428,139.73947169998428,139.73947169998428,139.73947169998428,139.73947169998428,139.73947169998428,139.73947169998428,139.73947169998428,1,2,"[0.0007294000242836773, 0.2838712999946438]","[0.2671995999990031, 0.3673685000394471]",139.73947169998428,139.94000020000385,1000,139.94000020000385,1000,1000,1000,1000,0,num_3,0.78853269998217,,24,7,2026-03-04_15h44.59.615,2026A_exp2,2022.2.4,59.97458277377605,
1,0,0.0,3.7,0,0,35,35,64,,,,,140.75746079999954,141.40833319997182,141.40833319997182,141.89260510000167,315,315,141.89260510000167,141.89260510000167,141.89260510000167,141.89260510000167,141.89260510000167,141.89260510000167,141.89260510000167,141.89260510000167,141.89260510000167,142.25920709996717,142.25920709996717,142.25920709996717,142.25920709996717,142.25920709996717,142.25920709996717,142.25920709996717,142.25920709996717,142.25920709996717,0,1,[0.0007405999931506813],[0.36688390001654625],142.25920709996717,142.45924840000225,0.0,142.45924840000225,1,0.0,0,0,1000,num_4,0.7181555000133812,,24,7,2026-03-04_15h44.59.615,2026A_exp2,2022.2.4,59.97458277377605,
1000,1,6.1,4.9,1,0,36,36,15,,,,,143.19346199999563,143.8438407999929,143.8438407999929,144.34491250000428,315,315,144.34491250000428,144.34491250000428,144.34491250000428,144.34491250000428,144.34491250000428,144.34491250000428,144.34491250000428,144.34491250000428,144.34491250000428,144.69586350000463,144.69586350000463,144.69586350000463,144.69586350000463,144.69586350000463,144.69586350000463,144.69586350000463,144.69586350000463,144.69586350000463,4,2,"[0.000819200009573251, 0.28425139997852966]","[0.2173536000191234, 0.35097750002751127]",144.69586350000463,144.89502989995526,1000,144.89502989995526,1000,1000,1000,1000,0,num_3,0.913943899970036,,24,7,2026-03-04_15h44.59.615,2026A_exp2,2022.2.4,59.97458277377605,
1000,1,3.7,0.0,0,0,37,37,81,,,,,145.82894599996507,146.47975219995715,146.47975219995715,146.96427539997967,45,45,146.96427539997967,146.96427539997967,146.96427539997967,146.96427539997967,146.96427539997967,146.96427539997967,146.96427539997967,146.96427539997967,146.96427539997967,147.3306379999849,147.3306379999849,147.3306379999849,147.3306379999849,147.3306379999849,147.3306379999849,147.3306379999849,147.3306379999849,147.3306379999849,1,2,"[0.0007535000331699848, 0.35062640003161505]","[0.33422100002644584, 0.3674417000147514]",147.3306379999849,147.5307998000062,1000,147.5307998000062,1000,1000,1000,1000,0,num_3,1.9337598999845795,,24,7,2026-03-04_15h44.59.615,2026A_exp2,2022.2.4,59.97458277377605,
1000,1,0.0,0.0,1,0,38,38,63,,,,,149.48284710000735,150.13336469995556,150.13336469995556,150.6345782999997,45,45,150.6345782999997,150.6345782999997,150.6345782999997,150.6345782999997,150.6345782999997,150.6345782999997,150.6345782999997,150.6345782999997,150.6345782999997,150.98415099998238,150.98415099998238,150.98415099998238,150.98415099998238,150.98415099998238,150.98415099998238,150.98415099998238,150.98415099998238,150.98415099998238,0,1,[0.0009442999726161361],[0.35043140000198036],150.98415099998238,151.18450639996445,1000,151.18450639996445,1000,1000,1000,1000,0,num_3,0.7211075000232086,,24,7,2026-03-04_15h44.59.615,2026A_exp2,2022.2.4,59.97458277377605,
0,0,4.9,6.1,1,0,39,39,70,,,,,151.9352280999883,152.5858554999577,152.5858554999577,153.08713040000293,315,45,153.08713040000293,153.08713040000293,153.08713040000293,153.08713040000293,153.08713040000293,153.08713040000293,153.08713040000293,153.08713040000293,153.08713040000293,153.43659439997282,153.43659439997282,153.43659439997282,153.43659439997282,153.43659439997282,153.43659439997282,153.43659439997282,153.43659439997282,153.43659439997282,6,4,"[0.0010737000266090035, 0.14995960000669584, 0.2836160000297241, 0.35047350003151223]","[0.10002120002172887, 0.2667446000268683, 0.3172569000162184, 0.3504767999984324]",153.43659439997282,153.63692670001183,4.9,153.63692670001183,1,4.9,1,1,1000,num_4,0.8758965999586508,,24,7,2026-03-04_15h44.59.615,2026A_exp2,2022.2.4,59.97458277377605,
1000,1,0.0,3.7,1,0,40,40,82,,,,,154.53779490001034,155.171972799988,155.171972799988,155.67296219995478,315,315,155.67296219995478,155.67296219995478,155.67296219995478,155.67296219995478,155.67296219995478,155.67296219995478,155.67296219995478,155.67296219995478,155.67296219995478,156.03966369997943,156.03966369997943,156.03966369997943,156.03966369997943,156.03966369997943,156.03966369997943,156.03966369997943,156.03966369997943,156.03966369997943,20,1,[0.0010820000316016376],[0.0502266000257805],156.03966369997943,156.2398824999691,1000,156.2398824999691,1000,1000,1000,1000,1,num_2,0.8332963000284508,,24,7,2026-03-04_15h44.59.615,2026A_exp2,2022.2.4,59.97458277377605,
1,0,0.0,0.0,1,0,41,41,66,,,,,157.09041219996288,157.74127880000742,157.74127880000742,158.24187069997424,45,45,158.24187069997424,158.24187069997424,158.24187069997424,158.24187069997424,158.24187069997424,158.24187069997424,158.24187069997424,158.24187069997424,158.24187069997424,158.5921173999668,158.5921173999668,158.5921173999668,158.5921173999668,158.5921173999668,158.5921173999668,158.5921173999668,158.5921173999668,158.5921173999668,21,1,[0.000754699984099716],[0.017790699959732592],158.5921173999668,158.79149069997948,0.0,158.80865029996494,1,0.0,0,0,1000,num_4,1.3287850000197068,,24,7,2026-03-04_15h44.59.615,2026A_exp2,2022.2.4,59.97458277377605,
1,0,0.0,6.1,1,0,42,42,5,,,,,160.16008519998286,160.79401299997699,160.79401299997699,161.29512269998668,315,315,161.29512269998668,161.29512269998668,161.29512269998668,161.29512269998668,161.29512269998668,161.29512269998668,161.29512269998668,161.29512269998668,161.29512269998668,161.6616706000059,161.6616706000059,161.6616706000059,161.6616706000059,161.6616706000059,161.6616706000059,161.6616706000059,161.6616706000059,161.6616706000059,0,1,[0.0007357000140473247],[0.36739440000383183],161.6616706000059,161.86194579995936,6.1,161.86194579995936,1,6.1,1,1,1000,num_4,0.6828823000541888,,24,7,2026-03-04_15h44.59.615,2026A_exp2,2022.2.4,59.97458277377605,
1000,1,0.0,0.0,1,0,43,43,88,,,,,162.56261169997742,163.19644979998702,163.19644979998702,163.69747660000576,45,45,163.69747660000576,163.69747660000576,163.69747660000576,163.69747660000576,163.69747660000576,163.69747660000576,163.69747660000576,163.69747660000576,163.69747660000576,164.06399429996964,164.06399429996964,164.06399429996964,164.06399429996964,164.06399429996964,164.06399429996964,164.06399429996964,164.06399429996964,164.06399429996964,0,1,[0.0007178000523708761],[0.3675733000272885],164.06399429996964,164.26454010000452,1000,164.26454010000452,1000,1000,1000,1000,0,num_3,0.9125087999855168,,24,7,2026-03-04_15h44.59.615,2026A_exp2,2022.2.4,59.97458277377605,
1000,1,4.9,0.0,0,0,44,44,12,,,,,165.19867909996537,165.84939349995693,165.84939349995693,166.35013539995998,45,315,166.35013539995998,166.35013539995998,166.35013539995998,166.35013539995998,166.35013539995998,166.35013539995998,166.35013539995998,166.35013539995998,166.35013539995998,166.69970920000924,166.69970920000924,166.69970920000924,166.69970920000924,166.69970920000924,166.69970920000924,166.69970920000924,166.69970920000924,166.69970920000924,0,1,[0.0007312999805435538],[0.3508094000280835],166.69970920000924,166.90041189995827,1000,166.90041189995827,1000,1000,1000,1000,0,num_3,0.8441362999728881,,24,7,2026-03-04_15h44.59.615,2026A_exp2,2022.2.4,59.97458277377605,
1,0,6.1,0.0,0,0,45,45,51,,,,,167.76772459998028,168.4021991000045,168.4021991000045,168.9032805999741,45,45,168.9032805999741,168.9032805999741,168.9032805999741,168.9032805999741,168.9032805999741,168.9032805999741,168.9032805999741,168.9032805999741,168.9032805999741,169.26885609998135,169.26885609998135,169.26885609998135,169.26885609998135,169.26885609998135,169.26885609998135,169.26885609998135,169.26885609998135,169.26885609998135,0,1,[0.000929800036828965],[0.36623370001325384],169.26885609998135,169.4691554000019,6.1,169.4691554000019,1,6.1,1,1,1000,num_4,0.5963029999984428,,24,7,2026-03-04_15h44.59.615,2026A_exp2,2022.2.4,59.97458277377605,
1000,1,3.7,4.9,0,0,46,46,25,,,,,170.08652049995726,170.72059449995868,170.72059449995868,171.22180179995485,315,45,171.22180179995485,171.22180179995485,171.22180179995485,171.22180179995485,171.22180179995485,171.22180179995485,171.22180179995485,171.22180179995485,171.22180179995485,171.58821590000298,171.58821590000298,171.58821590000298,171.58821590000298,171.58821590000298,171.58821590000298,171.58821590000298,171.58821590000298,171.58821590000298,0,1,[0.0007547999848611653],[0.36738129996228963],171.58821590000298,171.7887918999768,1000,171.7887918999768,1000,1000,1000,1000,1,num_2,1.268627900048159,,24,7,2026-03-04_15h44.59.615,2026A_exp2,2022.2.4,59.97458277377605,
1000,1,0.0,4.9,0,0,47,47,23,,,,,173.0731819999637,173.72384960000636,173.72384960000636,174.2249953999999,315,315,174.2249953999999,174.2249953999999,174.2249953999999,174.2249953999999,174.2249953999999,174.2249953999999,174.2249953999999,174.2249953999999,174.2249953999999,174.5749056999921,174.5749056999921,174.5749056999921,174.5749056999921,174.5749056999921,174.5749056999921,174.5749056999921,174.5749056999921,174.5749056999921,0,1,[0.00074970000423491],[0.3506540000089444],174.5749056999921,174.7756376999896,1000,174.79190299997572,1000,1000,1000,1000,1,num_2,0.6735008000396192,,24,7,2026-03-04_15h44.59.615,2026A_exp2,2022.2.4,59.97458277377605,
1,0,0.0,0.0,0,0,48,48,32,,,,,175.49213530000998,176.126062299998,176.126062299998,176.62709159997758,45,45,176.62709159997758,176.62709159997758,176.62709159997758,176.62709159997758,176.62709159997758,176.62709159997758,176.62709159997758,176.62709159997758,176.62709159997758,176.99365849996684,176.99365849996684,176.99365849996684,176.99365849996684,176.99365849996684,176.99365849996684,176.99365849996684,176.99365849996684,176.99365849996684,0,1,[0.0007433000137098134],[0.36743320000823587],176.99365849996684,177.19365470000776,0.0,177.19365470000776,0,0.0,0,1,1000,num_1,1.0069742999621667,,24,7,2026-03-04_15h44.59.615,2026A_exp2,2022.2.4,59.97458277377605,
1000,1,3.7,3.7,1,0,49,49,54,,,,,178.22860380000202,178.86238519998733,178.86238519998733,179.3631484999787,45,315,179.3631484999787,179.3631484999787,179.3631484999787,179.3631484999787,179.3631484999787,179.3631484999787,179.3631484999787,179.3631484999787,179.3631484999787,179.7298014999833,179.7298014999833,179.7298014999833,179.7298014999833,179.7298014999833,179.7298014999833,179.7298014999833,179.7298014999833,179.7298014999833,23,0,,,179.7298014999833,179.92984029999934,1000,179.92984029999934,1000,1000,1000,1000,0,num_3,1.287096299987752,,24,7,2026-03-04_15h44.59.615,2026A_exp2,2022.2.4,59.97458277377605,
1000,1,3.7,0.0,0,0,50,50,55,,,,,181.2479619999649,181.8981595999794,181.8981595999794,182.38303879997693,315,45,182.38303879997693,182.38303879997693,182.38303879997693,182.38303879997693,182.38303879997693,182.38303879997693,182.38303879997693,182.38303879997693,182.38303879997693,182.74938429996837,182.74938429996837,182.74938429996837,182.74938429996837,182.74938429996837,182.74938429996837,182.74938429996837,182.74938429996837,182.74938429996837,5,4,"[0.01727569999638945, 0.08347429998684675, 0.11698400002205744, 0.2668060000287369]","[0.06672820000676438, 0.10017360001802444, 0.2500117999734357, 0.36712499998975545]",182.74938429996837,182.9493431999581,1000,182.96596649999265,1000,1000,1000,1000,0,num_3,0.8671897000167519,,24,7,2026-03-04_15h44.59.615,2026A_exp2,2022.2.4,59.97458277377605,
1000,1,3.7,0.0,1,0,51,51,38,,,,,183.85060889995657,184.50115149997873,184.50115149997873,184.98540329997195,315,45,184.98540329997195,184.98540329997195,184.98540329997195,184.98540329997195,184.98540329997195,184.98540329997195,184.98540329997195,184.98540329997195,184.98540329997195,185.35242389998166,185.35242389998166,185.35242389998166,185.35242389998166,185.35242389998166,185.35242389998166,185.35242389998166,185.35242389998166,185.35242389998166,0,1,[0.0007450000266544521],[0.36732600000686944],185.35242389998166,185.55220979999285,1000,185.55220979999285,1000,1000,1000,1000,0,num_3,0.7124998000217602,,24,7,2026-03-04_15h44.59.615,2026A_exp2,2022.2.4,59.97458277377605,
1000,1,4.9,0.0,0,0,52,52,37,,,,,186.28622509998968,186.92028129997198,186.92028129997198,187.4212874000077,315,315,187.4212874000077,187.4212874000077,187.4212874000077,187.4212874000077,187.4212874000077,187.4212874000077,187.4212874000077,187.4212874000077,187.4212874000077,187.78768899996066,187.78768899996066,187.78768899996066,187.78768899996066,187.78768899996066,187.78768899996066,187.78768899996066,187.78768899996066,187.78768899996066,0,1,[0.0007747000199742615],[0.3671799000003375],187.78768899996066,187.98766980000073,1000,187.98766980000073,1000,1000,1000,1000,0,num_3,0.5489130000350997,,24,7,2026-03-04_15h44.59.615,2026A_exp2,2022.2.4,59.97458277377605,
1000,1,6.1,0.0,0,0,53,53,21,,,,,188.5557753999601,189.20600969996303,189.20600969996303,189.70679440000094,45,45,189.70679440000094,189.70679440000094,189.70679440000094,189.70679440000094,189.70679440000094,189.70679440000094,189.70679440000094,189.70679440000094,189.70679440000094,190.07340289995773,190.07340289995773,190.07340289995773,190.07340289995773,190.07340289995773,190.07340289995773,190.07340289995773,190.07340289995773,190.07340289995773,0,1,[0.000763599993661046],[0.3673510000226088],190.07340289995773,190.2735541999573,1000,190.2735541999573,1000,1000,1000,1000,0,num_3,0.4150026999996044,,24,7,2026-03-04_15h44.59.615,2026A_exp2,2022.2.4,59.97458277377605,
1,0,0.0,4.9,1,0,54,54,41,,,,,190.70775469997898,191.35821999999462,191.35821999999462,191.8428374999785,315,315,191.8428374999785,191.8428374999785,191.8428374999785,191.8428374999785,191.8428374999785,191.8428374999785,191.8428374999785,191.8428374999785,191.8428374999785,192.2093329000054,192.2093329000054,192.2093329000054,192.2093329000054,192.2093329000054,192.2093329000054,192.2093329000054,192.2093329000054,192.2093329000054,0,1,[0.0007890000124461949],[0.36749289999715984],192.2093329000054,192.40919669996947,4.9,192.40919669996947,1,4.9,1,1,1000,num_4,0.6556212000432424,,24,7,2026-03-04_15h44.59.615,2026A_exp2,2022.2.4,59.97458277377605,
0,0,0.0,0.0,1,0,55,55,14,,,,,193.09314010001253,193.72735900001135,193.72735900001135,194.2282273999881,315,45,194.2282273999881,194.2282273999881,194.2282273999881,194.2282273999881,194.2282273999881,194.2282273999881,194.2282273999881,194.2282273999881,194.2282273999881,194.59442019998096,194.59442019998096,194.59442019998096,194.59442019998096,194.59442019998096,194.59442019998096,194.59442019998096,194.59442019998096,194.59442019998096,0,1,[0.0007728000055067241],[0.3672680999734439],194.59442019998096,194.79490929999156,0.0,194.79490929999156,1,0.0,0,0,1000,num_4,1.6864592999918386,,24,7,2026-03-04_15h44.59.615,2026A_exp2,2022.2.4,59.97458277377605,
0,0,0.0,0.0,1,0,56,56,80,,,,,196.51317940000445,197.14687329996377,197.14687329996377,197.6483617000049,315,45,197.6483617000049,197.6483617000049,197.6483617000049,197.6483617000049,197.6483617000049,197.6483617000049,197.6483617000049,197.6483617000049,197.6483617000049,198.01512529997854,198.01512529997854,198.01512529997854,198.01512529997854,198.01512529997854,198.01512529997854,198.01512529997854,198.01512529997854,198.01512529997854,0,1,[0.0009063000325113535],[0.3671033999999054],198.01512529997854,198.21498799999245,0.0,198.21498799999245,1,0.0,0,0,1000,num_4,0.8824917000019923,,24,7,2026-03-04_15h44.59.615,2026A_exp2,2022.2.4,59.97458277377605,
0,0,0.0,4.9,1,0,57,57,0,,,,,199.11584089999087,199.7496452999767,199.7496452999767,200.25128309999127,45,45,200.25128309999127,200.25128309999127,200.25128309999127,200.25128309999127,200.25128309999127,200.25128309999127,200.25128309999127,200.25128309999127,200.25128309999127,200.61713520000922,200.61713520000922,200.61713520000922,200.61713520000922,200.61713520000922,200.61713520000922,200.61713520000922,200.61713520000922,200.61713520000922,0,1,[0.0008389000431634486],[0.3664780000108294],200.61713520000922,200.81726539996453,0.0,200.81726539996453,0,0.0,0,1,1000,num_1,1.4480380000313744,,24,7,2026-03-04_15h44.59.615,2026A_exp2,2022.2.4,59.97458277377605,
1000,1,6.1,6.1,0,0,58,58,87,,,,,202.2861696999753,202.93611379998038,202.93611379998038,203.42054109997116,45,45,203.42054109997116,203.42054109997116,203.42054109997116,203.42054109997116,203.42054109997116,203.42054109997116,203.42054109997116,203.42054109997116,203.42054109997116,203.78691729996353,203.78691729996353,203.78691729996353,203.78691729996353,203.78691729996353,203.78691729996353,203.78691729996353,203.78691729996353,203.78691729996353,0,1,[0.0009544000495225191],[0.3673115000128746],203.78691729996353,203.98715219995938,1000,203.98715219995938,1000,1000,1000,1000,0,num_3,0.9339193999767303,,24,7,2026-03-04_15h44.59.615,2026A_exp2,2022.2.4,59.97458277377605,
1,0,4.9,3.7,1,0,59,59,71,,,,,204.93824569997378,205.58884189999662,205.58884189999662,206.0732458999846,45,315,206.0732458999846,206.0732458999846,206.0732458999846,206.0732458999846,206.0732458999846,206.0732458999846,206.0732458999846,206.0732458999846,206.0732458999846,206.44006870000158,206.44006870000158,206.44006870000158,206.44006870000158,206.44006870000158,206.44006870000158,206.44006870000158,206.44006870000158,206.44006870000158,10,4,"[0.050256799964699894, 0.15034499997273088, 0.20027480000862852, 0.2840134999714792]","[0.08399919996736571, 0.1840498999808915, 0.25064579996978864, 0.3679982000030577]",206.44006870000158,206.6396395000047,3.7,206.6396395000047,0,3.7,1,0,1000,num_1,1.425449100031983,,24,7,2026-03-04_15h44.59.615,2026A_exp2,2022.2.4,59.97458277377605,
1000,1,0.0,3.7,1,0,60,60,67,,,,,208.09146329999203,208.7263505999581,208.7263505999581,209.22642219997942,315,45,209.22642219997942,209.22642219997942,209.22642219997942,209.22642219997942,209.22642219997942,209.22642219997942,209.22642219997942,209.22642219997942,209.22642219997942,209.59317879995797,209.59317879995797,209.59317879995797,209.59317879995797,209.59317879995797,209.59317879995797,209.59317879995797,209.59317879995797,209.59317879995797,0,1,[0.0007502000080421567],[0.36743420001585037],209.59317879995797,209.7930129999877,1000,209.7930129999877,1000,1000,1000,1000,0,num_3,0.7682994999922812,,24,7,2026-03-04_15h44.59.615,2026A_exp2,2022.2.4,59.97458277377605,
0,0,0.0,4.9,0,0,61,61,65,,,,,210.57717409997713,211.2279767,211.2279767,211.72895719995722,315,45,211.72895719995722,211.72895719995722,211.72895719995722,211.72895719995722,211.72895719995722,211.72895719995722,211.72895719995722,211.72895719995722,211.72895719995722,212.0956109999679,212.0956109999679,212.0956109999679,212.0956109999679,212.0956109999679,212.0956109999679,212.0956109999679,212.0956109999679,212.0956109999679,0,1,[0.0009281000238843262],[0.3671186999999918],212.0956109999679,212.295285900007,4.9,212.295285900007,1,4.9,1,1,1000,num_4,0.7135859000263736,,24,7,2026-03-04_15h44.59.615,2026A_exp2,2022.2.4,59.97458277377605,
1000,1,3.7,0.0,1,0,62,62,52,,,,,213.0300784999854,213.68069000000833,213.68069000000833,214.1648942999891,315,315,214.1648942999891,214.1648942999891,214.1648942999891,214.1648942999891,214.1648942999891,214.1648942999891,214.1648942999891,214.1648942999891,214.1648942999891,214.53076709999004,214.53076709999004,214.53076709999004,214.53076709999004,214.53076709999004,214.53076709999004,214.53076709999004,214.53076709999004,214.53076709999004,0,1,[0.0007334999972954392],[0.366485400008969],214.53076709999004,214.7313444999745,1000,214.7313444999745,1000,1000,1000,1000,0,num_3,0.6616410000133328,,24,7,2026-03-04_15h44.59.615,2026A_exp2,2022.2.4,59.97458277377605,
1,0,0.0,0.0,0,0,63,63,22,,,,,215.41534030000912,216.05156009999337,216.05156009999337,216.55060279997997,315,315,216.55060279997997,216.55060279997997,216.55060279997997,216.55060279997997,216.55060279997997,216.55060279997997,216.55060279997997,216.55060279997997,216.55060279997997,216.91674019995844,216.91674019995844,216.91674019995844,216.91674019995844,216.91674019995844,216.91674019995844,216.91674019995844,216.91674019995844,216.91674019995844,1,2,"[0.0007614000351168215, 0.3667687000124715]","[0.3500332999974489, 0.3667715000337921]",216.91674019995844,217.11677059996873,0.0,217.11677059996873,0,0.0,0,1,1000,num_1,0.9327413000282831,,24,7,2026-03-04_15h44.59.615,2026A_exp2,2022.2.4,59.97458277377605,
1,0,0.0,3.7,0,0,64,64,31,,,,,218.06810949998908,218.70195439999225,218.70195439999225,219.20302680000896,315,315,219.20302680000896,219.20302680000896,219.20302680000896,219.20302680000896,219.20302680000896,219.20302680000896,219.20302680000896,219.20302680000896,219.20302680000896,219.56944509997265,219.56944509997265,219.56944509997265,219.56944509997265,219.56944509997265,219.56944509997265,219.56944509997265,219.56944509997265,219.56944509997265,0,1,[0.0010596999782137573],[0.3671420000027865],219.56944509997265,219.76967339997645,0.0,219.76967339997645,0,0.0,0,1,1000,num_1,0.8391237000469118,,24,7,2026-03-04_15h44.59.615,2026A_exp2,2022.2.4,59.97458277377605,
1,0,6.1,0.0,0,0,65,65,77,,,,,220.6369427999598,221.27116439997917,221.27116439997917,221.7720307999989,45,45,221.7720307999989,221.7720307999989,221.7720307999989,221.7720307999989,221.7720307999989,221.7720307999989,221.7720307999989,221.7720307999989,221.7720307999989,222.138392199995,222.138392199995,222.138392199995,222.138392199995,222.138392199995,222.138392199995,222.138392199995,222.138392199995,222.138392199995,0,1,[0.0007322999881580472],[0.3672513000201434],222.138392199995,222.33867420000024,6.1,222.33867420000024,1,6.1,1,1,1000,num_4,0.6623503000009805,,24,7,2026-03-04_15h44.59.615,2026A_exp2,2022.2.4,59.97458277377605,
1000,1,0.0,0.0,0,0,66,66,2,,,,,223.02262529998552,223.65675389999524,223.65675389999524,224.1581068999949,315,315,224.1581068999949,224.1581068999949,224.1581068999949,224.1581068999949,224.1581068999949,224.1581068999949,224.1581068999949,224.1581068999949,224.1581068999949,224.52453649998643,224.52453649998643,224.52453649998643,224.52453649998643,224.52453649998643,224.52453649998643,224.52453649998643,224.52453649998643,224.52453649998643,0,1,[0.0007377999718300998],[0.36796429997775704],224.52453649998643,224.72474360000342,1000,224.72474360000342,1000,1000,1000,1000,1,num_2,0.9565057000145316,,24,7,2026-03-04_15h44.59.615,2026A_exp2,2022.2.4,59.97458277377605,
1,0,0.0,3.7,0,0,67,67,76,,,,,225.70918509998592,226.3598406999954,226.3598406999954,226.844512199983,45,315,226.844512199983,226.844512199983,226.844512199983,226.844512199983,226.844512199983,226.844512199983,226.844512199983,226.844512199983,226.844512199983,227.21046390000265,227.21046390000265,227.21046390000265,227.21046390000265,227.21046390000265,227.21046390000265,227.21046390000265,227.21046390000265,227.21046390000265,0,1,[0.0007686000317335129],[0.36719970003468916],227.21046390000265,227.41060399997514,0.0,227.41060399997514,0,0.0,0,1,1000,num_1,1.0229889000183903,,24,7,2026-03-04_15h44.59.615,2026A_exp2,2022.2.4,59.97458277377605,
1000,1,6.1,0.0,0,0,68,68,69,,,,,228.46182089997455,229.09563980001258,229.09563980001258,229.5968119999743,45,45,229.5968119999743,229.5968119999743,229.5968119999743,229.5968119999743,229.5968119999743,229.5968119999743,229.5968119999743,229.5968119999743,229.5968119999743,229.96331399999326,229.96331399999326,229.96331399999326,229.96331399999326,229.96331399999326,229.96331399999326,229.96331399999326,229.96331399999326,229.96331399999326,20,2,"[0.0007715999963693321, 0.06721840001409873]","[0.05043340002885088, 0.08354620001045987]",229.96331399999326,230.16352699999698,1000,230.16352699999698,1000,1000,1000,1000,0,num_3,0.7173682000138797,,24,7,2026-03-04_15h44.59.615,2026A_exp2,2022.2.4,59.97458277377605,
1,0,0.0,0.0,1,0,69,69,58,,,,,230.89748189999955,231.54846789996373,231.54846789996373,232.0492192999809,45,45,232.0492192999809,232.0492192999809,232.0492192999809,232.0492192999809,232.0492192999809,232.0492192999809,232.0492192999809,232.0492192999809,232.0492192999809,232.39908629999263,232.39908629999263,232.39908629999263,232.39908629999263,232.39908629999263,232.39908629999263,232.39908629999263,232.39908629999263,232.39908629999263,0,1,[0.0008322999929077923],[0.35071690002223477],232.39908629999263,232.59942959999898,0.0,232.59942959999898,0,0.0,0,1,1000,num_1,0.7457291000173427,,24,7,2026-03-04_15h44.59.615,2026A_exp2,2022.2.4,59.97458277377605,
1,0,4.9,4.9,1,0,70,70,18,,,,,233.36651099997107,234.0014022999676,234.0014022999676,234.50168619997567,45,45,234.50168619997567,234.50168619997567,234.50168619997567,234.50168619997567,234.50168619997567,234.50168619997567,234.50168619997567,234.50168619997567,234.50168619997567,234.86801079998259,234.86801079998259,234.86801079998259,234.86801079998259,234.86801079998259,234.86801079998259,234.86801079998259,234.86801079998259,234.86801079998259,21,2,"[0.11613520001992583, 0.25318180001340806]","[0.13291569997090846, 0.2711488999775611]",234.86801079998259,235.06824049999705,4.9,235.06824049999705,0,4.9,1,0,1000,num_1,1.2368723999825306,,24,7,2026-03-04_15h44.59.615,2026A_exp2,2022.2.4,59.97458277377605,
1,0,0.0,0.0,0,0,71,71,61,,,,,236.33599449996836,236.9701147999731,236.9701147999731,237.47138419997646,315,45,237.47138419997646,237.47138419997646,237.47138419997646,237.47138419997646,237.47138419997646,237.47138419997646,237.47138419997646,237.47138419997646,237.47138419997646,237.8377984999679,237.8377984999679,237.8377984999679,237.8377984999679,237.8377984999679,237.8377984999679,237.8377984999679,237.8377984999679,237.8377984999679,0,1,[0.0007332999957725406],[0.36709559999872],237.8377984999679,238.03824500000337,0.0,238.03824500000337,0,0.0,0,1,1000,num_1,1.2744690999970771,,24,7,2026-03-04_15h44.59.615,2026A_exp2,2022.2.4,59.97458277377605,
1000,1,0.0,0.0,0,0,72,72,79,,,,,239.33935699996073,239.97337259998312,239.97337259998312,240.47452619997784,315,315,240.47452619997784,240.47452619997784,240.47452619997784,240.47452619997784,240.47452619997784,240.47452619997784,240.47452619997784,240.47452619997784,240.47452619997784,240.8411441000062,240.8411441000062,240.8411441000062,240.8411441000062,240.8411441000062,240.8411441000062,240.8411441000062,240.8411441000062,240.8411441000062,23,0,,,240.8411441000062,241.0415441999794,1000,241.0415441999794,1000,1000,1000,1000,1,num_2,0.9111064000171609,,24,7,2026-03-04_15h44.59.615,2026A_exp2,2022.2.4,59.97458277377605,
1,0,6.1,6.1,0,0,73,73,89,,,,,241.97540220001247,242.6093265999807,242.6093265999807,243.11033239995595,45,45,243.11033239995595,243.11033239995595,243.11033239995595,243.11033239995595,243.11033239995595,243.11033239995595,243.11033239995595,243.11033239995595,243.11033239995595,243.4775375999743,243.4775375999743,243.4775375999743,243.4775375999743,243.4775375999743,243.4775375999743,243.4775375999743,243.4775375999743,243.4775375999743,9,1,[0.0009229000424966216],[0.2336360000190325],243.4775375999743,243.67670690000523,6.1,243.67670690000523,1,6.1,1,1,1000,num_4,0.8763466000091285,,24,7,2026-03-04_15h44.59.615,2026A_exp2,2022.2.4,59.97458277377605,
1000,1,0.0,6.1,0,0,74,74,27,,,,,244.5778098999872,245.2117400999996,245.2117400999996,245.71302339999238,45,315,245.71302339999238,245.71302339999238,245.71302339999238,245.71302339999238,245.71302339999238,245.71302339999238,245.71302339999238,245.71302339999238,245.71302339999238,246.07916520000435,246.07916520000435,246.07916520000435,246.07916520000435,246.07916520000435,246.07916520000435,246.07916520000435,246.07916520000435,246.07916520000435,0,1,[0.0009503999608568847],[0.3676917999982834],246.07916520000435,246.27938620001078,1000,246.27938620001078,1000,1000,1000,1000,1,num_2,1.8495095999678597,,24,7,2026-03-04_15h44.59.615,2026A_exp2,2022.2.4,59.97458277377605,
1,0,0.0,0.0,0,0,75,75,6,,,,,248.14804329996696,248.79869299998973,248.79869299998973,249.29956199997105,45,315,249.29956199997105,249.29956199997105,249.29956199997105,249.29956199997105,249.29956199997105,249.29956199997105,249.29956199997105,249.29956199997105,249.29956199997105,249.65031309996266,249.65031309996266,249.65031309996266,249.65031309996266,249.65031309996266,249.65031309996266,249.65031309996266,249.65031309996266,249.65031309996266,0,1,[0.0007535999757237732],[0.352351900015492],249.65031309996266,249.84969299996737,0.0,249.84969299996737,1,0.0,0,0,1000,num_4,0.7191129999700934,,24,7,2026-03-04_15h44.59.615,2026A_exp2,2022.2.4,59.97458277377605,
1,0,0.0,0.0,1,0,76,76,4,,,,,250.60019520000787,251.23442980000982,251.23442980000982,251.73557269998128,45,45,251.73557269998128,251.73557269998128,251.73557269998128,251.73557269998128,251.73557269998128,251.73557269998128,251.73557269998128,251.73557269998128,251.73557269998128,252.10180760000367,252.10180760000367,252.10180760000367,252.10180760000367,252.10180760000367,252.10180760000367,252.10180760000367,252.10180760000367,252.10180760000367,0,1,[0.001110200013499707],[0.36634990002494305],252.10180760000367,252.30213939998066,0.0,252.30213939998066,0,0.0,0,1,1000,num_1,0.9794257000321522,,24,7,2026-03-04_15h44.59.615,2026A_exp2,2022.2.4,59.97458277377605,
1000,1,6.1,6.1,1,0,77,77,53,,,,,253.30318019998958,253.93728459998965,253.93728459998965,254.438445399981,45,315,254.438445399981,254.438445399981,254.438445399981,254.438445399981,254.438445399981,254.438445399981,254.438445399981,254.438445399981,254.438445399981,254.80487749999156,254.80487749999156,254.80487749999156,254.80487749999156,254.80487749999156,254.80487749999156,254.80487749999156,254.80487749999156,254.80487749999156,0,1,[0.0007395999855361879],[0.36696849996224046],254.80487749999156,255.00533269997686,1000,255.00533269997686,1000,1000,1000,1000,0,num_3,0.8994576000259258,,24,7,2026-03-04_15h44.59.615,2026A_exp2,2022.2.4,59.97458277377605,
1000,1,0.0,3.7,1,0,78,78,1,,,,,255.92263549997006,256.57328000001144,256.57328000001144,257.05763789999764,45,315,257.05763789999764,257.05763789999764,257.05763789999764,257.05763789999764,257.05763789999764,257.05763789999764,257.05763789999764,257.05763789999764,257.05763789999764,257.42458789999364,257.42458789999364,257.42458789999364,257.42458789999364,257.42458789999364,257.42458789999364,257.42458789999364,257.42458789999364,257.42458789999364,0,1,[0.0009064999758265913],[0.36720479995710775],257.42458789999364,257.6248289999785,1000,257.6248289999785,1000,1000,1000,1000,1,num_2,0.5765010000322945,,24,7,2026-03-04_15h44.59.615,2026A_exp2,2022.2.4,59.97458277377605,
1000,1,4.9,0.0,1,0,79,79,56,,,,,258.2247912999592,258.87580420001177,258.87580420001177,259.3598595999647,45,45,259.3598595999647,259.3598595999647,259.3598595999647,259.3598595999647,259.3598595999647,259.3598595999647,259.3598595999647,259.3598595999647,259.3598595999647,259.72619989997474,259.72619989997474,259.72619989997474,259.72619989997474,259.72619989997474,259.72619989997474,259.72619989997474,259.72619989997474,259.72619989997474,0,1,[0.0007272999500855803],[0.3668407999793999],259.72619989997474,259.92641600000206,1000,259.92641600000206,1000,1000,1000,1000,0,num_3,0.8424834999605082,,24,7,2026-03-04_15h44.59.615,2026A_exp2,2022.2.4,59.97458277377605,
1,0,0.0,3.7,1,0,80,80,30,,,,,260.79406320001,261.428300199972,261.428300199972,261.92899159999797,315,315,261.92899159999797,261.92899159999797,261.92899159999797,261.92899159999797,261.92899159999797,261.92899159999797,261.92899159999797,261.92899159999797,261.92899159999797,262.2956819999963,262.2956819999963,262.2956819999963,262.2956819999963,262.2956819999963,262.2956819999963,262.2956819999963,262.2956819999963,262.2956819999963,0,1,[0.0007244000444188714],[0.36806990002514794],262.2956819999963,262.49555990000954,3.7,262.49555990000954,1,3.7,1,1,1000,num_4,0.6017338000237942,,24,7,2026-03-04_15h44.59.615,2026A_exp2,2022.2.4,59.97458277377605,
1,0,3.7,0.0,0,0,81,81,7,,,,,263.12961159995757,263.7637414999772,263.7637414999772,264.26464020001004,45,315,264.26464020001004,264.26464020001004,264.26464020001004,264.26464020001004,264.26464020001004,264.26464020001004,264.26464020001004,264.26464020001004,264.26464020001004,264.6312279999838,264.6312279999838,264.6312279999838,264.6312279999838,264.6312279999838,264.6312279999838,264.6312279999838,264.6312279999838,264.6312279999838,0,1,[0.0007607999723404646],[0.3670534999691881],264.6312279999838,264.8309983999934,3.7,264.8309983999934,1,3.7,1,1,1000,num_4,0.6577649000100791,,24,7,2026-03-04_15h44.59.615,2026A_exp2,2022.2.4,59.97458277377605,
1,0,6.1,6.1,1,0,82,82,49,,,,,265.5154793999973,266.149307899992,266.149307899992,266.65067299996736,315,315,266.65067299996736,266.65067299996736,266.65067299996736,266.65067299996736,266.65067299996736,266.65067299996736,266.65067299996736,266.65067299996736,266.65067299996736,267.01667549996637,267.01667549996637,267.01667549996637,267.01667549996637,267.01667549996637,267.01667549996637,267.01667549996637,267.01667549996637,267.01667549996637,0,1,[0.001018800016026944],[0.36671899998327717],267.01667549996637,267.21704640000826,6.1,267.21704640000826,1,6.1,1,1,1000,num_4,0.5842218999750912,,24,7,2026-03-04_15h44.59.615,2026A_exp2,2022.2.4,59.97458277377605,
1000,1,3.7,6.1,1,0,83,83,43,,,,,267.8177607000107,268.4518543999875,268.4518543999875,268.95310939999763,45,45,268.95310939999763,268.95310939999763,268.95310939999763,268.95310939999763,268.95310939999763,268.95310939999763,268.95310939999763,268.95310939999763,268.95310939999763,269.3190767999622,269.3190767999622,269.3190767999622,269.3190767999622,269.3190767999622,269.3190767999622,269.3190767999622,269.3190767999622,269.3190767999622,0,1,[0.0011025999556295574],[0.36660079995635897],269.3190767999622,269.51963230001274,1000,269.51963230001274,1000,1000,1000,1000,1,num_2,0.8411760999588296,,24,7,2026-03-04_15h44.59.615,2026A_exp2,2022.2.4,59.97458277377605,
1,0,4.9,6.1,0,0,84,84,29,,,,,270.3872353999759,271.0377070999821,271.0377070999821,271.52228319999995,45,45,271.52228319999995,271.52228319999995,271.52228319999995,271.52228319999995,271.52228319999995,271.52228319999995,271.52228319999995,271.52228319999995,271.52228319999995,271.8889419999905,271.8889419999905,271.8889419999905,271.8889419999905,271.8889419999905,271.8889419999905,271.8889419999905,271.8889419999905,271.8889419999905,4,3,"[0.016841800010297447, 0.18244439997943118, 0.24903949996223673]","[0.16580899996915832, 0.21601779997581616, 0.3668572999886237]",271.8889419999905,272.0889024999924,4.9,272.0889024999924,1,4.9,1,1,1000,num_4,0.9037855000351556,,24,7,2026-03-04_15h44.59.615,2026A_exp2,2022.2.4,59.97458277377605,
1000,1,6.1,4.9,1,0,85,85,86,,,,,273.0238544999738,273.6571254999726,273.6571254999726,274.15847619995475,315,45,274.15847619995475,274.15847619995475,274.15847619995475,274.15847619995475,274.15847619995475,274.15847619995475,274.15847619995475,274.15847619995475,274.15847619995475,274.5246160000097,274.5246160000097,274.5246160000097,274.5246160000097,274.5246160000097,274.5246160000097,274.5246160000097,274.5246160000097,274.5246160000097,0,1,[0.0009359000250697136],[0.3673590000253171],274.5246160000097,274.7248585000052,1000,274.7248585000052,1000,1000,1000,1000,0,num_3,0.7720233000000007,,24,7,2026-03-04_15h44.59.615,2026A_exp2,2022.2.4,59.97458277377605,
1000,1,4.9,0.0,1,0,86,86,74,,,,,275.52582769998116,276.17610499996226,276.17610499996226,276.66055919998325,315,315,276.66055919998325,276.66055919998325,276.66055919998325,276.66055919998325,276.66055919998325,276.66055919998325,276.66055919998325,276.66055919998325,276.66055919998325,277.0270618000068,277.0270618000068,277.0270618000068,277.0270618000068,277.0270618000068,277.0270618000068,277.0270618000068,277.0270618000068,277.0270618000068,0,1,[0.0008140000281855464],[0.3671887000091374],277.0270618000068,277.22724589996506,1000,277.22724589996506,1000,1000,1000,1000,0,num_3,0.7819308000034653,,24,7,2026-03-04_15h44.59.615,2026A_exp2,2022.2.4,59.97458277377605,
1000,1,3.7,0.0,1,0,87,87,19,,,,,278.0280563000124,278.67860250000376,278.67860250000376,279.1628182999557,45,315,279.1628182999557,279.1628182999557,279.1628182999557,279.1628182999557,279.1628182999557,279.1628182999557,279.1628182999557,279.1628182999557,279.1628182999557,279.5296554999659,279.5296554999659,279.5296554999659,279.5296554999659,279.5296554999659,279.5296554999659,279.5296554999659,279.5296554999659,279.5296554999659,0,1,[0.0009855000535026193],[0.36702750000404194],279.5296554999659,279.7296576999943,1000,279.7296576999943,1000,1000,1000,1000,1,num_2,0.7511886000283994,,24,7,2026-03-04_15h44.59.615,2026A_exp2,2022.2.4,59.97458277377605,
1000,1,0.0,0.0,0,0,88,88,13,,,,,280.4970541999792,281.1478775999858,281.1478775999858,281.6490625999868,315,45,281.6490625999868,281.6490625999868,281.6490625999868,281.6490625999868,281.6490625999868,281.6490625999868,281.6490625999868,281.6490625999868,281.6490625999868,282.01510509999935,282.01510509999935,282.01510509999935,282.01510509999935,282.01510509999935,282.01510509999935,282.01510509999935,282.01510509999935,282.01510509999935,1,2,"[0.0009026999468915164, 0.15002339996863157]","[0.13325709995115176, 0.3666279999888502]",282.01510509999935,282.21555540000554,1000,282.21555540000554,1000,1000,1000,1000,1,num_2,0.9379031000426039,,24,7,2026-03-04_15h44.59.615,2026A_exp2,2022.2.4,59.97458277377605,
0,0,0.0,4.9,1,0,89,89,33,,,,,283.18331599998055,283.8339427000028,283.8339427000028,284.3348997999565,45,45,284.3348997999565,284.3348997999565,284.3348997999565,284.3348997999565,284.3348997999565,284.3348997999565,284.3348997999565,284.3348997999565,284.3348997999565,284.68540550000034,284.68540550000034,284.68540550000034,284.68540550000034,284.68540550000034,284.68540550000034,284.68540550000034,284.68540550000034,284.68540550000034,8,5,"[0.0009448999771848321, 0.05022949998965487, 0.13356729998486117, 0.2003005999722518, 0.2835913000162691]","[0.03326350002316758, 0.08342159999301657, 0.15023389999987558, 0.26795880001736805, 0.3505802999716252]",284.68540550000034,284.884826399968,0.0,284.884826399968,0,0.0,0,1,1000,num_1,1.6282073000329547,,24,7,2026-03-04_15h44.59.615,2026A_exp2,2022.2.4,59.97458277377605,
,,,,,,,,,,,,,,,,,,,,,,,,,,,,,,,,,,,,,,,,,,,,,,,,,,,,286.53918809996685,,,,,,,
