validity,detectorcomp,contrastCW,contrastCCW,precueCWorCCW,block_80trials.thisRepN,block_80trials.thisTrialN,block_80trials.thisN,block_80trials.thisIndex,etRecord.started,etRecord.stopped,text.started,text.stopped,text_4.started,text_4.stopped,text_6.started,text_6.stopped,oriCW,oriCCW,roi_2.started,grating_UR.started,grating_UL.started,grating_LR.started,grating_LL.started,noise_UR.started,noise_UL.started,noise_LR.started,noise_LL.started,roi_2.stopped,grating_UR.stopped,grating_UL.stopped,grating_LR.stopped,grating_LL.stopped,noise_UR.stopped,noise_UL.stopped,noise_LR.stopped,noise_LL.stopped,outframe,roi_2.numLooks,roi_2.timesOn,roi_2.timesOff,text_2.started,text_2.stopped,probedcontrast,key_resp.started,respdetect,relevantContrast,correctDetect,TorFdetect,respCWorCCW,key_resp.keys,key_resp.rt,feedback_display_.started,participantNo,blockNo,date,expName,psychopyVersion,frameRate,
1000,1,0.0,0.0,1,0,0,0,37,8.780020289123058e-05,8.780020289123058e-05,50.41569329984486,52.41944889980368,52.41944889980368,53.05224259989336,53.05224259989336,53.57982399989851,315,45,53.57982399989851,53.57982399989851,53.57982399989851,53.57982399989851,53.57982399989851,53.57982399989851,53.57982399989851,53.57982399989851,53.57982399989851,53.91991679999046,53.91991679999046,53.91991679999046,53.91991679999046,53.91991679999046,53.91991679999046,53.91991679999046,53.91991679999046,53.91991679999046,2,1,[0.0010871998965740204],[0.3487491998821497],53.91991679999046,54.12244109995663,1000,54.12244109995663,1000,1000,1000,1000,1,num_2,1.2778196001891047,,30,6,2026-03-12_10h44.01.369,2026A_exp2,2022.2.4,59.79613109152594,
0,0,0.0,0.0,0,0,1,1,20,,,,,55.42134979995899,56.07183749997057,56.07183749997057,56.5566589999944,45,315,56.5566589999944,56.5566589999944,56.5566589999944,56.5566589999944,56.5566589999944,56.5566589999944,56.5566589999944,56.5566589999944,56.5566589999944,56.92263289983384,56.92263289983384,56.92263289983384,56.92263289983384,56.92263289983384,56.92263289983384,56.92263289983384,56.92263289983384,56.92263289983384,0,1,[0.0007671001367270947],[0.36737940018065274],56.92263289983384,57.12321769981645,0.0,57.12321769981645,0,0.0,0,1,1000,num_1,0.461533899884671,,30,6,2026-03-12_10h44.01.369,2026A_exp2,2022.2.4,59.79613109152594,
1,0,0.0,6.1,0,0,2,2,3,,,,,57.60678339982405,58.25775019987486,58.25775019987486,58.74185709981248,45,315,58.74185709981248,58.74185709981248,58.74185709981248,58.74185709981248,58.74185709981248,58.74185709981248,58.74185709981248,58.74185709981248,58.74185709981248,59.108287499984726,59.108287499984726,59.108287499984726,59.108287499984726,59.108287499984726,59.108287499984726,59.108287499984726,59.108287499984726,59.108287499984726,7,1,[0.0009714001789689064],[0.2675499999895692],59.108287499984726,59.308907999889925,0.0,59.308907999889925,0,0.0,0,1,1000,num_1,0.5317921999376267,,30,6,2026-03-12_10h44.01.369,2026A_exp2,2022.2.4,59.79613109152594,
1,0,3.7,3.7,0,0,3,3,69,,,,,59.85918109980412,60.49332599993795,60.49332599993795,60.994336099829525,315,315,60.994336099829525,60.994336099829525,60.994336099829525,60.994336099829525,60.994336099829525,60.994336099829525,60.994336099829525,60.994336099829525,60.994336099829525,61.36077019991353,61.36077019991353,61.36077019991353,61.36077019991353,61.36077019991353,61.36077019991353,61.36077019991353,61.36077019991353,61.36077019991353,0,1,[0.0009985999204218388],[0.3674373000394553],61.36077019991353,61.56084739998914,3.7,61.56084739998914,0,3.7,1,0,1000,num_1,0.8317084000445902,,30,6,2026-03-12_10h44.01.369,2026A_exp2,2022.2.4,59.79613109152594,
1,0,6.1,0.0,1,0,4,4,23,,,,,62.41213269997388,63.06248590000905,63.06248590000905,63.547241899883375,315,45,63.547241899883375,63.547241899883375,63.547241899883375,63.547241899883375,63.547241899883375,63.547241899883375,63.547241899883375,63.547241899883375,63.547241899883375,63.91343149985187,63.91343149985187,63.91343149985187,63.91343149985187,63.91343149985187,63.91343149985187,63.91343149985187,63.91343149985187,63.91343149985187,7,1,[0.0007478999905288219],[0.2663773999083787],63.91343149985187,64.11349679995328,0.0,64.11349679995328,0,0.0,0,1,1000,num_1,1.02265359996818,,30,6,2026-03-12_10h44.01.369,2026A_exp2,2022.2.4,59.79613109152594,
1,0,3.7,6.1,0,0,5,5,74,,,,,65.16454549995251,65.79865319980308,65.79865319980308,66.29972939984873,45,315,66.29972939984873,66.29972939984873,66.29972939984873,66.29972939984873,66.29972939984873,66.29972939984873,66.29972939984873,66.29972939984873,66.29972939984873,66.66600849991664,66.66600849991664,66.66600849991664,66.66600849991664,66.66600849991664,66.66600849991664,66.66600849991664,66.66600849991664,66.66600849991664,0,1,[0.0007891999557614326],[0.36722050001844764],66.66600849991664,66.86659260001034,3.7,66.86659260001034,0,3.7,1,0,1000,num_1,0.9026012998074293,,30,6,2026-03-12_10h44.01.369,2026A_exp2,2022.2.4,59.79613109152594,
0,0,3.7,0.0,1,0,6,6,0,,,,,67.80063249985687,68.4345550998114,68.4345550998114,68.93558059982024,45,45,68.93558059982024,68.93558059982024,68.93558059982024,68.93558059982024,68.93558059982024,68.93558059982024,68.93558059982024,68.93558059982024,68.93558059982024,69.302162299864,69.302162299864,69.302162299864,69.302162299864,69.302162299864,69.302162299864,69.302162299864,69.302162299864,69.302162299864,0,1,[0.0008882000111043453],[0.36751839984208345],69.302162299864,69.50247109984048,3.7,69.50247109984048,1,3.7,1,1,1000,num_4,0.6659522000700235,,30,6,2026-03-12_10h44.01.369,2026A_exp2,2022.2.4,59.79613109152594,
1000,1,0.0,0.0,1,0,7,7,63,,,,,70.18631439981982,70.82023309986107,70.82023309986107,71.32124820002355,45,45,71.32124820002355,71.32124820002355,71.32124820002355,71.32124820002355,71.32124820002355,71.32124820002355,71.32124820002355,71.32124820002355,71.32124820002355,71.68766309996136,71.68766309996136,71.68766309996136,71.68766309996136,71.68766309996136,71.68766309996136,71.68766309996136,71.68766309996136,71.68766309996136,0,1,[0.0008364000823348761],[0.36703109997324646],71.68766309996136,71.887952900026,1000,71.887952900026,1000,1000,1000,1000,1,num_2,0.744977799942717,,30,6,2026-03-12_10h44.01.369,2026A_exp2,2022.2.4,59.79613109152594,
1000,1,0.0,4.9,1,0,8,8,51,,,,,72.65546469995752,73.30612129997462,73.30612129997462,73.79070599982515,45,315,73.79070599982515,73.79070599982515,73.79070599982515,73.79070599982515,73.79070599982515,73.79070599982515,73.79070599982515,73.79070599982515,73.79070599982515,74.15670699998736,74.15670699998736,74.15670699998736,74.15670699998736,74.15670699998736,74.15670699998736,74.15670699998736,74.15670699998736,74.15670699998736,0,1,[0.0006875998806208372],[0.3670834999065846],74.15670699998736,74.3571858999785,1000,74.3571858999785,1000,1000,1000,1000,1,num_2,0.6039922998752445,,30,6,2026-03-12_10h44.01.369,2026A_exp2,2022.2.4,59.79613109152594,
1000,1,0.0,6.1,1,0,9,9,40,,,,,74.99112709984183,75.64174379990436,75.64174379990436,76.14285720000044,315,45,76.14285720000044,76.14285720000044,76.14285720000044,76.14285720000044,76.14285720000044,76.14285720000044,76.14285720000044,76.14285720000044,76.14285720000044,76.49258109997027,76.49258109997027,76.49258109997027,76.49258109997027,76.49258109997027,76.49258109997027,76.49258109997027,76.49258109997027,76.49258109997027,22,0,,,76.49258109997027,76.69272219995037,1000,76.69272219995037,1000,1000,1000,1000,1,num_2,0.5395559999160469,,30,6,2026-03-12_10h44.01.369,2026A_exp2,2022.2.4,59.79613109152594,
1,0,4.9,0.0,0,0,10,10,57,,,,,77.25996989989653,77.91067709983326,77.91067709983326,78.41198419989087,315,45,78.41198419989087,78.41198419989087,78.41198419989087,78.41198419989087,78.41198419989087,78.41198419989087,78.41198419989087,78.41198419989087,78.41198419989087,78.7782686999999,78.7782686999999,78.7782686999999,78.7782686999999,78.7782686999999,78.7782686999999,78.7782686999999,78.7782686999999,78.7782686999999,22,1,[0.18372020008973777],[0.20038780011236668],78.7782686999999,78.97827399987727,4.9,78.97827399987727,1,4.9,1,1,1000,num_4,1.6627686999272555,,30,6,2026-03-12_10h44.01.369,2026A_exp2,2022.2.4,59.79613109152594,
1,0,6.1,4.9,1,0,11,11,38,,,,,80.6634845000226,81.31449869996868,81.31449869996868,81.79836619994603,45,45,81.79836619994603,81.79836619994603,81.79836619994603,81.79836619994603,81.79836619994603,81.79836619994603,81.79836619994603,81.79836619994603,81.79836619994603,82.16442899988033,82.16442899988033,82.16442899988033,82.16442899988033,82.16442899988033,82.16442899988033,82.16442899988033,82.16442899988033,82.16442899988033,6,1,[0.0007842001505196095],[0.28426420013420284],82.16442899988033,82.36485959985293,4.9,82.36485959985293,1,4.9,1,1,1000,num_4,0.7402732998598367,,30,6,2026-03-12_10h44.01.369,2026A_exp2,2022.2.4,59.79613109152594,
1000,1,4.9,6.1,0,0,12,12,59,,,,,83.13234599982388,83.76643819990568,83.76643819990568,84.26740080001764,45,315,84.26740080001764,84.26740080001764,84.26740080001764,84.26740080001764,84.26740080001764,84.26740080001764,84.26740080001764,84.26740080001764,84.26740080001764,84.6339958999306,84.6339958999306,84.6339958999306,84.6339958999306,84.6339958999306,84.6339958999306,84.6339958999306,84.6339958999306,84.6339958999306,0,1,[0.0008131000213325024],[0.3672259000595659],84.6339958999306,84.83416590001434,1000,84.83416590001434,1000,1000,1000,1000,1,num_2,0.40688270004466176,,30,6,2026-03-12_10h44.01.369,2026A_exp2,2022.2.4,59.79613109152594,
1,0,3.7,0.0,1,0,13,13,73,,,,,85.26808039983734,85.91871829982847,85.91871829982847,86.40300299995579,45,315,86.40300299995579,86.40300299995579,86.40300299995579,86.40300299995579,86.40300299995579,86.40300299995579,86.40300299995579,86.40300299995579,86.40300299995579,86.7693566000089,86.7693566000089,86.7693566000089,86.7693566000089,86.7693566000089,86.7693566000089,86.7693566000089,86.7693566000089,86.7693566000089,0,1,[0.0007437001913785934],[0.3671014001592994],86.7693566000089,86.96955009992234,0.0,86.96955009992234,0,0.0,0,1,1000,num_1,0.639301200164482,,30,6,2026-03-12_10h44.01.369,2026A_exp2,2022.2.4,59.79613109152594,
1,0,6.1,0.0,1,0,14,14,53,,,,,87.63694819994271,88.27092279982753,88.27092279982753,88.77216929988936,45,315,88.77216929988936,88.77216929988936,88.77216929988936,88.77216929988936,88.77216929988936,88.77216929988936,88.77216929988936,88.77216929988936,88.77216929988936,89.13846089993604,89.13846089993604,89.13846089993604,89.13846089993604,89.13846089993604,89.13846089993604,89.13846089993604,89.13846089993604,89.13846089993604,0,1,[0.0009419000707566738],[0.36719999997876585],89.13846089993604,89.33860619994812,0.0,89.33860619994812,0,0.0,0,1,1000,num_1,0.6146701001562178,,30,6,2026-03-12_10h44.01.369,2026A_exp2,2022.2.4,59.79613109152594,
1000,1,0.0,0.0,1,0,15,15,72,,,,,89.97284569987096,90.62324230000377,90.62324230000377,91.10777719994076,315,45,91.10777719994076,91.10777719994076,91.10777719994076,91.10777719994076,91.10777719994076,91.10777719994076,91.10777719994076,91.10777719994076,91.10777719994076,91.47419749991968,91.47419749991968,91.47419749991968,91.47419749991968,91.47419749991968,91.47419749991968,91.47419749991968,91.47419749991968,91.47419749991968,0,1,[0.0009047999046742916],[0.36670399992726743],91.47419749991968,91.67455769982189,1000,91.67455769982189,1000,1000,1000,1000,1,num_2,0.6297497001942247,,30,6,2026-03-12_10h44.01.369,2026A_exp2,2022.2.4,59.79613109152594,
1000,1,0.0,6.1,0,0,16,16,5,,,,,92.32496709981933,92.97572460002266,92.97572460002266,93.47670020000078,45,45,93.47670020000078,93.47670020000078,93.47670020000078,93.47670020000078,93.47670020000078,93.47670020000078,93.47670020000078,93.47670020000078,93.47670020000078,93.82637909986079,93.82637909986079,93.82637909986079,93.82637909986079,93.82637909986079,93.82637909986079,93.82637909986079,93.82637909986079,93.82637909986079,0,1,[0.0007830997928977013],[0.35045239981263876],93.82637909986079,94.02688429993577,1000,94.04358099983074,1000,1000,1000,1000,1,num_2,0.5328099001199007,,30,6,2026-03-12_10h44.01.369,2026A_exp2,2022.2.4,59.79613109152594,
1000,1,3.7,3.7,0,0,17,17,76,,,,,94.59434549999423,95.24469859991223,95.24469859991223,95.74644669983536,45,45,95.74644669983536,95.74644669983536,95.74644669983536,95.74644669983536,95.74644669983536,95.74644669983536,95.74644669983536,95.74644669983536,95.74644669983536,96.09513539983891,96.09513539983891,96.09513539983891,96.09513539983891,96.09513539983891,96.09513539983891,96.09513539983891,96.09513539983891,96.09513539983891,0,1,[0.0008731000125408173],[0.34928980004042387],96.09513539983891,96.2954128999263,1000,96.2954128999263,1000,1000,1000,1000,1,num_2,0.5533025998156518,,30,6,2026-03-12_10h44.01.369,2026A_exp2,2022.2.4,59.79613109152594,
1,0,4.9,0.0,0,0,18,18,14,,,,,96.87991479993798,97.53050829982385,97.53050829982385,98.01450599986129,315,45,98.01450599986129,98.01450599986129,98.01450599986129,98.01450599986129,98.01450599986129,98.01450599986129,98.01450599986129,98.01450599986129,98.01450599986129,98.38133080000989,98.38133080000989,98.38133080000989,98.38133080000989,98.38133080000989,98.38133080000989,98.38133080000989,98.38133080000989,98.38133080000989,0,1,[0.0008086999878287315],[0.36704410007223487],98.38133080000989,98.58128089993261,4.9,98.58128089993261,1,4.9,1,1,1000,num_4,1.1638160001020879,,30,6,2026-03-12_10h44.01.369,2026A_exp2,2022.2.4,59.79613109152594,
1000,1,0.0,3.7,0,0,19,19,21,,,,,99.76541589992121,100.39949429989792,100.39949429989792,100.9005517999176,315,45,100.9005517999176,100.9005517999176,100.9005517999176,100.9005517999176,100.9005517999176,100.9005517999176,100.9005517999176,100.9005517999176,100.9005517999176,101.26725809997879,101.26725809997879,101.26725809997879,101.26725809997879,101.26725809997879,101.26725809997879,101.26725809997879,101.26725809997879,101.26725809997879,17,2,"[0.0007394999265670776, 0.11716170003637671]","[0.0670787999406457, 0.15077359997667372]",101.26725809997879,101.467887399951,1000,101.467887399951,1000,1000,1000,1000,1,num_2,0.380741500062868,,30,6,2026-03-12_10h44.01.369,2026A_exp2,2022.2.4,59.79613109152594,
1000,1,4.9,4.9,0,0,20,20,6,,,,,101.86764850001782,102.51835689996369,102.51835689996369,103.01954100001603,315,315,103.01954100001603,103.01954100001603,103.01954100001603,103.01954100001603,103.01954100001603,103.01954100001603,103.01954100001603,103.01954100001603,103.01954100001603,103.38576409989037,103.38576409989037,103.38576409989037,103.38576409989037,103.38576409989037,103.38576409989037,103.38576409989037,103.38576409989037,103.38576409989037,7,1,[0.0007541999220848083],[0.26704059983603656],103.38576409989037,103.58696829993278,1000,103.58696829993278,1000,1000,1000,1000,1,num_2,0.5981833001133054,,30,6,2026-03-12_10h44.01.369,2026A_exp2,2022.2.4,59.79613109152594,
1000,1,4.9,3.7,1,0,21,21,46,,,,,104.20388449984603,104.83777390001342,104.83777390001342,105.33842709986493,45,315,105.33842709986493,105.33842709986493,105.33842709986493,105.33842709986493,105.33842709986493,105.33842709986493,105.33842709986493,105.33842709986493,105.33842709986493,105.70500639989041,105.70500639989041,105.70500639989041,105.70500639989041,105.70500639989041,105.70500639989041,105.70500639989041,105.70500639989041,105.70500639989041,0,1,[0.0009538999292999506],[0.36482289992272854],105.70500639989041,105.90542569989339,1000,105.90542569989339,1000,1000,1000,1000,0,num_3,0.7275598000269383,,30,6,2026-03-12_10h44.01.369,2026A_exp2,2022.2.4,59.79613109152594,
0,0,0.0,6.1,0,0,22,22,30,,,,,106.65606279997155,107.3066145000048,107.3066145000048,107.79077169997618,45,45,107.79077169997618,107.79077169997618,107.79077169997618,107.79077169997618,107.79077169997618,107.79077169997618,107.79077169997618,107.79077169997618,107.79077169997618,108.15735280001536,108.15735280001536,108.15735280001536,108.15735280001536,108.15735280001536,108.15735280001536,108.15735280001536,108.15735280001536,108.15735280001536,10,2,"[0.14815360005013645, 0.3321872998494655]","[0.3156916999723762, 0.3662113999016583]",108.15735280001536,108.3577004999388,6.1,108.3577004999388,1,6.1,1,1,1000,num_4,0.6909825000911951,,30,6,2026-03-12_10h44.01.369,2026A_exp2,2022.2.4,59.79613109152594,
1000,1,3.7,0.0,1,0,23,23,54,,,,,109.0751265999861,109.70921129989438,109.70921129989438,110.2104974000249,45,315,110.2104974000249,110.2104974000249,110.2104974000249,110.2104974000249,110.2104974000249,110.2104974000249,110.2104974000249,110.2104974000249,110.2104974000249,110.57661699992605,110.57661699992605,110.57661699992605,110.57661699992605,110.57661699992605,110.57661699992605,110.57661699992605,110.57661699992605,110.57661699992605,16,3,"[0.0008091998752206564, 0.06667000008746982, 0.11683079996146262]","[0.049954500049352646, 0.0999692000914365, 0.1497919000685215]",110.57661699992605,110.77698650001548,1000,110.77698650001548,1000,1000,1000,1000,1,num_2,0.45555770001374185,,30,6,2026-03-12_10h44.01.369,2026A_exp2,2022.2.4,59.79613109152594,
0,0,0.0,6.1,0,0,24,24,12,,,,,111.26070420001633,111.91130529996008,111.91130529996008,112.41239369986579,45,315,112.41239369986579,112.41239369986579,112.41239369986579,112.41239369986579,112.41239369986579,112.41239369986579,112.41239369986579,112.41239369986579,112.41239369986579,112.76217949995771,112.76217949995771,112.76217949995771,112.76217949995771,112.76217949995771,112.76217949995771,112.76217949995771,112.76217949995771,112.76217949995771,0,1,[0.000758300069719553],[0.35028279991820455],112.76217949995771,112.96201649983414,6.1,112.97864210000262,1,6.1,1,1,1000,num_4,1.157807799987495,,30,6,2026-03-12_10h44.01.369,2026A_exp2,2022.2.4,59.79613109152594,
1000,1,4.9,3.7,0,0,25,25,26,,,,,114.16362669994123,114.79936609999277,114.79936609999277,115.3156284999568,315,315,115.3156284999568,115.3156284999568,115.3156284999568,115.3156284999568,115.3156284999568,115.3156284999568,115.3156284999568,115.3156284999568,115.3156284999568,115.68151709996164,115.68151709996164,115.68151709996164,115.68151709996164,115.68151709996164,115.68151709996164,115.68151709996164,115.68151709996164,115.68151709996164,23,0,,,115.68151709996164,115.88188100000843,1000,115.88188100000843,1000,1000,1000,1000,1,num_2,0.3989462999161333,,30,6,2026-03-12_10h44.01.369,2026A_exp2,2022.2.4,59.79613109152594,
1,0,0.0,0.0,1,0,26,26,77,,,,,116.29956740001217,116.94961879984476,116.94961879984476,117.4506063000299,45,315,117.4506063000299,117.4506063000299,117.4506063000299,117.4506063000299,117.4506063000299,117.4506063000299,117.4506063000299,117.4506063000299,117.4506063000299,117.81694379984401,117.81694379984401,117.81694379984401,117.81694379984401,117.81694379984401,117.81694379984401,117.81694379984401,117.81694379984401,117.81694379984401,1,1,[0.017328100046142936],[0.3669620999135077],117.81694379984401,118.01734209991992,0.0,118.01734209991992,0,0.0,0,1,1000,num_1,0.2872852999716997,,30,6,2026-03-12_10h44.01.369,2026A_exp2,2022.2.4,59.79613109152594,
0,0,0.0,6.1,1,0,27,27,84,,,,,118.33505290001631,118.98463799990714,118.98463799990714,119.46933489991352,45,45,119.46933489991352,119.46933489991352,119.46933489991352,119.46933489991352,119.46933489991352,119.46933489991352,119.46933489991352,119.46933489991352,119.46933489991352,119.83564289985225,119.83564289985225,119.83564289985225,119.83564289985225,119.83564289985225,119.83564289985225,119.83564289985225,119.83564289985225,119.83564289985225,0,1,[0.0007416000589728355],[0.3671901999041438],119.83564289985225,120.03567889984697,0.0,120.03567889984697,0,0.0,0,1,1000,num_1,0.6126971999183297,,30,6,2026-03-12_10h44.01.369,2026A_exp2,2022.2.4,59.79613109152594,
1,0,4.9,4.9,1,0,28,28,32,,,,,120.67069499986246,121.30391889996827,121.30391889996827,121.80504020000808,45,315,121.80504020000808,121.80504020000808,121.80504020000808,121.80504020000808,121.80504020000808,121.80504020000808,121.80504020000808,121.80504020000808,121.80504020000808,122.17117119999602,122.17117119999602,122.17117119999602,122.17117119999602,122.17117119999602,122.17117119999602,122.17117119999602,122.17117119999602,122.17117119999602,10,2,"[0.0007766999769955873, 0.2174073001369834]","[0.20071170013397932, 0.23413250013254583]",122.17117119999602,122.37192119983956,4.9,122.37192119983956,1,4.9,1,1,1000,num_4,0.46840070001780987,,30,6,2026-03-12_10h44.01.369,2026A_exp2,2022.2.4,59.79613109152594,
1,0,0.0,4.9,1,0,29,29,44,,,,,122.87241469998844,123.5060868000146,123.5060868000146,124.0070032000076,315,315,124.0070032000076,124.0070032000076,124.0070032000076,124.0070032000076,124.0070032000076,124.0070032000076,124.0070032000076,124.0070032000076,124.0070032000076,124.37362909992225,124.37362909992225,124.37362909992225,124.37362909992225,124.37362909992225,124.37362909992225,124.37362909992225,124.37362909992225,124.37362909992225,22,1,[0.2339088001754135],[0.2508918000385165],124.37362909992225,124.57379449997097,4.9,124.57379449997097,1,4.9,1,1,1000,num_4,0.4187847999855876,,30,6,2026-03-12_10h44.01.369,2026A_exp2,2022.2.4,59.79613109152594,
1,0,0.0,0.0,0,0,30,30,64,,,,,125.02427279995754,125.65823920001276,125.65823920001276,126.15926689980552,45,315,126.15926689980552,126.15926689980552,126.15926689980552,126.15926689980552,126.15926689980552,126.15926689980552,126.15926689980552,126.15926689980552,126.15926689980552,126.52631359989755,126.52631359989755,126.52631359989755,126.52631359989755,126.52631359989755,126.52631359989755,126.52631359989755,126.52631359989755,126.52631359989755,3,3,"[0.0009321998804807663, 0.08341250009834766, 0.21776199992746115]","[0.05056550004519522, 0.20076870010234416, 0.3673580999020487]",126.52631359989755,126.72598539991304,0.0,126.72598539991304,0,0.0,0,1,1000,num_1,0.41047520004212856,,30,6,2026-03-12_10h44.01.369,2026A_exp2,2022.2.4,59.79613109152594,
1,0,6.1,0.0,1,0,31,31,29,,,,,127.15996119985357,127.81044529983774,127.81044529983774,128.2955004000105,315,315,128.2955004000105,128.2955004000105,128.2955004000105,128.2955004000105,128.2955004000105,128.2955004000105,128.2955004000105,128.2955004000105,128.2955004000105,128.66183139989153,128.66183139989153,128.66183139989153,128.66183139989153,128.66183139989153,128.66183139989153,128.66183139989153,128.66183139989153,128.66183139989153,11,1,[0.0009413999505341053],[0.19977009994909167],128.66183139989153,128.86148549988866,0.0,128.86148549988866,0,0.0,0,1,1000,num_1,1.0191493998281658,,30,6,2026-03-12_10h44.01.369,2026A_exp2,2022.2.4,59.79613109152594,
1,0,0.0,0.0,1,0,32,32,56,,,,,129.91249029990286,130.5466063998174,130.5466063998174,131.04759879992343,315,315,131.04759879992343,131.04759879992343,131.04759879992343,131.04759879992343,131.04759879992343,131.04759879992343,131.04759879992343,131.04759879992343,131.04759879992343,131.41403419990093,131.41403419990093,131.41403419990093,131.41403419990093,131.41403419990093,131.41403419990093,131.41403419990093,131.41403419990093,131.41403419990093,23,0,,,131.41403419990093,131.6143577999901,0.0,131.6143577999901,0,0.0,0,1,1000,num_1,0.34606090001761913,,30,6,2026-03-12_10h44.01.369,2026A_exp2,2022.2.4,59.79613109152594,
1000,1,0.0,0.0,0,0,33,33,33,,,,,131.98115909984335,132.63191849994473,132.63191849994473,133.11610409989953,45,315,133.11610409989953,133.11610409989953,133.11610409989953,133.11610409989953,133.11610409989953,133.11610409989953,133.11610409989953,133.11610409989953,133.11610409989953,133.48321129987016,133.48321129987016,133.48321129987016,133.48321129987016,133.48321129987016,133.48321129987016,133.48321129987016,133.48321129987016,133.48321129987016,2,2,"[0.0007306002080440521, 0.31795560009777546]","[0.28394670016132295, 0.36754880007356405]",133.48321129987016,133.68325459980406,1000,133.68325459980406,1000,1000,1000,1000,1,num_2,0.6374892999883741,,30,6,2026-03-12_10h44.01.369,2026A_exp2,2022.2.4,59.79613109152594,
1,0,0.0,0.0,1,0,34,34,24,,,,,134.35027639986947,134.98430709983222,134.98430709983222,135.48528839997016,315,45,135.48528839997016,135.48528839997016,135.48528839997016,135.48528839997016,135.48528839997016,135.48528839997016,135.48528839997016,135.48528839997016,135.48528839997016,135.85165759990923,135.85165759990923,135.85165759990923,135.85165759990923,135.85165759990923,135.85165759990923,135.85165759990923,135.85165759990923,135.85165759990923,9,1,[0.000985599821433425],[0.23329619993455708],135.85165759990923,136.05190249998122,0.0,136.05190249998122,0,0.0,0,1,1000,num_1,0.5172935000155121,,30,6,2026-03-12_10h44.01.369,2026A_exp2,2022.2.4,59.79613109152594,
1,0,6.1,0.0,0,0,35,35,22,,,,,136.58588070003316,137.2362067999784,137.2362067999784,137.72077359980904,315,315,137.72077359980904,137.72077359980904,137.72077359980904,137.72077359980904,137.72077359980904,137.72077359980904,137.72077359980904,137.72077359980904,137.72077359980904,138.0872639999725,138.0872639999725,138.0872639999725,138.0872639999725,138.0872639999725,138.0872639999725,138.0872639999725,138.0872639999725,138.0872639999725,1,2,"[0.0009368001483380795, 0.30022340011782944]","[0.2836746999528259, 0.3670791999902576]",138.0872639999725,138.28728639986366,6.1,138.28728639986366,1,6.1,1,1,1000,num_4,1.3857933999970555,,30,6,2026-03-12_10h44.01.369,2026A_exp2,2022.2.4,59.79613109152594,
0,0,4.9,4.9,0,0,36,36,88,,,,,139.7056213999167,140.34037370001897,140.34037370001897,140.8419204999227,315,315,140.8419204999227,140.8419204999227,140.8419204999227,140.8419204999227,140.8419204999227,140.8419204999227,140.8419204999227,140.8419204999227,140.8419204999227,141.20815519988537,141.20815519988537,141.20815519988537,141.20815519988537,141.20815519988537,141.20815519988537,141.20815519988537,141.20815519988537,141.20815519988537,0,1,[0.0012903998140245676],[0.3672386999242008],141.20815519988537,141.40772799984552,4.9,141.40772799984552,1,4.9,1,1,1000,num_4,0.8964246001560241,,30,6,2026-03-12_10h44.01.369,2026A_exp2,2022.2.4,59.79613109152594,
1,0,3.7,3.7,1,0,37,37,11,,,,,142.32488219998777,142.95892359991558,142.95892359991558,143.46022809995338,315,315,143.46022809995338,143.46022809995338,143.46022809995338,143.46022809995338,143.46022809995338,143.46022809995338,143.46022809995338,143.46022809995338,143.46022809995338,143.82640399993397,143.82640399993397,143.82640399993397,143.82640399993397,143.82640399993397,143.82640399993397,143.82640399993397,143.82640399993397,143.82640399993397,1,2,"[0.0009706001728773117, 0.10088569996878505]","[0.08481460018083453, 0.3667864000890404]",143.82640399993397,144.02669780002907,3.7,144.02669780002907,0,3.7,1,0,1000,num_1,0.7018453998025507,,30,6,2026-03-12_10h44.01.369,2026A_exp2,2022.2.4,59.79613109152594,
0,0,4.9,3.7,1,0,38,38,13,,,,,144.76064440002665,145.39479249995202,145.39479249995202,145.896046299953,315,315,145.896046299953,145.896046299953,145.896046299953,145.896046299953,145.896046299953,145.896046299953,145.896046299953,145.896046299953,145.896046299953,146.26231179991737,146.26231179991737,146.26231179991737,146.26231179991737,146.26231179991737,146.26231179991737,146.26231179991737,146.26231179991737,146.26231179991737,7,1,[0.0007661001291126013],[0.2669792000669986],146.26231179991737,146.462415299844,4.9,146.462415299844,1,4.9,1,1,1000,num_4,0.7223350999411196,,30,6,2026-03-12_10h44.01.369,2026A_exp2,2022.2.4,59.79613109152594,
1,0,0.0,0.0,0,0,39,39,87,,,,,147.2132393999491,147.86372899985872,147.86372899985872,148.36467789998278,315,315,148.36467789998278,148.36467789998278,148.36467789998278,148.36467789998278,148.36467789998278,148.36467789998278,148.36467789998278,148.36467789998278,148.36467789998278,148.73133530002087,148.73133530002087,148.73133530002087,148.73133530002087,148.73133530002087,148.73133530002087,148.73133530002087,148.73133530002087,148.73133530002087,0,1,[0.0007432999555021524],[0.36722809984348714],148.73133530002087,148.93147209985182,0.0,148.93147209985182,0,0.0,0,1,1000,num_1,0.26114129996858537,,30,6,2026-03-12_10h44.01.369,2026A_exp2,2022.2.4,59.79613109152594,
1,0,0.0,4.9,0,0,40,40,48,,,,,149.21523769991472,149.86577079980634,149.86577079980634,150.35023189987987,45,315,150.35023189987987,150.35023189987987,150.35023189987987,150.35023189987987,150.35023189987987,150.35023189987987,150.35023189987987,150.35023189987987,150.35023189987987,150.71671279985458,150.71671279985458,150.71671279985458,150.71671279985458,150.71671279985458,150.71671279985458,150.71671279985458,150.71671279985458,150.71671279985458,0,1,[0.0007681997958570719],[0.36712199985049665],150.71671279985458,150.91688019991852,0.0,150.91688019991852,0,0.0,0,1,1000,num_1,0.5392760999966413,,30,6,2026-03-12_10h44.01.369,2026A_exp2,2022.2.4,59.79613109152594,
1,0,6.1,3.7,1,0,41,41,45,,,,,151.4840996998828,152.11803849996068,152.11803849996068,152.61905310000293,315,45,152.61905310000293,152.61905310000293,152.61905310000293,152.61905310000293,152.61905310000293,152.61905310000293,152.61905310000293,152.61905310000293,152.61905310000293,152.98541139997542,152.98541139997542,152.98541139997542,152.98541139997542,152.98541139997542,152.98541139997542,152.98541139997542,152.98541139997542,152.98541139997542,18,1,[0.0008066999725997448],[0.08394789998419583],152.98541139997542,153.18585000000894,3.7,153.18585000000894,1,3.7,1,1,1000,num_4,0.5504805999808013,,30,6,2026-03-12_10h44.01.369,2026A_exp2,2022.2.4,59.79613109152594,
0,0,3.7,0.0,0,0,42,42,16,,,,,153.752948399866,154.38694319990464,154.38694319990464,154.88805749989115,45,45,154.88805749989115,154.88805749989115,154.88805749989115,154.88805749989115,154.88805749989115,154.88805749989115,154.88805749989115,154.88805749989115,154.88805749989115,155.25447189994156,155.25447189994156,155.25447189994156,155.25447189994156,155.25447189994156,155.25447189994156,155.25447189994156,155.25447189994156,155.25447189994156,7,1,[0.000775699969381094],[0.2670769998803735],155.25447189994156,155.45499929995276,0.0,155.45499929995276,0,0.0,0,1,1000,num_1,0.6658077000174671,,30,6,2026-03-12_10h44.01.369,2026A_exp2,2022.2.4,59.79613109152594,
1000,1,4.9,6.1,0,0,43,43,49,,,,,156.13874650001526,156.78961630002595,156.78961630002595,157.27375399996527,45,315,157.27375399996527,157.27375399996527,157.27375399996527,157.27375399996527,157.27375399996527,157.27375399996527,157.27375399996527,157.27375399996527,157.27375399996527,157.64017669996247,157.64017669996247,157.64017669996247,157.64017669996247,157.64017669996247,157.64017669996247,157.64017669996247,157.64017669996247,157.64017669996247,0,1,[0.0009330001194030046],[0.3669669001828879],157.64017669996247,157.84090940002352,1000,157.84090940002352,1000,1000,1000,1000,1,num_2,0.5834216999355704,,30,6,2026-03-12_10h44.01.369,2026A_exp2,2022.2.4,59.79613109152594,
1000,1,6.1,0.0,1,0,44,44,61,,,,,158.44159829989076,159.09162819990888,159.09162819990888,159.57606889982708,45,315,159.57606889982708,159.57606889982708,159.57606889982708,159.57606889982708,159.57606889982708,159.57606889982708,159.57606889982708,159.57606889982708,159.57606889982708,159.9426907999441,159.9426907999441,159.9426907999441,159.9426907999441,159.9426907999441,159.9426907999441,159.9426907999441,159.9426907999441,159.9426907999441,1,2,"[0.0010997999925166368, 0.14981649979017675]","[0.13298969995230436, 0.3664088000077754]",159.9426907999441,160.1428934999276,1000,160.1428934999276,1000,1000,1000,1000,0,num_3,0.3777521001175046,,30,6,2026-03-12_10h44.01.369,2026A_exp2,2022.2.4,59.79613109152594,
1000,1,6.1,0.0,1,0,45,45,71,,,,,160.5435815998353,161.1937710000202,161.1937710000202,161.69495579996146,45,315,161.69495579996146,161.69495579996146,161.69495579996146,161.69495579996146,161.69495579996146,161.69495579996146,161.69495579996146,161.69495579996146,161.69495579996146,162.04488469986245,162.04488469986245,162.04488469986245,162.04488469986245,162.04488469986245,162.04488469986245,162.04488469986245,162.04488469986245,162.04488469986245,0,1,[0.0007893000729382038],[0.35125180007889867],162.04488469986245,162.2449340999592,1000,162.2449340999592,1000,1000,1000,1000,0,num_3,0.38731679995544255,,30,6,2026-03-12_10h44.01.369,2026A_exp2,2022.2.4,59.79613109152594,
1,0,3.7,0.0,1,0,46,46,55,,,,,162.66227789991535,163.31266509997658,163.31266509997658,163.7971015998628,45,45,163.7971015998628,163.7971015998628,163.7971015998628,163.7971015998628,163.7971015998628,163.7971015998628,163.7971015998628,163.7971015998628,163.7971015998628,164.18018349981867,164.18018349981867,164.18018349981867,164.18018349981867,164.18018349981867,164.18018349981867,164.18018349981867,164.18018349981867,164.18018349981867,7,2,"[0.06637830007821321, 0.18313980009406805]","[0.149748400086537, 0.3830511001870036]",164.18018349981867,164.38034879998304,0.0,164.38034879998304,0,0.0,0,1,1000,num_1,0.7723207999952137,,30,6,2026-03-12_10h44.01.369,2026A_exp2,2022.2.4,59.79613109152594,
0,0,4.9,6.1,0,0,47,47,1,,,,,165.18101529986598,165.8157978998497,165.8157978998497,166.3161901999265,315,45,166.3161901999265,166.3161901999265,166.3161901999265,166.3161901999265,166.3161901999265,166.3161901999265,166.3161901999265,166.3161901999265,166.3161901999265,166.68447560002096,166.68447560002096,166.68447560002096,166.68447560002096,166.68447560002096,166.68447560002096,166.68447560002096,166.68447560002096,166.68447560002096,2,2,"[0.0007949999999254942, 0.2346465999726206]","[0.2177273000124842, 0.36717689991928637]",166.68447560002096,166.89951459993608,6.1,166.89951459993608,1,6.1,1,1,1000,num_4,0.5979327000677586,,30,6,2026-03-12_10h44.01.369,2026A_exp2,2022.2.4,59.79613109152594,
1000,1,0.0,0.0,1,0,48,48,27,,,,,167.51675860001706,168.16742079984397,168.16742079984397,168.6518057999201,45,315,168.6518057999201,168.6518057999201,168.6518057999201,168.6518057999201,168.6518057999201,168.6518057999201,168.6518057999201,168.6518057999201,168.6518057999201,169.01820879988372,169.01820879988372,169.01820879988372,169.01820879988372,169.01820879988372,169.01820879988372,169.01820879988372,169.01820879988372,169.01820879988372,11,5,"[0.10005000000819564, 0.13362629991024733, 0.18377380003221333, 0.234082099981606, 0.2669440999161452]","[0.11695900000631809, 0.16699560009874403, 0.20035999990068376, 0.2503088000230491, 0.36698759999126196]",169.01820879988372,169.21851419983432,1000,169.21851419983432,1000,1000,1000,1000,0,num_3,0.7337575000710785,,30,6,2026-03-12_10h44.01.369,2026A_exp2,2022.2.4,59.79613109152594,
1,0,0.0,0.0,1,0,49,49,66,,,,,169.96929749986157,170.61983169987798,170.61983169987798,171.10426829988137,315,45,171.10426829988137,171.10426829988137,171.10426829988137,171.10426829988137,171.10426829988137,171.10426829988137,171.10426829988137,171.10426829988137,171.10426829988137,171.47074020002037,171.47074020002037,171.47074020002037,171.47074020002037,171.47074020002037,171.47074020002037,171.47074020002037,171.47074020002037,171.47074020002037,10,2,"[0.11702580004930496, 0.18361410009674728]","[0.1340169000905007, 0.3676871000789106]",171.47074020002037,171.6710423999466,0.0,171.6710423999466,0,0.0,0,1,1000,num_1,0.37799150007776916,,30,6,2026-03-12_10h44.01.369,2026A_exp2,2022.2.4,59.79613109152594,
1,0,0.0,0.0,0,0,50,50,75,,,,,172.07143889996223,172.70526920002885,172.70526920002885,173.20635679992847,45,45,173.20635679992847,173.20635679992847,173.20635679992847,173.20635679992847,173.20635679992847,173.20635679992847,173.20635679992847,173.20635679992847,173.20635679992847,173.57281109993346,173.57281109993346,173.57281109993346,173.57281109993346,173.57281109993346,173.57281109993346,173.57281109993346,173.57281109993346,173.57281109993346,5,4,"[0.017344199819490314, 0.06680589984171093, 0.10042829997837543, 0.18362609995529056]","[0.03372109984047711, 0.08378019998781383, 0.16686169989407063, 0.366965499939397]",173.57281109993346,173.77308920002542,0.0,173.77308920002542,0,0.0,0,1,1000,num_1,0.2760111999232322,,30,6,2026-03-12_10h44.01.369,2026A_exp2,2022.2.4,59.79613109152594,
1000,1,3.7,3.7,1,0,51,51,25,,,,,174.07335129985586,174.70720439986326,174.70720439986326,175.20836939988658,45,45,175.20836939988658,175.20836939988658,175.20836939988658,175.20836939988658,175.20836939988658,175.20836939988658,175.20836939988658,175.20836939988658,175.20836939988658,175.57483899989165,175.57483899989165,175.57483899989165,175.57483899989165,175.57483899989165,175.57483899989165,175.57483899989165,175.57483899989165,175.57483899989165,1,2,"[0.0009141999762505293, 0.28376660007052124]","[0.2671233001165092, 0.36736120004206896]",175.57483899989165,175.77502950001508,1000,175.77502950001508,1000,1000,1000,1000,1,num_2,0.6491654999554157,,30,6,2026-03-12_10h44.01.369,2026A_exp2,2022.2.4,59.79613109152594,
1,0,0.0,0.0,0,0,52,52,31,,,,,176.44232399994507,177.09326979983598,177.09326979983598,177.5773528998252,315,315,177.5773528998252,177.5773528998252,177.5773528998252,177.5773528998252,177.5773528998252,177.5773528998252,177.5773528998252,177.5773528998252,177.5773528998252,177.94382109981962,177.94382109981962,177.94382109981962,177.94382109981962,177.94382109981962,177.94382109981962,177.94382109981962,177.94382109981962,177.94382109981962,0,1,[0.0007310998626053333],[0.3671021000482142],177.94382109981962,178.1440108998213,0.0,178.1440108998213,0,0.0,0,1,1000,num_1,0.2724095000885427,,30,6,2026-03-12_10h44.01.369,2026A_exp2,2022.2.4,59.79613109152594,
1,0,3.7,0.0,0,0,53,53,15,,,,,178.4442916000262,179.07843669992872,179.07843669992872,179.57923399982974,45,315,179.57923399982974,179.57923399982974,179.57923399982974,179.57923399982974,179.57923399982974,179.57923399982974,179.57923399982974,179.57923399982974,179.57923399982974,179.94595590000972,179.94595590000972,179.94595590000972,179.94595590000972,179.94595590000972,179.94595590000972,179.94595590000972,179.94595590000972,179.94595590000972,23,0,,,179.94595590000972,180.14634660002775,3.7,180.14634660002775,0,3.7,1,0,1000,num_1,0.7187881001736969,,30,6,2026-03-12_10h44.01.369,2026A_exp2,2022.2.4,59.79613109152594,
1,0,0.0,3.7,1,0,54,54,83,,,,,180.8968811999075,181.53164579998702,181.53164579998702,182.0322734999936,45,45,182.0322734999936,182.0322734999936,182.0322734999936,182.0322734999936,182.0322734999936,182.0322734999936,182.0322734999936,182.0322734999936,182.0322734999936,182.39817129983567,182.39817129983567,182.39817129983567,182.39817129983567,182.39817129983567,182.39817129983567,182.39817129983567,182.39817129983567,182.39817129983567,0,1,[0.0007911000866442919],[0.3668545000255108],182.39817129983567,182.59850169997662,3.7,182.59850169997662,1,3.7,1,1,1000,num_4,0.6419258997775614,,30,6,2026-03-12_10h44.01.369,2026A_exp2,2022.2.4,59.79613109152594,
1000,1,4.9,6.1,1,0,55,55,4,,,,,183.2658013999462,183.90082979993895,183.90082979993895,184.4012345999945,315,45,184.4012345999945,184.4012345999945,184.4012345999945,184.4012345999945,184.4012345999945,184.4012345999945,184.4012345999945,184.4012345999945,184.4012345999945,184.76768999989145,184.76768999989145,184.76768999989145,184.76768999989145,184.76768999989145,184.76768999989145,184.76768999989145,184.76768999989145,184.76768999989145,20,3,"[0.06711530010215938, 0.20014930004253983, 0.3671474000439048]","[0.08316499995999038, 0.21722670015878975, 0.36715020006522536]",184.76768999989145,184.9678769998718,1000,184.9678769998718,1000,1000,1000,1000,1,num_2,0.7364888000302017,,30,6,2026-03-12_10h44.01.369,2026A_exp2,2022.2.4,59.79613109152594,
1000,1,3.7,0.0,0,0,56,56,28,,,,,185.7349836998619,186.36921439995058,186.36921439995058,186.87021959992126,315,315,186.87021959992126,186.87021959992126,186.87021959992126,186.87021959992126,186.87021959992126,186.87021959992126,186.87021959992126,186.87021959992126,186.87021959992126,187.2363075998146,187.2363075998146,187.2363075998146,187.2363075998146,187.2363075998146,187.2363075998146,187.2363075998146,187.2363075998146,187.2363075998146,10,5,"[0.0006904001347720623, 0.033522500190883875, 0.166967700002715, 0.2171788001433015, 0.2507411001715809]","[0.017617700155824423, 0.1501838001422584, 0.20048710005357862, 0.23361580003984272, 0.2837708001025021]",187.2363075998146,187.43662479985505,1000,187.43662479985505,1000,1000,1000,1000,1,num_2,0.6922470000572503,,30,6,2026-03-12_10h44.01.369,2026A_exp2,2022.2.4,59.79613109152594,
1000,1,4.9,4.9,0,0,57,57,36,,,,,188.15420440002345,188.80470959981903,188.80470959981903,189.28923829994164,315,315,189.28923829994164,189.28923829994164,189.28923829994164,189.28923829994164,189.28923829994164,189.28923829994164,189.28923829994164,189.28923829994164,189.28923829994164,189.655609899899,189.655609899899,189.655609899899,189.655609899899,189.655609899899,189.655609899899,189.655609899899,189.655609899899,189.655609899899,16,2,"[0.11699350015260279, 0.1692629000172019]","[0.13575680018402636, 0.26693160017021]",189.655609899899,189.85588929988444,1000,189.85588929988444,1000,1000,1000,1000,1,num_2,1.192372600082308,,30,6,2026-03-12_10h44.01.369,2026A_exp2,2022.2.4,59.79613109152594,
1000,1,0.0,3.7,1,0,58,58,7,,,,,191.07380299991928,191.72465569991618,191.72465569991618,192.2091492000036,315,45,192.2091492000036,192.2091492000036,192.2091492000036,192.2091492000036,192.2091492000036,192.2091492000036,192.2091492000036,192.2091492000036,192.2091492000036,192.57542659994215,192.57542659994215,192.57542659994215,192.57542659994215,192.57542659994215,192.57542659994215,192.57542659994215,192.57542659994215,192.57542659994215,23,0,,,192.57542659994215,192.77577409986407,1000,192.77577409986407,1000,1000,1000,1000,1,num_2,0.8093254999257624,,30,6,2026-03-12_10h44.01.369,2026A_exp2,2022.2.4,59.79613109152594,
1000,1,0.0,3.7,0,0,59,59,18,,,,,193.61009209998883,194.2437097998336,194.2437097998336,194.74492860003375,45,45,194.74492860003375,194.74492860003375,194.74492860003375,194.74492860003375,194.74492860003375,194.74492860003375,194.74492860003375,194.74492860003375,194.74492860003375,195.1111896999646,195.1111896999646,195.1111896999646,195.1111896999646,195.1111896999646,195.1111896999646,195.1111896999646,195.1111896999646,195.1111896999646,4,3,"[0.0009689000435173512, 0.2669408998917788, 0.3172180999536067]","[0.23369929986074567, 0.300332099897787, 0.367076100083068]",195.1111896999646,195.3118215999566,1000,195.3118215999566,1000,1000,1000,1000,1,num_2,0.5772345999721438,,30,6,2026-03-12_10h44.01.369,2026A_exp2,2022.2.4,59.79613109152594,
1,0,4.9,0.0,0,0,60,60,19,,,,,195.91231249994598,196.54600829980336,196.54600829980336,197.04693849990144,315,315,197.04693849990144,197.04693849990144,197.04693849990144,197.04693849990144,197.04693849990144,197.04693849990144,197.04693849990144,197.04693849990144,197.04693849990144,197.41357539989986,197.41357539989986,197.41357539989986,197.41357539989986,197.41357539989986,197.41357539989986,197.41357539989986,197.41357539989986,197.41357539989986,23,0,,,197.41357539989986,197.61398289981298,4.9,197.61398289981298,1,4.9,1,1,1000,num_4,0.8110911000985652,,30,6,2026-03-12_10h44.01.369,2026A_exp2,2022.2.4,59.79613109152594,
1,0,0.0,3.7,0,0,61,61,34,,,,,198.4478927999735,199.08183599985205,199.08183599985205,199.5828567999415,45,315,199.5828567999415,199.5828567999415,199.5828567999415,199.5828567999415,199.5828567999415,199.5828567999415,199.5828567999415,199.5828567999415,199.5828567999415,199.9493684999179,199.9493684999179,199.9493684999179,199.9493684999179,199.9493684999179,199.9493684999179,199.9493684999179,199.9493684999179,199.9493684999179,21,1,[0.0007940998766571283],[0.03344729985110462],199.9493684999179,200.149340899894,0.0,200.149340899894,0,0.0,0,1,1000,num_1,0.5948408998083323,,30,6,2026-03-12_10h44.01.369,2026A_exp2,2022.2.4,59.79613109152594,
1,0,0.0,6.1,1,0,62,62,17,,,,,200.76641789986752,201.4008019999601,201.4008019999601,201.90210329997353,315,45,201.90210329997353,201.90210329997353,201.90210329997353,201.90210329997353,201.90210329997353,201.90210329997353,201.90210329997353,201.90210329997353,201.90210329997353,202.26832409994677,202.26832409994677,202.26832409994677,202.26832409994677,202.26832409994677,202.26832409994677,202.26832409994677,202.26832409994677,202.26832409994677,18,4,"[0.1670957999303937, 0.20062130014412105, 0.30049669998697937, 0.3506134001072496]","[0.18388220015913248, 0.21689160005189478, 0.33405099995434284, 0.3670284999534488]",202.26832409994677,202.46831279993057,6.1,202.46831279993057,1,6.1,1,1,1000,num_4,0.420470800017938,,30,6,2026-03-12_10h44.01.369,2026A_exp2,2022.2.4,59.79613109152594,
1,0,6.1,0.0,0,0,63,63,58,,,,,202.91886330000125,203.55270099989139,203.55270099989139,204.05435559991747,45,315,204.05435559991747,204.05435559991747,204.05435559991747,204.05435559991747,204.05435559991747,204.05435559991747,204.05435559991747,204.05435559991747,204.05435559991747,204.42034829990007,204.42034829990007,204.42034829990007,204.42034829990007,204.42034829990007,204.42034829990007,204.42034829990007,204.42034829990007,204.42034829990007,23,0,,,204.42034829990007,204.620898099849,6.1,204.620898099849,1,6.1,1,1,1000,num_4,0.6277350999880582,,30,6,2026-03-12_10h44.01.369,2026A_exp2,2022.2.4,59.79613109152594,
1,0,0.0,0.0,1,0,64,64,60,,,,,205.2713321999181,205.90528599987738,205.90528599987738,206.40650879987516,315,315,206.40650879987516,206.40650879987516,206.40650879987516,206.40650879987516,206.40650879987516,206.40650879987516,206.40650879987516,206.40650879987516,206.40650879987516,206.77282049995847,206.77282049995847,206.77282049995847,206.77282049995847,206.77282049995847,206.77282049995847,206.77282049995847,206.77282049995847,206.77282049995847,0,1,[0.0011093001812696457],[0.36663770000450313],206.77282049995847,206.97306280001067,0.0,206.97306280001067,0,0.0,0,1,1000,num_1,0.3951456998474896,,30,6,2026-03-12_10h44.01.369,2026A_exp2,2022.2.4,59.79613109152594,
1,0,0.0,0.0,1,0,65,65,42,,,,,207.3902831999585,208.04062759992667,208.04062759992667,208.52545570000075,45,45,208.52545570000075,208.52545570000075,208.52545570000075,208.52545570000075,208.52545570000075,208.52545570000075,208.52545570000075,208.52545570000075,208.52545570000075,208.89161099982448,208.89161099982448,208.89161099982448,208.89161099982448,208.89161099982448,208.89161099982448,208.89161099982448,208.89161099982448,208.89161099982448,23,0,,,208.89161099982448,209.09194219997153,0.0,209.09194219997153,0,0.0,0,1,1000,num_1,0.44468029984273016,,30,6,2026-03-12_10h44.01.369,2026A_exp2,2022.2.4,59.79613109152594,
1000,1,0.0,0.0,1,0,66,66,80,,,,,209.55894329980947,210.19298069993965,210.19298069993965,210.6939222998917,315,45,210.6939222998917,210.6939222998917,210.6939222998917,210.6939222998917,210.6939222998917,210.6939222998917,210.6939222998917,210.6939222998917,210.6939222998917,211.06039360002615,211.06039360002615,211.06039360002615,211.06039360002615,211.06039360002615,211.06039360002615,211.06039360002615,211.06039360002615,211.06039360002615,23,0,,,211.06039360002615,211.26085729990155,1000,211.26085729990155,1000,1000,1000,1000,1,num_2,0.7001459999009967,,30,6,2026-03-12_10h44.01.369,2026A_exp2,2022.2.4,59.79613109152594,
1,0,0.0,6.1,1,0,67,67,39,,,,,211.97849110001698,212.62869929987937,212.62869929987937,213.11349819996394,315,45,213.11349819996394,213.11349819996394,213.11349819996394,213.11349819996394,213.11349819996394,213.11349819996394,213.11349819996394,213.11349819996394,213.11349819996394,213.49618629994802,213.49618629994802,213.49618629994802,213.49618629994802,213.49618629994802,213.49618629994802,213.49618629994802,213.49618629994802,213.49618629994802,24,0,,,213.49618629994802,213.69628689996898,6.1,213.69628689996898,1,6.1,1,1,1000,num_4,0.40039129997603595,,30,6,2026-03-12_10h44.01.369,2026A_exp2,2022.2.4,59.79613109152594,
1000,1,4.9,4.9,1,0,68,68,67,,,,,214.1130713999737,214.74723499990068,214.74723499990068,215.24778370000422,45,315,215.24778370000422,215.24778370000422,215.24778370000422,215.24778370000422,215.24778370000422,215.24778370000422,215.24778370000422,215.24778370000422,215.24778370000422,215.61434209998697,215.61434209998697,215.61434209998697,215.61434209998697,215.61434209998697,215.61434209998697,215.61434209998697,215.61434209998697,215.61434209998697,23,0,,,215.61434209998697,215.8154494999908,1000,215.8154494999908,1000,1000,1000,1000,1,num_2,0.7689952999353409,,30,6,2026-03-12_10h44.01.369,2026A_exp2,2022.2.4,59.79613109152594,
1,0,4.9,0.0,0,0,69,69,47,,,,,216.61602389998734,217.26661659986712,217.26661659986712,217.75100649986416,45,45,217.75100649986416,217.75100649986416,217.75100649986416,217.75100649986416,217.75100649986416,217.75100649986416,217.75100649986416,217.75100649986416,217.75100649986416,218.11748000001535,218.11748000001535,218.11748000001535,218.11748000001535,218.11748000001535,218.11748000001535,218.11748000001535,218.11748000001535,218.11748000001535,1,2,"[0.0007430999539792538, 0.33382279984652996]","[0.3172078998759389, 0.36720329988747835]",218.11748000001535,218.31775299995206,4.9,218.31775299995206,1,4.9,1,1,1000,num_4,0.5708161001093686,,30,6,2026-03-12_10h44.01.369,2026A_exp2,2022.2.4,59.79613109152594,
1,0,3.7,4.9,0,0,70,70,70,,,,,218.9182386000175,219.56908799987286,219.56908799987286,220.05319250002503,45,45,220.05319250002503,220.05319250002503,220.05319250002503,220.05319250002503,220.05319250002503,220.05319250002503,220.05319250002503,220.05319250002503,220.05319250002503,220.41992689995095,220.41992689995095,220.41992689995095,220.41992689995095,220.41992689995095,220.41992689995095,220.41992689995095,220.41992689995095,220.41992689995095,1,2,"[0.000938100041821599, 0.33385400008410215]","[0.3170426001306623, 0.36748510017059743]",220.41992689995095,220.61982919997536,3.7,220.61982919997536,0,3.7,1,0,1000,num_1,0.8927685001399368,,30,6,2026-03-12_10h44.01.369,2026A_exp2,2022.2.4,59.79613109152594,
1,0,6.1,3.7,0,0,71,71,79,,,,,221.53755689994432,222.17148909997195,222.17148909997195,222.67260479996912,315,45,222.67260479996912,222.67260479996912,222.67260479996912,222.67260479996912,222.67260479996912,222.67260479996912,222.67260479996912,222.67260479996912,222.67260479996912,223.03917020000517,223.03917020000517,223.03917020000517,223.03917020000517,223.03917020000517,223.03917020000517,223.03917020000517,223.03917020000517,223.03917020000517,19,3,"[0.0007370999082922935, 0.08384079998359084, 0.3671895998995751]","[0.033626999938860536, 0.10048759984783828, 0.3671923999208957]",223.03917020000517,223.23920169984922,6.1,223.23920169984922,1,6.1,1,1,1000,num_4,0.4814303999301046,,30,6,2026-03-12_10h44.01.369,2026A_exp2,2022.2.4,59.79613109152594,
0,0,6.1,0.0,0,0,72,72,65,,,,,223.73980450001545,224.39044689992443,224.39044689992443,224.89139739982784,315,45,224.89139739982784,224.89139739982784,224.89139739982784,224.89139739982784,224.89139739982784,224.89139739982784,224.89139739982784,224.89139739982784,224.89139739982784,225.2413230999373,225.2413230999373,225.2413230999373,225.2413230999373,225.2413230999373,225.2413230999373,225.2413230999373,225.2413230999373,225.2413230999373,12,6,"[0.03357299999333918, 0.0670596999116242, 0.10078170010820031, 0.1338128000497818, 0.18373599997721612, 0.25053020007908344]","[0.05038779997266829, 0.08386070001870394, 0.11703140009194613, 0.15052650007419288, 0.2003417001105845, 0.33419739990495145]",225.2413230999373,225.44164819992147,0.0,225.44164819992147,0,0.0,0,1,1000,num_1,0.7193976999260485,,30,6,2026-03-12_10h44.01.369,2026A_exp2,2022.2.4,59.79613109152594,
1000,1,0.0,4.9,0,0,73,73,50,,,,,226.1919364000205,226.8262043998111,226.8262043998111,227.32821969990619,45,315,227.32821969990619,227.32821969990619,227.32821969990619,227.32821969990619,227.32821969990619,227.32821969990619,227.32821969990619,227.32821969990619,227.32821969990619,227.69350149994716,227.69350149994716,227.69350149994716,227.69350149994716,227.69350149994716,227.69350149994716,227.69350149994716,227.69350149994716,227.69350149994716,23,0,,,227.69350149994716,227.89418990002014,1000,227.89418990002014,1000,1000,1000,1000,1,num_2,0.6420825999230146,,30,6,2026-03-12_10h44.01.369,2026A_exp2,2022.2.4,59.79613109152594,
1000,1,0.0,0.0,1,0,74,74,8,,,,,228.5616859998554,229.21191399986856,229.21191399986856,229.69649260002188,45,315,229.69649260002188,229.69649260002188,229.69649260002188,229.69649260002188,229.69649260002188,229.69649260002188,229.69649260002188,229.69649260002188,229.69649260002188,230.062833199976,230.062833199976,230.062833199976,230.062833199976,230.062833199976,230.062833199976,230.062833199976,230.062833199976,230.062833199976,23,0,,,230.062833199976,230.2627538999077,1000,230.2627538999077,1000,1000,1000,1000,1,num_2,0.6179708999115974,,30,6,2026-03-12_10h44.01.369,2026A_exp2,2022.2.4,59.79613109152594,
1,0,4.9,6.1,1,0,75,75,62,,,,,230.89693639986217,231.54758759983815,231.54758759983815,232.0485946999397,45,315,232.0485946999397,232.0485946999397,232.0485946999397,232.0485946999397,232.0485946999397,232.0485946999397,232.0485946999397,232.0485946999397,232.0485946999397,232.39833229989745,232.39833229989745,232.39833229989745,232.39833229989745,232.39833229989745,232.39833229989745,232.39833229989745,232.39833229989745,232.39833229989745,22,0,,,232.39833229989745,232.5985848000273,6.1,232.6152468000073,1,6.1,1,1,1000,num_4,0.43400130001828074,,30,6,2026-03-12_10h44.01.369,2026A_exp2,2022.2.4,59.79613109152594,
1000,1,0.0,3.7,1,0,76,76,81,,,,,233.06572830001824,233.69960559997708,233.69960559997708,234.20077849994414,315,45,234.20077849994414,234.20077849994414,234.20077849994414,234.20077849994414,234.20077849994414,234.20077849994414,234.20077849994414,234.20077849994414,234.20077849994414,234.5672480999492,234.5672480999492,234.5672480999492,234.5672480999492,234.5672480999492,234.5672480999492,234.5672480999492,234.5672480999492,234.5672480999492,8,1,[0.0009139999747276306],[0.25166949979029596],234.5672480999492,234.7690389000345,1000,234.7690389000345,1000,1000,1000,1000,1,num_2,0.5360065000131726,,30,6,2026-03-12_10h44.01.369,2026A_exp2,2022.2.4,59.79613109152594,
1000,1,0.0,6.1,0,0,77,77,85,,,,,235.33462319988757,235.9852832998149,235.9852832998149,236.46965670003556,45,45,236.46965670003556,236.46965670003556,236.46965670003556,236.46965670003556,236.46965670003556,236.46965670003556,236.46965670003556,236.46965670003556,236.46965670003556,236.83612869982608,236.83612869982608,236.83612869982608,236.83612869982608,236.83612869982608,236.83612869982608,236.83612869982608,236.83612869982608,236.83612869982608,23,0,,,236.83612869982608,237.0363978999667,1000,237.0363978999667,1000,1000,1000,1000,1,num_2,0.5964399999938905,,30,6,2026-03-12_10h44.01.369,2026A_exp2,2022.2.4,59.79613109152594,
1000,1,0.0,3.7,1,0,78,78,86,,,,,237.6536013998557,238.30438630003482,238.30438630003482,238.80531089985743,45,45,238.80531089985743,238.80531089985743,238.80531089985743,238.80531089985743,238.80531089985743,238.80531089985743,238.80531089985743,238.80531089985743,238.80531089985743,239.15511719998904,239.15511719998904,239.15511719998904,239.15511719998904,239.15511719998904,239.15511719998904,239.15511719998904,239.15511719998904,239.15511719998904,22,0,,,239.15511719998904,239.35600239993073,1000,239.35600239993073,1000,1000,1000,1000,1,num_2,0.548758199904114,,30,6,2026-03-12_10h44.01.369,2026A_exp2,2022.2.4,59.79613109152594,
1,0,4.9,3.7,0,0,79,79,89,,,,,239.92271590000018,240.55631919996813,240.55631919996813,241.05762259988114,45,315,241.05762259988114,241.05762259988114,241.05762259988114,241.05762259988114,241.05762259988114,241.05762259988114,241.05762259988114,241.05762259988114,241.05762259988114,241.42413759999909,241.42413759999909,241.42413759999909,241.42413759999909,241.42413759999909,241.42413759999909,241.42413759999909,241.42413759999909,241.42413759999909,9,2,"[0.0007858001627027988, 0.050273300148546696]","[0.03339610015973449, 0.25047329999506474]",241.42413759999909,241.6241109999828,4.9,241.6241109999828,1,4.9,1,1,1000,num_4,0.464337200159207,,30,6,2026-03-12_10h44.01.369,2026A_exp2,2022.2.4,59.79613109152594,
1,0,6.1,0.0,1,0,80,80,41,,,,,242.10802709986456,242.7590010999702,242.7590010999702,243.24323719996028,315,45,243.24323719996028,243.24323719996028,243.24323719996028,243.24323719996028,243.24323719996028,243.24323719996028,243.24323719996028,243.24323719996028,243.24323719996028,243.6094657999929,243.6094657999929,243.6094657999929,243.6094657999929,243.6094657999929,243.6094657999929,243.6094657999929,243.6094657999929,243.6094657999929,23,0,,,243.6094657999929,243.80999509990215,0.0,243.80999509990215,0,0.0,0,1,1000,num_1,1.2387864000629634,,30,6,2026-03-12_10h44.01.369,2026A_exp2,2022.2.4,59.79613109152594,
1,0,0.0,0.0,1,0,81,81,68,,,,,245.07806889992207,245.7283063000068,245.7283063000068,246.21300460002385,315,315,246.21300460002385,246.21300460002385,246.21300460002385,246.21300460002385,246.21300460002385,246.21300460002385,246.21300460002385,246.21300460002385,246.21300460002385,246.57896129996516,246.57896129996516,246.57896129996516,246.57896129996516,246.57896129996516,246.57896129996516,246.57896129996516,246.57896129996516,246.57896129996516,20,1,[0.0007662000134587288],[0.03349879989400506],246.57896129996516,246.77926799980924,0.0,246.77926799980924,0,0.0,0,1,1000,num_1,0.43697689985856414,,30,6,2026-03-12_10h44.01.369,2026A_exp2,2022.2.4,59.79613109152594,
1000,1,0.0,0.0,1,0,82,82,78,,,,,247.24661859986372,247.88044520001858,247.88044520001858,248.381583499955,45,315,248.381583499955,248.381583499955,248.381583499955,248.381583499955,248.381583499955,248.381583499955,248.381583499955,248.381583499955,248.381583499955,248.74807500001043,248.74807500001043,248.74807500001043,248.74807500001043,248.74807500001043,248.74807500001043,248.74807500001043,248.74807500001043,248.74807500001043,21,1,[0.0007392000406980515],[0.034065699903294444],248.74807500001043,248.94894179981202,1000,248.94894179981202,1000,1000,1000,1000,1,num_2,0.6034140000119805,,30,6,2026-03-12_10h44.01.369,2026A_exp2,2022.2.4,59.79613109152594,
1000,1,6.1,3.7,0,0,83,83,43,,,,,249.5821269999724,250.2164382999763,250.2164382999763,250.71761969989166,45,45,250.71761969989166,250.71761969989166,250.71761969989166,250.71761969989166,250.71761969989166,250.71761969989166,250.71761969989166,250.71761969989166,250.71761969989166,251.08343290002085,251.08343290002085,251.08343290002085,251.08343290002085,251.08343290002085,251.08343290002085,251.08343290002085,251.08343290002085,251.08343290002085,23,0,,,251.08343290002085,251.2839554999955,1000,251.2839554999955,1000,1000,1000,1000,0,num_3,1.0450631000567228,,30,6,2026-03-12_10h44.01.369,2026A_exp2,2022.2.4,59.79613109152594,
1,0,0.0,4.9,0,0,84,84,9,,,,,252.35158149991184,252.9855187998619,252.9855187998619,253.48665770003572,315,315,253.48665770003572,253.48665770003572,253.48665770003572,253.48665770003572,253.48665770003572,253.48665770003572,253.48665770003572,253.48665770003572,253.48665770003572,253.85358299990185,253.85358299990185,253.85358299990185,253.85358299990185,253.85358299990185,253.85358299990185,253.85358299990185,253.85358299990185,253.85358299990185,13,1,[0.0009041000157594681],[0.16692740004509687],253.85358299990185,254.0533433998935,0.0,254.0533433998935,0,0.0,0,1,1000,num_1,0.6510884999297559,,30,6,2026-03-12_10h44.01.369,2026A_exp2,2022.2.4,59.79613109152594,
1000,1,4.9,6.1,0,0,85,85,35,,,,,254.72104569990188,255.37149639986455,255.37149639986455,255.8726237998344,45,45,255.8726237998344,255.8726237998344,255.8726237998344,255.8726237998344,255.8726237998344,255.8726237998344,255.8726237998344,255.8726237998344,255.8726237998344,256.2393628000282,256.2393628000282,256.2393628000282,256.2393628000282,256.2393628000282,256.2393628000282,256.2393628000282,256.2393628000282,256.2393628000282,23,0,,,256.2393628000282,256.43923130002804,1000,256.43923130002804,1000,1000,1000,1000,1,num_2,0.6176424999721348,,30,6,2026-03-12_10h44.01.369,2026A_exp2,2022.2.4,59.79613109152594,
1000,1,4.9,0.0,0,0,86,86,82,,,,,257.07325329980813,257.723864399828,257.723864399828,258.20812109997496,45,315,258.20812109997496,258.20812109997496,258.20812109997496,258.20812109997496,258.20812109997496,258.20812109997496,258.20812109997496,258.20812109997496,258.20812109997496,258.5747231999412,258.5747231999412,258.5747231999412,258.5747231999412,258.5747231999412,258.5747231999412,258.5747231999412,258.5747231999412,258.5747231999412,23,0,,,258.5747231999412,258.7750158999115,1000,258.7750158999115,1000,1000,1000,1000,0,num_3,0.6732073000166565,,30,6,2026-03-12_10h44.01.369,2026A_exp2,2022.2.4,59.79613109152594,
1,0,4.9,0.0,1,0,87,87,52,,,,,259.475540000014,260.1259240999352,260.1259240999352,260.6105984998867,45,315,260.6105984998867,260.6105984998867,260.6105984998867,260.6105984998867,260.6105984998867,260.6105984998867,260.6105984998867,260.6105984998867,260.6105984998867,260.97705829981714,260.97705829981714,260.97705829981714,260.97705829981714,260.97705829981714,260.97705829981714,260.97705829981714,260.97705829981714,260.97705829981714,23,0,,,260.97705829981714,261.1774835998658,0.0,261.1774835998658,0,0.0,0,1,1000,num_1,2.735209299949929,,30,6,2026-03-12_10h44.01.369,2026A_exp2,2022.2.4,59.79613109152594,
0,0,0.0,0.0,0,0,88,88,10,,,,,263.9299777999986,264.5805210999679,264.5805210999679,265.06490749982186,315,315,265.06490749982186,265.06490749982186,265.06490749982186,265.06490749982186,265.06490749982186,265.06490749982186,265.06490749982186,265.06490749982186,265.06490749982186,265.43131809984334,265.43131809984334,265.43131809984334,265.43131809984334,265.43131809984334,265.43131809984334,265.43131809984334,265.43131809984334,265.43131809984334,23,0,,,265.43131809984334,265.63137739989907,0.0,265.63137739989907,0,0.0,0,1,1000,num_1,0.34501369995996356,,30,6,2026-03-12_10h44.01.369,2026A_exp2,2022.2.4,59.79613109152594,
1,0,0.0,4.9,1,0,89,89,2,,,,,265.9984718998894,266.64919129991904,266.64919129991904,267.13376450003125,315,45,267.13376450003125,267.13376450003125,267.13376450003125,267.13376450003125,267.13376450003125,267.13376450003125,267.13376450003125,267.13376450003125,267.13376450003125,267.50003289990127,267.50003289990127,267.50003289990127,267.50003289990127,267.50003289990127,267.50003289990127,267.50003289990127,267.50003289990127,267.50003289990127,23,0,,,267.50003289990127,267.7001989998389,4.9,267.7001989998389,1,4.9,1,1,1000,num_4,0.5567453000694513,,30,6,2026-03-12_10h44.01.369,2026A_exp2,2022.2.4,59.79613109152594,
,,,,,,,,,,,,,,,,,,,,,,,,,,,,,,,,,,,,,,,,,,,,,,,,,,,,268.2882300999481,,,,,,,
