validity,detectorcomp,contrastCW,contrastCCW,precueCWorCCW,block_80trials.thisRepN,block_80trials.thisTrialN,block_80trials.thisN,block_80trials.thisIndex,etRecord.started,etRecord.stopped,text.started,text.stopped,text_4.started,text_4.stopped,text_6.started,text_6.stopped,oriCW,oriCCW,roi_2.started,grating_UR.started,grating_UL.started,grating_LR.started,grating_LL.started,noise_UR.started,noise_UL.started,noise_LR.started,noise_LL.started,roi_2.stopped,grating_UR.stopped,grating_UL.stopped,grating_LR.stopped,grating_LL.stopped,noise_UR.stopped,noise_UL.stopped,noise_LR.stopped,noise_LL.stopped,outframe,roi_2.numLooks,roi_2.timesOn,roi_2.timesOff,text_2.started,text_2.stopped,probedcontrast,key_resp.started,respdetect,relevantContrast,correctDetect,TorFdetect,respCWorCCW,key_resp.keys,key_resp.rt,feedback_display_.started,participantNo,blockNo,date,expName,psychopyVersion,frameRate,
1000,1,6.1,6.1,0,0,0,0,56,5.219999002292752e-05,5.219999002292752e-05,48.13194130000193,50.13541439996334,50.13541439996334,50.76872779999394,50.76872779999394,51.29208349995315,315,45,51.29208349995315,51.29208349995315,51.29208349995315,51.29208349995315,51.29208349995315,51.29208349995315,51.29208349995315,51.29208349995315,51.29208349995315,51.63621599995531,51.63621599995531,51.63621599995531,51.63621599995531,51.63621599995531,51.63621599995531,51.63621599995531,51.63621599995531,51.63621599995531,23,0,,,51.63621599995531,51.83665139996447,1000,51.83665139996447,1000,1000,1000,1000,1,num_2,0.6984021999523975,,26,8,2026-03-05_10h55.17.495,2026A_exp2,2022.2.4,59.885188107598424,
1,0,0.0,3.7,1,0,1,1,12,,,,,52.55365519999759,53.20443990000058,53.20443990000058,53.688910399971064,315,315,53.688910399971064,53.688910399971064,53.688910399971064,53.688910399971064,53.688910399971064,53.688910399971064,53.688910399971064,53.688910399971064,53.688910399971064,54.05521899997257,54.05521899997257,54.05521899997257,54.05521899997257,54.05521899997257,54.05521899997257,54.05521899997257,54.05521899997257,54.05521899997257,23,0,,,54.05521899997257,54.255365399993025,3.7,54.255365399993025,1,3.7,1,1,1000,num_4,1.0961733000003733,,26,8,2026-03-05_10h55.17.495,2026A_exp2,2022.2.4,59.885188107598424,
1,0,3.7,4.9,0,0,2,2,84,,,,,55.373153499967884,56.023772299988195,56.023772299988195,56.508329099975526,315,45,56.508329099975526,56.508329099975526,56.508329099975526,56.508329099975526,56.508329099975526,56.508329099975526,56.508329099975526,56.508329099975526,56.508329099975526,56.87473799998406,56.87473799998406,56.87473799998406,56.87473799998406,56.87473799998406,56.87473799998406,56.87473799998406,56.87473799998406,56.87473799998406,23,0,,,56.87473799998406,57.07558839995181,3.7,57.07558839995181,0,3.7,1,0,1000,num_1,1.1715175999561325,,26,8,2026-03-05_10h55.17.495,2026A_exp2,2022.2.4,59.885188107598424,
1,0,4.9,0.0,1,0,3,3,48,,,,,58.27596249995986,58.91019419999793,58.91019419999793,59.411039599974174,315,315,59.411039599974174,59.411039599974174,59.411039599974174,59.411039599974174,59.411039599974174,59.411039599974174,59.411039599974174,59.411039599974174,59.411039599974174,59.777672500000335,59.777672500000335,59.777672500000335,59.777672500000335,59.777672500000335,59.777672500000335,59.777672500000335,59.777672500000335,59.777672500000335,23,0,,,59.777672500000335,59.97760829998879,0.0,59.97760829998879,0,0.0,0,1,1000,num_1,0.6773877000086941,,26,8,2026-03-05_10h55.17.495,2026A_exp2,2022.2.4,59.885188107598424,
1000,1,4.9,4.9,1,0,4,4,85,,,,,60.67859749996569,61.32897219998995,61.32897219998995,61.8134877999546,45,45,61.8134877999546,61.8134877999546,61.8134877999546,61.8134877999546,61.8134877999546,61.8134877999546,61.8134877999546,61.8134877999546,61.8134877999546,62.179914099979214,62.179914099979214,62.179914099979214,62.179914099979214,62.179914099979214,62.179914099979214,62.179914099979214,62.179914099979214,62.179914099979214,23,0,,,62.179914099979214,62.38046349998331,1000,62.38046349998331,1000,1000,1000,1000,1,num_2,0.7948076000320725,,26,8,2026-03-05_10h55.17.495,2026A_exp2,2022.2.4,59.885188107598424,
1,0,3.7,4.9,0,0,5,5,31,,,,,63.198083199968096,63.848261300008744,63.848261300008744,64.33297190000303,315,45,64.33297190000303,64.33297190000303,64.33297190000303,64.33297190000303,64.33297190000303,64.33297190000303,64.33297190000303,64.33297190000303,64.33297190000303,64.6990744000068,64.6990744000068,64.6990744000068,64.6990744000068,64.6990744000068,64.6990744000068,64.6990744000068,64.6990744000068,64.6990744000068,23,0,,,64.6990744000068,64.89950780000072,3.7,64.91625769995153,0,3.7,1,0,1000,num_1,1.6671697999699973,,26,8,2026-03-05_10h55.17.495,2026A_exp2,2022.2.4,59.885188107598424,
1,0,0.0,6.1,0,0,6,6,57,,,,,66.60115669999504,67.25182389997644,67.25182389997644,67.75285289995372,45,315,67.75285289995372,67.75285289995372,67.75285289995372,67.75285289995372,67.75285289995372,67.75285289995372,67.75285289995372,67.75285289995372,67.75285289995372,68.1191925999592,68.1191925999592,68.1191925999592,68.1191925999592,68.1191925999592,68.1191925999592,68.1191925999592,68.1191925999592,68.1191925999592,23,0,,,68.1191925999592,68.31946959998459,0.0,68.31946959998459,0,0.0,0,1,1000,num_1,0.6876366999931633,,26,8,2026-03-05_10h55.17.495,2026A_exp2,2022.2.4,59.885188107598424,
1000,1,0.0,4.9,0,0,7,7,27,,,,,69.03678599995328,69.6876454000012,69.6876454000012,70.17235099995742,45,45,70.17235099995742,70.17235099995742,70.17235099995742,70.17235099995742,70.17235099995742,70.17235099995742,70.17235099995742,70.17235099995742,70.17235099995742,70.53818699996918,70.53818699996918,70.53818699996918,70.53818699996918,70.53818699996918,70.53818699996918,70.53818699996918,70.53818699996918,70.53818699996918,23,0,,,70.53818699996918,70.73869440000271,1000,70.73869440000271,1000,1000,1000,1000,1,num_2,0.42881929996656254,,26,8,2026-03-05_10h55.17.495,2026A_exp2,2022.2.4,59.885188107598424,
1000,1,6.1,6.1,0,0,8,8,74,,,,,71.1892644999898,71.83974379999563,71.83974379999563,72.34085169999162,45,315,72.34085169999162,72.34085169999162,72.34085169999162,72.34085169999162,72.34085169999162,72.34085169999162,72.34085169999162,72.34085169999162,72.34085169999162,72.69079299998702,72.69079299998702,72.69079299998702,72.69079299998702,72.69079299998702,72.69079299998702,72.69079299998702,72.69079299998702,72.69079299998702,22,0,,,72.69079299998702,72.89078499999596,1000,72.90741889999481,1000,1000,1000,1000,0,num_3,0.939587400003802,,26,8,2026-03-05_10h55.17.495,2026A_exp2,2022.2.4,59.885188107598424,
0,0,3.7,3.7,0,0,9,9,63,,,,,73.87518009997439,74.52613099996233,74.52613099996233,75.01034679997247,45,315,75.01034679997247,75.01034679997247,75.01034679997247,75.01034679997247,75.01034679997247,75.01034679997247,75.01034679997247,75.01034679997247,75.01034679997247,75.37663049995899,75.37663049995899,75.37663049995899,75.37663049995899,75.37663049995899,75.37663049995899,75.37663049995899,75.37663049995899,75.37663049995899,23,0,,,75.37663049995899,75.57670879998477,3.7,75.59340219997102,1,3.7,1,1,1000,num_4,0.7177551999920979,,26,8,2026-03-05_10h55.17.495,2026A_exp2,2022.2.4,59.885188107598424,
1,0,0.0,0.0,1,0,10,10,82,,,,,76.32752709998749,76.97834649996366,76.97834649996366,77.47946569998749,315,315,77.47946569998749,77.47946569998749,77.47946569998749,77.47946569998749,77.47946569998749,77.47946569998749,77.47946569998749,77.47946569998749,77.47946569998749,77.84548519999953,77.84548519999953,77.84548519999953,77.84548519999953,77.84548519999953,77.84548519999953,77.84548519999953,77.84548519999953,77.84548519999953,23,0,,,77.84548519999953,78.04585150000639,0.0,78.04585150000639,1,0.0,0,0,1000,num_4,0.9134401999763213,,26,8,2026-03-05_10h55.17.495,2026A_exp2,2022.2.4,59.885188107598424,
1000,1,0.0,3.7,1,0,11,11,75,,,,,78.98023909999756,79.63135189999593,79.63135189999593,80.11532639997313,45,315,80.11532639997313,80.11532639997313,80.11532639997313,80.11532639997313,80.11532639997313,80.11532639997313,80.11532639997313,80.11532639997313,80.11532639997313,80.48208290000912,80.48208290000912,80.48208290000912,80.48208290000912,80.48208290000912,80.48208290000912,80.48208290000912,80.48208290000912,80.48208290000912,23,0,,,80.48208290000912,80.6822036000085,1000,80.6822036000085,1000,1000,1000,1000,1,num_2,0.5736345999757759,,26,8,2026-03-05_10h55.17.495,2026A_exp2,2022.2.4,59.885188107598424,
1000,1,4.9,0.0,1,0,12,12,28,,,,,81.28252829995472,81.9330203999998,81.9330203999998,82.41780219995417,45,45,82.41780219995417,82.41780219995417,82.41780219995417,82.41780219995417,82.41780219995417,82.41780219995417,82.41780219995417,82.41780219995417,82.41780219995417,82.78389520000201,82.78389520000201,82.78389520000201,82.78389520000201,82.78389520000201,82.78389520000201,82.78389520000201,82.78389520000201,82.78389520000201,23,0,,,82.78389520000201,82.98468309995951,1000,82.98468309995951,1000,1000,1000,1000,0,num_3,1.3984226000029594,,26,8,2026-03-05_10h55.17.495,2026A_exp2,2022.2.4,59.885188107598424,
1000,1,4.9,0.0,0,0,13,13,78,,,,,84.40239099995233,85.03693269996438,85.03693269996438,85.53742020000936,45,45,85.53742020000936,85.53742020000936,85.53742020000936,85.53742020000936,85.53742020000936,85.53742020000936,85.53742020000936,85.53742020000936,85.53742020000936,85.90381210000487,85.90381210000487,85.90381210000487,85.90381210000487,85.90381210000487,85.90381210000487,85.90381210000487,85.90381210000487,85.90381210000487,23,0,,,85.90381210000487,86.10414579999633,1000,86.10414579999633,1000,1000,1000,1000,0,num_3,0.4073279000003822,,26,8,2026-03-05_10h55.17.495,2026A_exp2,2022.2.4,59.885188107598424,
0,0,0.0,0.0,0,0,14,14,69,,,,,86.53769369999645,87.18831389996922,87.18831389996922,87.67288530000951,315,315,87.67288530000951,87.67288530000951,87.67288530000951,87.67288530000951,87.67288530000951,87.67288530000951,87.67288530000951,87.67288530000951,87.67288530000951,88.03917929995805,88.03917929995805,88.03917929995805,88.03917929995805,88.03917929995805,88.03917929995805,88.03917929995805,88.03917929995805,88.03917929995805,23,0,,,88.03917929995805,88.23951529996702,0.0,88.23951529996702,0,0.0,0,1,1000,num_1,1.295511600037571,,26,8,2026-03-05_10h55.17.495,2026A_exp2,2022.2.4,59.885188107598424,
1000,1,3.7,6.1,0,0,15,15,81,,,,,89.5577559999656,90.19137239997508,90.19137239997508,90.69241329998476,315,315,90.69241329998476,90.69241329998476,90.69241329998476,90.69241329998476,90.69241329998476,90.69241329998476,90.69241329998476,90.69241329998476,90.69241329998476,91.05882799997926,91.05882799997926,91.05882799997926,91.05882799997926,91.05882799997926,91.05882799997926,91.05882799997926,91.05882799997926,91.05882799997926,3,1,[0.0007310999790206552],[0.3338178999838419],91.05882799997926,91.2591601999593,1000,91.2591601999593,1000,1000,1000,1000,1,num_2,0.5002356999902986,,26,8,2026-03-05_10h55.17.495,2026A_exp2,2022.2.4,59.885188107598424,
1000,1,0.0,0.0,0,0,16,16,47,,,,,91.77631579997251,92.4268621999654,92.4268621999654,92.9113825999666,45,45,92.9113825999666,92.9113825999666,92.9113825999666,92.9113825999666,92.9113825999666,92.9113825999666,92.9113825999666,92.9113825999666,92.9113825999666,93.2778241999913,93.2778241999913,93.2778241999913,93.2778241999913,93.2778241999913,93.2778241999913,93.2778241999913,93.2778241999913,93.2778241999913,23,0,,,93.2778241999913,93.47811649995856,1000,93.47811649995856,1000,1000,1000,1000,1,num_2,0.5447623000363819,,26,8,2026-03-05_10h55.17.495,2026A_exp2,2022.2.4,59.885188107598424,
1000,1,6.1,3.7,0,0,17,17,61,,,,,94.04587619996164,94.69654420000734,94.69654420000734,95.1806087999721,45,45,95.1806087999721,95.1806087999721,95.1806087999721,95.1806087999721,95.1806087999721,95.1806087999721,95.1806087999721,95.1806087999721,95.1806087999721,95.56330249999883,95.56330249999883,95.56330249999883,95.56330249999883,95.56330249999883,95.56330249999883,95.56330249999883,95.56330249999883,95.56330249999883,24,0,,,95.56330249999883,95.76362849998986,1000,95.76362849998986,1000,1000,1000,1000,0,num_3,0.40363519999664277,,26,8,2026-03-05_10h55.17.495,2026A_exp2,2022.2.4,59.885188107598424,
1000,1,3.7,0.0,1,0,18,18,33,,,,,96.19747399998596,96.8482124999864,96.8482124999864,97.33254879998276,45,315,97.33254879998276,97.33254879998276,97.33254879998276,97.33254879998276,97.33254879998276,97.33254879998276,97.33254879998276,97.33254879998276,97.33254879998276,97.69906999997329,97.69906999997329,97.69906999997329,97.69906999997329,97.69906999997329,97.69906999997329,97.69906999997329,97.69906999997329,97.69906999997329,23,0,,,97.69906999997329,97.89918279997073,1000,97.89918279997073,1000,1000,1000,1000,0,num_3,0.44387659995118156,,26,8,2026-03-05_10h55.17.495,2026A_exp2,2022.2.4,59.885188107598424,
0,0,0.0,0.0,0,0,19,19,4,,,,,98.36649059999036,99.01722579996567,99.01722579996567,99.50150690000737,45,315,99.50150690000737,99.50150690000737,99.50150690000737,99.50150690000737,99.50150690000737,99.50150690000737,99.50150690000737,99.50150690000737,99.50150690000737,99.8680594000034,99.8680594000034,99.8680594000034,99.8680594000034,99.8680594000034,99.8680594000034,99.8680594000034,99.8680594000034,99.8680594000034,23,0,,,99.8680594000034,100.0699231000035,0.0,100.0699231000035,1,0.0,0,0,1000,num_4,0.8651874999632128,,26,8,2026-03-05_10h55.17.495,2026A_exp2,2022.2.4,59.885188107598424,
1,0,0.0,3.7,1,0,20,20,10,,,,,100.9523596999934,101.60293389996514,101.60293389996514,102.08736449998105,45,45,102.08736449998105,102.08736449998105,102.08736449998105,102.08736449998105,102.08736449998105,102.08736449998105,102.08736449998105,102.08736449998105,102.08736449998105,102.45407659997,102.45407659997,102.45407659997,102.45407659997,102.45407659997,102.45407659997,102.45407659997,102.45407659997,102.45407659997,23,0,,,102.45407659997,102.65412520000245,3.7,102.65412520000245,1,3.7,1,1,1000,num_4,0.9774505000095814,,26,8,2026-03-05_10h55.17.495,2026A_exp2,2022.2.4,59.885188107598424,
1000,1,0.0,0.0,0,0,21,21,5,,,,,103.65537970000878,104.3056946999859,104.3056946999859,104.79019669996342,315,45,104.79019669996342,104.79019669996342,104.79019669996342,104.79019669996342,104.79019669996342,104.79019669996342,104.79019669996342,104.79019669996342,104.79019669996342,105.15672859997721,105.15672859997721,105.15672859997721,105.15672859997721,105.15672859997721,105.15672859997721,105.15672859997721,105.15672859997721,105.15672859997721,23,0,,,105.15672859997721,105.35843619995285,1000,105.35843619995285,1000,1000,1000,1000,0,num_3,0.39352829998824745,,26,8,2026-03-05_10h55.17.495,2026A_exp2,2022.2.4,59.885188107598424,
1000,1,6.1,4.9,1,0,22,22,76,,,,,105.77371399995172,106.42458069999702,106.42458069999702,106.92558340000687,45,315,106.92558340000687,106.92558340000687,106.92558340000687,106.92558340000687,106.92558340000687,106.92558340000687,106.92558340000687,106.92558340000687,106.92558340000687,107.29189509997377,107.29189509997377,107.29189509997377,107.29189509997377,107.29189509997377,107.29189509997377,107.29189509997377,107.29189509997377,107.29189509997377,23,0,,,107.29189509997377,107.49251509999158,1000,107.49251509999158,1000,1000,1000,1000,0,num_3,0.4835216000210494,,26,8,2026-03-05_10h55.17.495,2026A_exp2,2022.2.4,59.885188107598424,
1000,1,6.1,3.7,1,0,23,23,45,,,,,107.99268119997578,108.64376869995613,108.64376869995613,109.14446260000113,315,315,109.14446260000113,109.14446260000113,109.14446260000113,109.14446260000113,109.14446260000113,109.14446260000113,109.14446260000113,109.14446260000113,109.14446260000113,109.51082849997329,109.51082849997329,109.51082849997329,109.51082849997329,109.51082849997329,109.51082849997329,109.51082849997329,109.51082849997329,109.51082849997329,23,0,,,109.51082849997329,109.71297689998755,1000,109.71297689998755,1000,1000,1000,1000,0,num_3,0.36620039999252185,,26,8,2026-03-05_10h55.17.495,2026A_exp2,2022.2.4,59.885188107598424,
1,0,0.0,0.0,1,0,24,24,53,,,,,110.09471899998607,110.74553219997324,110.74553219997324,111.24657869996736,45,315,111.24657869996736,111.24657869996736,111.24657869996736,111.24657869996736,111.24657869996736,111.24657869996736,111.24657869996736,111.24657869996736,111.24657869996736,111.61301879998064,111.61301879998064,111.61301879998064,111.61301879998064,111.61301879998064,111.61301879998064,111.61301879998064,111.61301879998064,111.61301879998064,23,0,,,111.61301879998064,111.81291889998829,0.0,111.81291889998829,1,0.0,0,0,1000,num_4,1.2754886000184342,,26,8,2026-03-05_10h55.17.495,2026A_exp2,2022.2.4,59.885188107598424,
1000,1,6.1,0.0,0,0,25,25,58,,,,,113.11440039996523,113.76518639997812,113.76518639997812,114.24950909998734,315,45,114.24950909998734,114.24950909998734,114.24950909998734,114.24950909998734,114.24950909998734,114.24950909998734,114.24950909998734,114.24950909998734,114.24950909998734,114.61610619997373,114.61610619997373,114.61610619997373,114.61610619997373,114.61610619997373,114.61610619997373,114.61610619997373,114.61610619997373,114.61610619997373,0,1,[0.0012231000000610948],[0.3671580000082031],114.61610619997373,114.81773099995917,1000,114.81773099995917,1000,1000,1000,1000,0,num_3,0.42990519996965304,,26,8,2026-03-05_10h55.17.495,2026A_exp2,2022.2.4,59.885188107598424,
1,0,6.1,6.1,0,0,26,26,11,,,,,115.26666480000131,115.91725949995453,115.91725949995453,116.40180369996233,315,45,116.40180369996233,116.40180369996233,116.40180369996233,116.40180369996233,116.40180369996233,116.40180369996233,116.40180369996233,116.40180369996233,116.40180369996233,116.76802309998311,116.76802309998311,116.76802309998311,116.76802309998311,116.76802309998311,116.76802309998311,116.76802309998311,116.76802309998311,116.76802309998311,0,1,[0.0012075999984517694],[0.36705069994786754],116.76802309998311,116.96855319995666,6.1,116.98506849998375,1,6.1,1,1,1000,num_4,1.3658139000181109,,26,8,2026-03-05_10h55.17.495,2026A_exp2,2022.2.4,59.885188107598424,
1,0,6.1,0.0,0,0,27,27,24,,,,,118.36959169997135,119.02032019995386,119.02032019995386,119.52145969995763,45,45,119.52145969995763,119.52145969995763,119.52145969995763,119.52145969995763,119.52145969995763,119.52145969995763,119.52145969995763,119.52145969995763,119.52145969995763,119.8712155999965,119.8712155999965,119.8712155999965,119.8712155999965,119.8712155999965,119.8712155999965,119.8712155999965,119.8712155999965,119.8712155999965,2,2,"[0.0012181999627500772, 0.3335463999537751]","[0.3170647999504581, 0.35041169996839017]",119.8712155999965,120.0714376999531,6.1,120.0714376999531,1,6.1,1,1,1000,num_4,0.5449656000128016,,26,8,2026-03-05_10h55.17.495,2026A_exp2,2022.2.4,59.885188107598424,
1,0,0.0,0.0,0,0,28,28,29,,,,,120.63856679998571,121.28935209999327,121.28935209999327,121.79040719999466,45,45,121.79040719999466,121.79040719999466,121.79040719999466,121.79040719999466,121.79040719999466,121.79040719999466,121.79040719999466,121.79040719999466,121.79040719999466,122.14022269996349,122.14022269996349,122.14022269996349,122.14022269996349,122.14022269996349,122.14022269996349,122.14022269996349,122.14022269996349,122.14022269996349,0,1,[0.0012624000082723796],[0.35041690000798553],122.14022269996349,122.34037769999122,0.0,122.35709479998332,1,0.0,0,0,1000,num_4,0.7066094999900088,,26,8,2026-03-05_10h55.17.495,2026A_exp2,2022.2.4,59.885188107598424,
1000,1,4.9,4.9,1,0,29,29,26,,,,,123.09112040000036,123.74172479996923,123.74172479996923,124.22622499999125,45,315,124.22622499999125,124.22622499999125,124.22622499999125,124.22622499999125,124.22622499999125,124.22622499999125,124.22622499999125,124.22622499999125,124.22622499999125,124.59269769996172,124.59269769996172,124.59269769996172,124.59269769996172,124.59269769996172,124.59269769996172,124.59269769996172,124.59269769996172,124.59269769996172,1,2,"[0.0012422999716363847, 0.16702920000534505]","[0.15025220002280548, 0.36720679997233674]",124.59269769996172,124.7930041999789,1000,124.7930041999789,1000,1000,1000,1000,1,num_2,0.5503694000071846,,26,8,2026-03-05_10h55.17.495,2026A_exp2,2022.2.4,59.885188107598424,
1,0,6.1,0.0,1,0,30,30,54,,,,,125.3601697999984,126.01074469997548,126.01074469997548,126.51179600000614,315,315,126.51179600000614,126.51179600000614,126.51179600000614,126.51179600000614,126.51179600000614,126.51179600000614,126.51179600000614,126.51179600000614,126.51179600000614,126.87834579998162,126.87834579998162,126.87834579998162,126.87834579998162,126.87834579998162,126.87834579998162,126.87834579998162,126.87834579998162,126.87834579998162,3,4,"[0.0012381999986246228, 0.067017900000792, 0.1002728000166826, 0.1838564000208862]","[0.050243600038811564, 0.08354750002035871, 0.1670107000390999, 0.367373300017789]",126.87834579998162,127.07847979996586,0.0,127.07847979996586,0,0.0,0,1,1000,num_1,0.8102117999806069,,26,8,2026-03-05_10h55.17.495,2026A_exp2,2022.2.4,59.885188107598424,
1000,1,6.1,0.0,0,0,31,31,8,,,,,127.91285199997947,128.5712222000002,128.5712222000002,129.0643027999904,315,315,129.0643027999904,129.0643027999904,129.0643027999904,129.0643027999904,129.0643027999904,129.0643027999904,129.0643027999904,129.0643027999904,129.0643027999904,129.43047329998808,129.43047329998808,129.43047329998808,129.43047329998808,129.43047329998808,129.43047329998808,129.43047329998808,129.43047329998808,129.43047329998808,23,0,,,129.43047329998808,129.6330926999799,1000,129.6330926999799,1000,1000,1000,1000,0,num_3,0.6302413000375964,,26,8,2026-03-05_10h55.17.495,2026A_exp2,2022.2.4,59.885188107598424,
1000,1,6.1,0.0,1,0,32,32,52,,,,,130.2815231999848,130.9323507999652,130.9323507999652,131.43378119997215,315,315,131.43378119997215,131.43378119997215,131.43378119997215,131.43378119997215,131.43378119997215,131.43378119997215,131.43378119997215,131.43378119997215,131.43378119997215,131.79970999999205,131.79970999999205,131.79970999999205,131.79970999999205,131.79970999999205,131.79970999999205,131.79970999999205,131.79970999999205,131.79970999999205,23,0,,,131.79970999999205,132.00166549999267,1000,132.00166549999267,1000,1000,1000,1000,0,num_3,0.3906305999844335,,26,8,2026-03-05_10h55.17.495,2026A_exp2,2022.2.4,59.885188107598424,
1000,1,6.1,0.0,1,0,33,33,79,,,,,132.41710059996694,133.0679611999658,133.0679611999658,133.56893519998994,315,315,133.56893519998994,133.56893519998994,133.56893519998994,133.56893519998994,133.56893519998994,133.56893519998994,133.56893519998994,133.56893519998994,133.56893519998994,133.93541509995703,133.93541509995703,133.93541509995703,133.93541509995703,133.93541509995703,133.93541509995703,133.93541509995703,133.93541509995703,133.93541509995703,0,1,[0.0013134999899193645],[0.36716709996107966],133.93541509995703,134.13726789999055,1000,134.13726789999055,1000,1000,1000,1000,0,num_3,0.34977709996746853,,26,8,2026-03-05_10h55.17.495,2026A_exp2,2022.2.4,59.885188107598424,
1,0,6.1,0.0,1,0,34,34,38,,,,,134.5025020999601,135.15325380000286,135.15325380000286,135.65440279996255,45,315,135.65440279996255,135.65440279996255,135.65440279996255,135.65440279996255,135.65440279996255,135.65440279996255,135.65440279996255,135.65440279996255,135.65440279996255,136.02081600000383,136.02081600000383,136.02081600000383,136.02081600000383,136.02081600000383,136.02081600000383,136.02081600000383,136.02081600000383,136.02081600000383,0,1,[0.00120310002239421],[0.36709670000709593],136.02081600000383,136.2209395999671,0.0,136.2209395999671,0,0.0,0,1,1000,num_1,0.6668707000208087,,26,8,2026-03-05_10h55.17.495,2026A_exp2,2022.2.4,59.885188107598424,
1000,1,0.0,6.1,0,0,35,35,83,,,,,136.90485559997614,137.55551089998335,137.55551089998335,138.05679139995482,315,315,138.05679139995482,138.05679139995482,138.05679139995482,138.05679139995482,138.05679139995482,138.05679139995482,138.05679139995482,138.05679139995482,138.05679139995482,138.4065055999672,138.4065055999672,138.4065055999672,138.4065055999672,138.4065055999672,138.4065055999672,138.4065055999672,138.4065055999672,138.4065055999672,0,1,[0.0012310000020079315],[0.35050380002940074],138.4065055999672,138.60829830000876,1000,138.60829830000876,1000,1000,1000,1000,1,num_2,0.4559859000146389,,26,8,2026-03-05_10h55.17.495,2026A_exp2,2022.2.4,59.885188107598424,
0,0,0.0,0.0,0,0,36,36,67,,,,,139.0904198999633,139.74116569996113,139.74116569996113,140.24216719996184,45,315,140.24216719996184,140.24216719996184,140.24216719996184,140.24216719996184,140.24216719996184,140.24216719996184,140.24216719996184,140.24216719996184,140.24216719996184,140.60862529999577,140.60862529999577,140.60862529999577,140.60862529999577,140.60862529999577,140.60862529999577,140.60862529999577,140.60862529999577,140.60862529999577,1,2,"[0.001201000006403774, 0.06699029996525496]","[0.050311499973759055, 0.36722249997546896]",140.60862529999577,140.80876949999947,0.0,140.80876949999947,1,0.0,0,0,1000,num_4,1.5038313000113703,,26,8,2026-03-05_10h55.17.495,2026A_exp2,2022.2.4,59.885188107598424,
1000,1,6.1,6.1,0,0,37,37,50,,,,,142.34394109999994,142.99441599997226,142.99441599997226,143.47890619997634,315,315,143.47890619997634,143.47890619997634,143.47890619997634,143.47890619997634,143.47890619997634,143.47890619997634,143.47890619997634,143.47890619997634,143.47890619997634,143.84502389997942,143.84502389997942,143.84502389997942,143.84502389997942,143.84502389997942,143.84502389997942,143.84502389997942,143.84502389997942,143.84502389997942,23,0,,,143.84502389997942,144.04738949995954,1000,144.04738949995954,1000,1000,1000,1000,1,num_2,0.6158371000201441,,26,8,2026-03-05_10h55.17.495,2026A_exp2,2022.2.4,59.885188107598424,
1000,1,0.0,0.0,1,0,38,38,70,,,,,144.67936439998448,145.33000329998322,145.33000329998322,145.83118179999292,45,315,145.83118179999292,145.83118179999292,145.83118179999292,145.83118179999292,145.83118179999292,145.83118179999292,145.83118179999292,145.83118179999292,145.83118179999292,146.1976929999655,146.1976929999655,146.1976929999655,146.1976929999655,146.1976929999655,146.1976929999655,146.1976929999655,146.1976929999655,146.1976929999655,23,0,,,146.1976929999655,146.399226599955,1000,146.399226599955,1000,1000,1000,1000,1,num_2,0.7604804000002332,,26,8,2026-03-05_10h55.17.495,2026A_exp2,2022.2.4,59.885188107598424,
1000,1,3.7,0.0,0,0,39,39,37,,,,,147.18184949998977,147.832473699993,147.832473699993,148.3337835999555,45,45,148.3337835999555,148.3337835999555,148.3337835999555,148.3337835999555,148.3337835999555,148.3337835999555,148.3337835999555,148.3337835999555,148.3337835999555,148.70011659996817,148.70011659996817,148.70011659996817,148.70011659996817,148.70011659996817,148.70011659996817,148.70011659996817,148.70011659996817,148.70011659996817,23,0,,,148.70011659996817,148.90173639997374,1000,148.90173639997374,1000,1000,1000,1000,0,num_3,0.4177330000093207,,26,8,2026-03-05_10h55.17.495,2026A_exp2,2022.2.4,59.885188107598424,
1,0,0.0,4.9,1,0,40,40,65,,,,,149.3508100999752,150.00134799996158,150.00134799996158,150.50260859995615,315,315,150.50260859995615,150.50260859995615,150.50260859995615,150.50260859995615,150.50260859995615,150.50260859995615,150.50260859995615,150.50260859995615,150.50260859995615,150.86897989996942,150.86897989996942,150.86897989996942,150.86897989996942,150.86897989996942,150.86897989996942,150.86897989996942,150.86897989996942,150.86897989996942,16,3,"[0.00135420000879094, 0.06695850001415238, 0.2169636000180617]","[0.017437300004530698, 0.08365509996656328, 0.3004912000033073]",150.86897989996942,151.06910999998217,4.9,151.06910999998217,1,4.9,1,1,1000,num_4,0.6344467999879271,,26,8,2026-03-05_10h55.17.495,2026A_exp2,2022.2.4,59.885188107598424,
1,0,0.0,0.0,0,0,41,41,49,,,,,151.71978769998532,152.37041549995774,152.37041549995774,152.8716191999847,45,45,152.8716191999847,152.8716191999847,152.8716191999847,152.8716191999847,152.8716191999847,152.8716191999847,152.8716191999847,152.8716191999847,152.8716191999847,153.2380453000078,153.2380453000078,153.2380453000078,153.2380453000078,153.2380453000078,153.2380453000078,153.2380453000078,153.2380453000078,153.2380453000078,0,1,[0.0010850999969989061],[0.3672941999975592],153.2380453000078,153.43823829997564,0.0,153.43823829997564,1,0.0,0,0,1000,num_4,1.4808685999596491,,26,8,2026-03-05_10h55.17.495,2026A_exp2,2022.2.4,59.885188107598424,
1,0,0.0,3.7,0,0,42,42,22,,,,,154.9395617999835,155.59033499995712,155.59033499995712,156.0747235000017,315,45,156.0747235000017,156.0747235000017,156.0747235000017,156.0747235000017,156.0747235000017,156.0747235000017,156.0747235000017,156.0747235000017,156.0747235000017,156.44119059998775,156.44119059998775,156.44119059998775,156.44119059998775,156.44119059998775,156.44119059998775,156.44119059998775,156.44119059998775,156.44119059998775,0,1,[0.0012353999773040414],[0.36720470001455396],156.44119059998775,156.64130009996006,0.0,156.64130009996006,0,0.0,0,1,1000,num_1,0.8300909000099637,,26,8,2026-03-05_10h55.17.495,2026A_exp2,2022.2.4,59.885188107598424,
1000,1,4.9,4.9,1,0,43,43,60,,,,,157.49203969998052,158.14294349995907,158.14294349995907,158.64404320000904,315,315,158.64404320000904,158.64404320000904,158.64404320000904,158.64404320000904,158.64404320000904,158.64404320000904,158.64404320000904,158.64404320000904,158.64404320000904,158.99372799997218,158.99372799997218,158.99372799997218,158.99372799997218,158.99372799997218,158.99372799997218,158.99372799997218,158.99372799997218,158.99372799997218,0,1,[0.001290599990170449],[0.35040290001779795],158.99372799997218,159.19594389997656,1000,159.19594389997656,1000,1000,1000,1000,1,num_2,0.6838029000209644,,26,8,2026-03-05_10h55.17.495,2026A_exp2,2022.2.4,59.885188107598424,
1,0,3.7,6.1,1,0,44,44,6,,,,,159.91142630000832,160.5620265000034,160.5620265000034,161.06308739999076,45,315,161.06308739999076,161.06308739999076,161.06308739999076,161.06308739999076,161.06308739999076,161.06308739999076,161.06308739999076,161.06308739999076,161.06308739999076,161.42948429996613,161.42948429996613,161.42948429996613,161.42948429996613,161.42948429996613,161.42948429996613,161.42948429996613,161.42948429996613,161.42948429996613,23,0,,,161.42948429996613,161.62958369997796,6.1,161.62958369997796,1,6.1,1,1,1000,num_4,0.7135227000107989,,26,8,2026-03-05_10h55.17.495,2026A_exp2,2022.2.4,59.885188107598424,
1000,1,0.0,4.9,1,0,45,45,73,,,,,162.36360679997597,163.0144904999761,163.0144904999761,163.5155786999967,315,45,163.5155786999967,163.5155786999967,163.5155786999967,163.5155786999967,163.5155786999967,163.5155786999967,163.5155786999967,163.5155786999967,163.5155786999967,163.86523499997566,163.86523499997566,163.86523499997566,163.86523499997566,163.86523499997566,163.86523499997566,163.86523499997566,163.86523499997566,163.86523499997566,22,0,,,163.86523499997566,164.0656103999936,1000,164.0656103999936,1000,1000,1000,1000,1,num_2,0.6374172999639995,,26,8,2026-03-05_10h55.17.495,2026A_exp2,2022.2.4,59.885188107598424,
1000,1,0.0,0.0,0,0,46,46,41,,,,,164.73275649995776,165.38342109997757,165.38342109997757,165.884578600002,315,315,165.884578600002,165.884578600002,165.884578600002,165.884578600002,165.884578600002,165.884578600002,165.884578600002,165.884578600002,165.884578600002,166.25112639996223,166.25112639996223,166.25112639996223,166.25112639996223,166.25112639996223,166.25112639996223,166.25112639996223,166.25112639996223,166.25112639996223,23,0,,,166.25112639996223,166.45299520000117,1000,166.45299520000117,1000,1000,1000,1000,0,num_3,1.8185598999843933,,26,8,2026-03-05_10h55.17.495,2026A_exp2,2022.2.4,59.885188107598424,
1000,1,3.7,4.9,0,0,47,47,13,,,,,168.3030987000093,168.95377249998273,168.95377249998273,169.4548255999689,315,315,169.4548255999689,169.4548255999689,169.4548255999689,169.4548255999689,169.4548255999689,169.4548255999689,169.4548255999689,169.4548255999689,169.4548255999689,169.8211421999731,169.8211421999731,169.8211421999731,169.8211421999731,169.8211421999731,169.8211421999731,169.8211421999731,169.8211421999731,169.8211421999731,23,0,,,169.8211421999731,170.02311750000808,1000,170.02311750000808,1000,1000,1000,1000,1,num_2,1.0173333999700844,,26,8,2026-03-05_10h55.17.495,2026A_exp2,2022.2.4,59.885188107598424,
1,0,4.9,0.0,1,0,48,48,15,,,,,171.0593133000075,171.70649009995395,171.70649009995395,172.2075305999606,45,315,172.2075305999606,172.2075305999606,172.2075305999606,172.2075305999606,172.2075305999606,172.2075305999606,172.2075305999606,172.2075305999606,172.2075305999606,172.5739917999599,172.5739917999599,172.5739917999599,172.5739917999599,172.5739917999599,172.5739917999599,172.5739917999599,172.5739917999599,172.5739917999599,23,0,,,172.5739917999599,172.77415809995728,0.0,172.77415809995728,0,0.0,0,1,1000,num_1,0.6089326000073925,,26,8,2026-03-05_10h55.17.495,2026A_exp2,2022.2.4,59.885188107598424,
1,0,0.0,0.0,0,0,49,49,66,,,,,173.4080421999679,174.05874389997916,174.05874389997916,174.54317839996656,45,45,174.54317839996656,174.54317839996656,174.54317839996656,174.54317839996656,174.54317839996656,174.54317839996656,174.54317839996656,174.54317839996656,174.54317839996656,174.90937079995638,174.90937079995638,174.90937079995638,174.90937079995638,174.90937079995638,174.90937079995638,174.90937079995638,174.90937079995638,174.90937079995638,23,0,,,174.90937079995638,175.1098032000009,0.0,175.1098032000009,1,0.0,0,0,1000,num_4,1.361778000020422,,26,8,2026-03-05_10h55.17.495,2026A_exp2,2022.2.4,59.885188107598424,
1,0,3.7,6.1,0,0,50,50,55,,,,,176.4943690999644,177.1546440999955,177.1546440999955,177.6345518999733,315,45,177.6345518999733,177.6345518999733,177.6345518999733,177.6345518999733,177.6345518999733,177.6345518999733,177.6345518999733,177.6345518999733,177.6345518999733,177.9964389000088,177.9964389000088,177.9964389000088,177.9964389000088,177.9964389000088,177.9964389000088,177.9964389000088,177.9964389000088,177.9964389000088,23,0,,,177.9964389000088,178.1962340999744,3.7,178.1962340999744,0,3.7,1,0,1000,num_1,1.1477219999651425,,26,8,2026-03-05_10h55.17.495,2026A_exp2,2022.2.4,59.885188107598424,
1000,1,3.7,3.7,1,0,51,51,46,,,,,179.36388179997448,180.01479589997325,180.01479589997325,180.51576270000078,45,45,180.51576270000078,180.51576270000078,180.51576270000078,180.51576270000078,180.51576270000078,180.51576270000078,180.51576270000078,180.51576270000078,180.51576270000078,180.88222059997497,180.88222059997497,180.88222059997497,180.88222059997497,180.88222059997497,180.88222059997497,180.88222059997497,180.88222059997497,180.88222059997497,20,1,[0.05038510001031682],[0.1003962000249885],180.88222059997497,181.08445299998857,1000,181.08445299998857,1000,1000,1000,1000,1,num_2,0.4346924999845214,,26,8,2026-03-05_10h55.17.495,2026A_exp2,2022.2.4,59.885188107598424,
1000,1,6.1,4.9,0,0,52,52,77,,,,,181.5496973999543,182.20035949995508,182.20035949995508,182.7014826000086,45,315,182.7014826000086,182.7014826000086,182.7014826000086,182.7014826000086,182.7014826000086,182.7014826000086,182.7014826000086,182.7014826000086,182.7014826000086,183.06779319996713,183.06779319996713,183.06779319996713,183.06779319996713,183.06779319996713,183.06779319996713,183.06779319996713,183.06779319996713,183.06779319996713,23,0,,,183.06779319996713,183.26821379998,1000,183.26821379998,1000,1000,1000,1000,0,num_3,0.5235080000129528,,26,8,2026-03-05_10h55.17.495,2026A_exp2,2022.2.4,59.885188107598424,
1,0,0.0,4.9,1,0,53,53,36,,,,,183.8184265999589,184.46929320000345,184.46929320000345,184.97038729995256,315,315,184.97038729995256,184.97038729995256,184.97038729995256,184.97038729995256,184.97038729995256,184.97038729995256,184.97038729995256,184.97038729995256,184.97038729995256,185.3367925999919,185.3367925999919,185.3367925999919,185.3367925999919,185.3367925999919,185.3367925999919,185.3367925999919,185.3367925999919,185.3367925999919,23,0,,,185.3367925999919,185.53690609999467,4.9,185.53690609999467,1,4.9,1,1,1000,num_4,0.6792436999967322,,26,8,2026-03-05_10h55.17.495,2026A_exp2,2022.2.4,59.885188107598424,
1,0,0.0,0.0,0,0,54,54,19,,,,,186.2374980999739,186.88836799998535,186.88836799998535,187.38946569996187,315,315,187.38946569996187,187.38946569996187,187.38946569996187,187.38946569996187,187.38946569996187,187.38946569996187,187.38946569996187,187.38946569996187,187.38946569996187,187.73920859995997,187.73920859995997,187.73920859995997,187.73920859995997,187.73920859995997,187.73920859995997,187.73920859995997,187.73920859995997,187.73920859995997,14,1,[0.0012017000117339194],[0.11699980002595112],187.73920859995997,187.93922529998235,0.0,187.93922529998235,1,0.0,0,0,1000,num_4,1.7647980999900028,,26,8,2026-03-05_10h55.17.495,2026A_exp2,2022.2.4,59.885188107598424,
0,0,3.7,6.1,1,0,55,55,17,,,,,189.724327599979,190.37517139996635,190.37517139996635,190.85947169997962,45,45,190.85947169997962,190.85947169997962,190.85947169997962,190.85947169997962,190.85947169997962,190.85947169997962,190.85947169997962,190.85947169997962,190.85947169997962,191.22582739999052,191.22582739999052,191.22582739999052,191.22582739999052,191.22582739999052,191.22582739999052,191.22582739999052,191.22582739999052,191.22582739999052,15,1,[0.0012240000069141388],[0.13366529997438192],191.22582739999052,191.4260498000076,3.7,191.4260498000076,0,3.7,1,0,1000,num_1,0.8851818999974057,,26,8,2026-03-05_10h55.17.495,2026A_exp2,2022.2.4,59.885188107598424,
1000,1,3.7,0.0,1,0,56,56,44,,,,,192.32696430000942,192.9776902999729,192.9776902999729,193.47898670000723,315,45,193.47898670000723,193.47898670000723,193.47898670000723,193.47898670000723,193.47898670000723,193.47898670000723,193.47898670000723,193.47898670000723,193.47898670000723,193.82846499996958,193.82846499996958,193.82846499996958,193.82846499996958,193.82846499996958,193.82846499996958,193.82846499996958,193.82846499996958,193.82846499996958,22,0,,,193.82846499996958,194.03052159998333,1000,194.04550159996143,1000,1000,1000,1000,0,num_3,0.5138628000277095,,26,8,2026-03-05_10h55.17.495,2026A_exp2,2022.2.4,59.885188107598424,
1,0,0.0,3.7,1,0,57,57,25,,,,,194.57907079998404,195.2299763999763,195.2299763999763,195.73107529996196,315,45,195.73107529996196,195.73107529996196,195.73107529996196,195.73107529996196,195.73107529996196,195.73107529996196,195.73107529996196,195.73107529996196,195.73107529996196,196.09761860000435,196.09761860000435,196.09761860000435,196.09761860000435,196.09761860000435,196.09761860000435,196.09761860000435,196.09761860000435,196.09761860000435,23,0,,,196.09761860000435,196.29779519996373,3.7,196.29779519996373,1,3.7,1,1,1000,num_4,0.6786426000180654,,26,8,2026-03-05_10h55.17.495,2026A_exp2,2022.2.4,59.885188107598424,
1000,1,6.1,0.0,0,0,58,58,80,,,,,196.99830179999117,197.6491495000082,197.6491495000082,198.13319339998998,315,45,198.13319339998998,198.13319339998998,198.13319339998998,198.13319339998998,198.13319339998998,198.13319339998998,198.13319339998998,198.13319339998998,198.13319339998998,198.49987780000083,198.49987780000083,198.49987780000083,198.49987780000083,198.49987780000083,198.49987780000083,198.49987780000083,198.49987780000083,198.49987780000083,23,0,,,198.49987780000083,198.70264410000527,1000,198.70264410000527,1000,1000,1000,1000,0,num_3,0.5924562999862246,,26,8,2026-03-05_10h55.17.495,2026A_exp2,2022.2.4,59.885188107598424,
1,0,0.0,0.0,0,0,59,59,0,,,,,199.31729899998754,199.96801799995592,199.96801799995592,200.46919119998347,315,45,200.46919119998347,200.46919119998347,200.46919119998347,200.46919119998347,200.46919119998347,200.46919119998347,200.46919119998347,200.46919119998347,200.46919119998347,200.83551249996526,200.83551249996526,200.83551249996526,200.83551249996526,200.83551249996526,200.83551249996526,200.83551249996526,200.83551249996526,200.83551249996526,23,0,,,200.83551249996526,201.03567459998885,0.0,201.03567459998885,1,0.0,0,0,1000,num_4,1.7075375999556854,,26,8,2026-03-05_10h55.17.495,2026A_exp2,2022.2.4,59.885188107598424,
1000,1,3.7,3.7,0,0,60,60,16,,,,,202.77069819997996,203.42157629999565,203.42157629999565,203.90601569996215,315,315,203.90601569996215,203.90601569996215,203.90601569996215,203.90601569996215,203.90601569996215,203.90601569996215,203.90601569996215,203.90601569996215,203.90601569996215,204.27242860000115,204.27242860000115,204.27242860000115,204.27242860000115,204.27242860000115,204.27242860000115,204.27242860000115,204.27242860000115,204.27242860000115,23,0,,,204.27242860000115,204.47413289995166,1000,204.48923989996547,1000,1000,1000,1000,0,num_3,0.7184336999780498,,26,8,2026-03-05_10h55.17.495,2026A_exp2,2022.2.4,59.885188107598424,
1,0,6.1,6.1,1,0,61,61,89,,,,,205.22346849995665,205.87405270000454,205.87405270000454,206.37501640000846,315,45,206.37501640000846,206.37501640000846,206.37501640000846,206.37501640000846,206.37501640000846,206.37501640000846,206.37501640000846,206.37501640000846,206.37501640000846,206.74141620000592,206.74141620000592,206.74141620000592,206.74141620000592,206.74141620000592,206.74141620000592,206.74141620000592,206.74141620000592,206.74141620000592,23,0,,,206.74141620000592,206.94172719999915,6.1,206.94172719999915,1,6.1,1,1,1000,num_4,0.7619851000490598,,26,8,2026-03-05_10h55.17.495,2026A_exp2,2022.2.4,59.885188107598424,
1,0,6.1,3.7,0,0,62,62,86,,,,,207.72565479995683,208.3840455999598,208.3840455999598,208.87760929996148,315,315,208.87760929996148,208.87760929996148,208.87760929996148,208.87760929996148,208.87760929996148,208.87760929996148,208.87760929996148,208.87760929996148,208.87760929996148,209.22747260000324,209.22747260000324,209.22747260000324,209.22747260000324,209.22747260000324,209.22747260000324,209.22747260000324,209.22747260000324,209.22747260000324,22,0,,,209.22747260000324,209.42926689999877,6.1,209.42926689999877,1,6.1,1,1,1000,num_4,0.8346494000288658,,26,8,2026-03-05_10h55.17.495,2026A_exp2,2022.2.4,59.885188107598424,
1,0,0.0,3.7,0,0,63,63,1,,,,,210.2950527999783,210.94561920000706,210.94561920000706,211.43016349995742,315,45,211.43016349995742,211.43016349995742,211.43016349995742,211.43016349995742,211.43016349995742,211.43016349995742,211.43016349995742,211.43016349995742,211.43016349995742,211.79659149999497,211.79659149999497,211.79659149999497,211.79659149999497,211.79659149999497,211.79659149999497,211.79659149999497,211.79659149999497,211.79659149999497,23,0,,,211.79659149999497,211.99669699999504,0.0,211.99669699999504,0,0.0,0,1,1000,num_1,0.6582042999798432,,26,8,2026-03-05_10h55.17.495,2026A_exp2,2022.2.4,59.885188107598424,
1000,1,4.9,0.0,1,0,64,64,7,,,,,212.6805907000089,213.33145449997392,213.33145449997392,213.81588019995252,315,45,213.81588019995252,213.81588019995252,213.81588019995252,213.81588019995252,213.81588019995252,213.81588019995252,213.81588019995252,213.81588019995252,213.81588019995252,214.18220779998228,214.18220779998228,214.18220779998228,214.18220779998228,214.18220779998228,214.18220779998228,214.18220779998228,214.18220779998228,214.18220779998228,3,2,"[0.03355639998335391, 0.16694229998392984]","[0.15038810000987723, 0.36717320000752807]",214.18220779998228,214.3842465999769,1000,214.3842465999769,1000,1000,1000,1000,0,num_3,0.5908705000183545,,26,8,2026-03-05_10h55.17.495,2026A_exp2,2022.2.4,59.885188107598424,
1000,1,3.7,0.0,1,0,65,65,21,,,,,214.99965620000148,215.65053129999433,215.65053129999433,216.1514329999918,45,315,216.1514329999918,216.1514329999918,216.1514329999918,216.1514329999918,216.1514329999918,216.1514329999918,216.1514329999918,216.1514329999918,216.1514329999918,216.51789459999418,216.51789459999418,216.51789459999418,216.51789459999418,216.51789459999418,216.51789459999418,216.51789459999418,216.51789459999418,216.51789459999418,23,0,,,216.51789459999418,216.7198376999586,1000,216.7198376999586,1000,1000,1000,1000,0,num_3,1.4481281000189483,,26,8,2026-03-05_10h55.17.495,2026A_exp2,2022.2.4,59.885188107598424,
1000,1,0.0,6.1,1,0,66,66,3,,,,,218.1860641000094,218.8368116999627,218.8368116999627,219.33800309995422,315,45,219.33800309995422,219.33800309995422,219.33800309995422,219.33800309995422,219.33800309995422,219.33800309995422,219.33800309995422,219.33800309995422,219.33800309995422,219.7044524999801,219.7044524999801,219.7044524999801,219.7044524999801,219.7044524999801,219.7044524999801,219.7044524999801,219.7044524999801,219.7044524999801,23,0,,,219.7044524999801,219.9067376999883,1000,219.9067376999883,1000,1000,1000,1000,1,num_2,0.5642713999841362,,26,8,2026-03-05_10h55.17.495,2026A_exp2,2022.2.4,59.885188107598424,
1000,1,6.1,0.0,0,0,67,67,68,,,,,220.4885810999549,221.13922469998943,221.13922469998943,221.6403993999702,315,45,221.6403993999702,221.6403993999702,221.6403993999702,221.6403993999702,221.6403993999702,221.6403993999702,221.6403993999702,221.6403993999702,221.6403993999702,222.0067622999777,222.0067622999777,222.0067622999777,222.0067622999777,222.0067622999777,222.0067622999777,222.0067622999777,222.0067622999777,222.0067622999777,23,0,,,222.0067622999777,222.20877309999196,1000,222.20877309999196,1000,1000,1000,1000,0,num_3,0.38233609998133034,,26,8,2026-03-05_10h55.17.495,2026A_exp2,2022.2.4,59.885188107598424,
1000,1,0.0,4.9,0,0,68,68,9,,,,,222.60725379997166,223.25769909995142,223.25769909995142,223.7591627999791,315,45,223.7591627999791,223.7591627999791,223.7591627999791,223.7591627999791,223.7591627999791,223.7591627999791,223.7591627999791,223.7591627999791,223.7591627999791,224.12558100000024,224.12558100000024,224.12558100000024,224.12558100000024,224.12558100000024,224.12558100000024,224.12558100000024,224.12558100000024,224.12558100000024,23,0,,,224.12558100000024,224.32764519995544,1000,224.32764519995544,1000,1000,1000,1000,1,num_2,0.41570680000586435,,26,8,2026-03-05_10h55.17.495,2026A_exp2,2022.2.4,59.885188107598424,
1000,1,0.0,3.7,0,0,69,69,32,,,,,224.7597545000026,225.41021709999768,225.41021709999768,225.89447269996163,45,45,225.89447269996163,225.89447269996163,225.89447269996163,225.89447269996163,225.89447269996163,225.89447269996163,225.89447269996163,225.89447269996163,225.89447269996163,226.26089659996796,226.26089659996796,226.26089659996796,226.26089659996796,226.26089659996796,226.26089659996796,226.26089659996796,226.26089659996796,226.26089659996796,23,0,,,226.26089659996796,226.46310389996506,1000,226.46310389996506,1000,1000,1000,1000,1,num_2,0.5841245999909006,,26,8,2026-03-05_10h55.17.495,2026A_exp2,2022.2.4,59.885188107598424,
1,0,4.9,0.0,0,0,70,70,87,,,,,227.07856979995267,227.72941799997352,227.72941799997352,228.23026089998893,45,315,228.23026089998893,228.23026089998893,228.23026089998893,228.23026089998893,228.23026089998893,228.23026089998893,228.23026089998893,228.23026089998893,228.23026089998893,228.5966691999929,228.5966691999929,228.5966691999929,228.5966691999929,228.5966691999929,228.5966691999929,228.5966691999929,228.5966691999929,228.5966691999929,23,0,,,228.5966691999929,228.79670869995607,4.9,228.79670869995607,1,4.9,1,1,1000,num_4,1.2987013999954797,,26,8,2026-03-05_10h55.17.495,2026A_exp2,2022.2.4,59.885188107598424,
1000,1,0.0,0.0,1,0,71,71,42,,,,,230.11470310000004,230.76552529999753,230.76552529999753,231.26648869999917,315,45,231.26648869999917,231.26648869999917,231.26648869999917,231.26648869999917,231.26648869999917,231.26648869999917,231.26648869999917,231.26648869999917,231.26648869999917,231.61640599998645,231.61640599998645,231.61640599998645,231.61640599998645,231.61640599998645,231.61640599998645,231.61640599998645,231.61640599998645,231.61640599998645,22,0,,,231.61640599998645,231.81822749995627,1000,231.81822749995627,1000,1000,1000,1000,1,num_2,0.7173643000423908,,26,8,2026-03-05_10h55.17.495,2026A_exp2,2022.2.4,59.885188107598424,
1,0,3.7,3.7,1,0,72,72,64,,,,,232.567110999953,233.21785409998847,233.21785409998847,233.7189514999627,45,45,233.7189514999627,233.7189514999627,233.7189514999627,233.7189514999627,233.7189514999627,233.7189514999627,233.7189514999627,233.7189514999627,233.7189514999627,234.06885079998756,234.06885079998756,234.06885079998756,234.06885079998756,234.06885079998756,234.06885079998756,234.06885079998756,234.06885079998756,234.06885079998756,22,0,,,234.06885079998756,234.26905889995396,3.7,234.28569250000874,1,3.7,1,1,1000,num_4,0.7853468999965116,,26,8,2026-03-05_10h55.17.495,2026A_exp2,2022.2.4,59.885188107598424,
1,0,0.0,6.1,0,0,73,73,72,,,,,235.10319259995595,235.75419669999974,235.75419669999974,236.2383228999679,315,315,236.2383228999679,236.2383228999679,236.2383228999679,236.2383228999679,236.2383228999679,236.2383228999679,236.2383228999679,236.2383228999679,236.2383228999679,236.60476739995647,236.60476739995647,236.60476739995647,236.60476739995647,236.60476739995647,236.60476739995647,236.60476739995647,236.60476739995647,236.60476739995647,23,0,,,236.60476739995647,236.8049461999908,0.0,236.8049461999908,0,0.0,0,1,1000,num_1,1.6181167000322603,,26,8,2026-03-05_10h55.17.495,2026A_exp2,2022.2.4,59.885188107598424,
1000,1,4.9,0.0,0,0,74,74,20,,,,,238.43971169996075,239.09316379996017,239.09316379996017,239.59165399998892,315,315,239.59165399998892,239.59165399998892,239.59165399998892,239.59165399998892,239.59165399998892,239.59165399998892,239.59165399998892,239.59165399998892,239.59165399998892,239.94126789999427,239.94126789999427,239.94126789999427,239.94126789999427,239.94126789999427,239.94126789999427,239.94126789999427,239.94126789999427,239.94126789999427,1,1,[0.0012018000124953687],[0.35066330002155155],239.94126789999427,240.14321809995454,1000,240.15830079995794,1000,1000,1000,1000,0,num_3,0.4414755000034347,,26,8,2026-03-05_10h55.17.495,2026A_exp2,2022.2.4,59.885188107598424,
1000,1,4.9,3.7,1,0,75,75,14,,,,,240.62521609995747,241.27595199999632,241.27595199999632,241.77703279996058,45,315,241.77703279996058,241.77703279996058,241.77703279996058,241.77703279996058,241.77703279996058,241.77703279996058,241.77703279996058,241.77703279996058,241.77703279996058,242.14350679999916,242.14350679999916,242.14350679999916,242.14350679999916,242.14350679999916,242.14350679999916,242.14350679999916,242.14350679999916,242.14350679999916,0,1,[0.0013208999880589545],[0.3672341000055894],242.14350679999916,242.34590509999543,1000,242.34590509999543,1000,1000,1000,1000,0,num_3,0.5264965000096709,,26,8,2026-03-05_10h55.17.495,2026A_exp2,2022.2.4,59.885188107598424,
1000,1,0.0,0.0,1,0,76,76,62,,,,,242.89419199997792,243.5448175999918,243.5448175999918,244.0459140999592,45,315,244.0459140999592,244.0459140999592,244.0459140999592,244.0459140999592,244.0459140999592,244.0459140999592,244.0459140999592,244.0459140999592,244.0459140999592,244.4124927999801,244.4124927999801,244.4124927999801,244.4124927999801,244.4124927999801,244.4124927999801,244.4124927999801,244.4124927999801,244.4124927999801,23,0,,,244.4124927999801,244.61411989998305,1000,244.61411989998305,1000,1000,1000,1000,0,num_3,0.5211693999590352,,26,8,2026-03-05_10h55.17.495,2026A_exp2,2022.2.4,59.885188107598424,
1000,1,4.9,6.1,1,0,77,77,18,,,,,245.1633365000016,245.8139605000033,245.8139605000033,246.31642549997196,45,315,246.31642549997196,246.31642549997196,246.31642549997196,246.31642549997196,246.31642549997196,246.31642549997196,246.31642549997196,246.31642549997196,246.31642549997196,246.68130469997413,246.68130469997413,246.68130469997413,246.68130469997413,246.68130469997413,246.68130469997413,246.68130469997413,246.68130469997413,246.68130469997413,23,0,,,246.68130469997413,246.88335699995514,1000,246.88335699995514,1000,1000,1000,1000,1,num_2,0.49974059994565323,,26,8,2026-03-05_10h55.17.495,2026A_exp2,2022.2.4,59.885188107598424,
1,0,0.0,4.9,0,0,78,78,35,,,,,247.3988121000002,248.0592503999942,248.0592503999942,248.55078299995512,45,45,248.55078299995512,248.55078299995512,248.55078299995512,248.55078299995512,248.55078299995512,248.55078299995512,248.55078299995512,248.55078299995512,248.55078299995512,248.90032969997264,248.90032969997264,248.90032969997264,248.90032969997264,248.90032969997264,248.90032969997264,248.90032969997264,248.90032969997264,248.90032969997264,23,0,,,248.90032969997264,249.10055099998135,0.0,249.10055099998135,0,0.0,0,1,1000,num_1,0.7310689000296406,,26,8,2026-03-05_10h55.17.495,2026A_exp2,2022.2.4,59.885188107598424,
1000,1,0.0,0.0,1,0,79,79,40,,,,,249.85101589997066,250.50188499997603,250.50188499997603,250.98625699995318,45,45,250.98625699995318,250.98625699995318,250.98625699995318,250.98625699995318,250.98625699995318,250.98625699995318,250.98625699995318,250.98625699995318,250.98625699995318,251.35277159995167,251.35277159995167,251.35277159995167,251.35277159995167,251.35277159995167,251.35277159995167,251.35277159995167,251.35277159995167,251.35277159995167,23,0,,,251.35277159995167,251.55615389999002,1000,251.5696925999946,1000,1000,1000,1000,1,num_2,0.3414571000030264,,26,8,2026-03-05_10h55.17.495,2026A_exp2,2022.2.4,59.885188107598424,
1,0,6.1,4.9,0,0,80,80,30,,,,,251.93653479998466,252.58729180000955,252.58729180000955,253.0883751999936,45,315,253.0883751999936,253.0883751999936,253.0883751999936,253.0883751999936,253.0883751999936,253.0883751999936,253.0883751999936,253.0883751999936,253.0883751999936,253.4547401999589,253.4547401999589,253.4547401999589,253.4547401999589,253.4547401999589,253.4547401999589,253.4547401999589,253.4547401999589,253.4547401999589,11,5,"[0.0012317000073380768, 0.1668791000265628, 0.2336914999759756, 0.316490099998191, 0.3664289999869652]","[0.11681839998345822, 0.2169265000266023, 0.2504008000250906, 0.3331604999839328, 0.3664330000174232]",253.4547401999589,253.65474259998882,6.1,253.65474259998882,1,6.1,1,1,1000,num_4,0.7610799999674782,,26,8,2026-03-05_10h55.17.495,2026A_exp2,2022.2.4,59.885188107598424,
1,0,6.1,6.1,0,0,81,81,51,,,,,254.43905579997227,255.08985990000656,255.08985990000656,255.57431219995487,315,315,255.57431219995487,255.57431219995487,255.57431219995487,255.57431219995487,255.57431219995487,255.57431219995487,255.57431219995487,255.57431219995487,255.57431219995487,255.9407221999718,255.9407221999718,255.9407221999718,255.9407221999718,255.9407221999718,255.9407221999718,255.9407221999718,255.9407221999718,255.9407221999718,23,0,,,255.9407221999718,256.14093639998464,6.1,256.14093639998464,1,6.1,1,1,1000,num_4,0.81067479995545,,26,8,2026-03-05_10h55.17.495,2026A_exp2,2022.2.4,59.885188107598424,
1000,1,0.0,0.0,1,0,82,82,71,,,,,256.9748856999795,257.6257217999664,257.6257217999664,258.1268545999774,45,315,258.1268545999774,258.1268545999774,258.1268545999774,258.1268545999774,258.1268545999774,258.1268545999774,258.1268545999774,258.1268545999774,258.1268545999774,258.47645109996665,258.47645109996665,258.47645109996665,258.47645109996665,258.47645109996665,258.47645109996665,258.47645109996665,258.47645109996665,258.47645109996665,0,1,[0.0012829999905079603],[0.3505481999600306],258.47645109996665,258.6783087999793,1000,258.6783087999793,1000,1000,1000,1000,1,num_2,0.48061430000234395,,26,8,2026-03-05_10h55.17.495,2026A_exp2,2022.2.4,59.885188107598424,
1000,1,4.9,4.9,0,0,83,83,34,,,,,259.1773467999883,259.8278304999694,259.8278304999694,260.329028499953,315,315,260.329028499953,260.329028499953,260.329028499953,260.329028499953,260.329028499953,260.329028499953,260.329028499953,260.329028499953,260.329028499953,260.69539539999096,260.69539539999096,260.69539539999096,260.69539539999096,260.69539539999096,260.69539539999096,260.69539539999096,260.69539539999096,260.69539539999096,8,5,"[0.0012591999839060009, 0.05007080000359565, 0.1501803999999538, 0.1834979000268504, 0.33375759999034926]","[0.03346980002243072, 0.08314280002377927, 0.166847400018014, 0.30025460000615567, 0.3669713999843225]",260.69539539999096,260.8973614999559,1000,260.8973614999559,1000,1000,1000,1000,0,num_3,0.5899217999540269,,26,8,2026-03-05_10h55.17.495,2026A_exp2,2022.2.4,59.885188107598424,
1,0,0.0,3.7,0,0,84,84,2,,,,,261.5130783999921,262.17375869996613,262.17375869996613,262.66447739995783,315,315,262.66447739995783,262.66447739995783,262.66447739995783,262.66447739995783,262.66447739995783,262.66447739995783,262.66447739995783,262.66447739995783,262.66447739995783,263.0310413999832,263.0310413999832,263.0310413999832,263.0310413999832,263.0310413999832,263.0310413999832,263.0310413999832,263.0310413999832,263.0310413999832,23,0,,,263.0310413999832,263.2313882999588,0.0,263.2313882999588,1,0.0,0,0,1000,num_4,0.7520886000129394,,26,8,2026-03-05_10h55.17.495,2026A_exp2,2022.2.4,59.885188107598424,
1000,1,3.7,3.7,1,0,85,85,88,,,,,264.01543390000006,264.6660367999575,264.6660367999575,265.1501903999597,45,315,265.1501903999597,265.1501903999597,265.1501903999597,265.1501903999597,265.1501903999597,265.1501903999597,265.1501903999597,265.1501903999597,265.1501903999597,265.5168580999598,265.5168580999598,265.5168580999598,265.5168580999598,265.5168580999598,265.5168580999598,265.5168580999598,265.5168580999598,265.5168580999598,23,0,,,265.5168580999598,265.74576369998977,1000,265.74576369998977,1000,1000,1000,1000,1,num_2,0.4457691000425257,,26,8,2026-03-05_10h55.17.495,2026A_exp2,2022.2.4,59.885188107598424,
1,0,3.7,0.0,1,0,86,86,59,,,,,266.2174679999589,266.868351699959,266.868351699959,267.36944499996025,45,315,267.36944499996025,267.36944499996025,267.36944499996025,267.36944499996025,267.36944499996025,267.36944499996025,267.36944499996025,267.36944499996025,267.36944499996025,267.7358299999614,267.7358299999614,267.7358299999614,267.7358299999614,267.7358299999614,267.7358299999614,267.7358299999614,267.7358299999614,267.7358299999614,22,2,"[0.3005911000072956, 0.36719299998367205]","[0.3175137999933213, 0.3671994000324048]",267.7358299999614,267.9359022999997,0.0,267.9359022999997,1,0.0,0,0,1000,num_4,0.9763708999962546,,26,8,2026-03-05_10h55.17.495,2026A_exp2,2022.2.4,59.885188107598424,
1000,1,0.0,0.0,1,0,87,87,39,,,,,268.93691230000695,269.58759399998235,269.58759399998235,270.0888393999776,45,45,270.0888393999776,270.0888393999776,270.0888393999776,270.0888393999776,270.0888393999776,270.0888393999776,270.0888393999776,270.0888393999776,270.0888393999776,270.4385661999695,270.4385661999695,270.4385661999695,270.4385661999695,270.4385661999695,270.4385661999695,270.4385661999695,270.4385661999695,270.4385661999695,22,0,,,270.4385661999695,270.6404616999789,1000,270.6404616999789,1000,1000,1000,1000,1,num_2,0.9277808999759145,,26,8,2026-03-05_10h55.17.495,2026A_exp2,2022.2.4,59.885188107598424,
1,0,4.9,0.0,0,0,88,88,23,,,,,271.58981639996637,272.2399005999905,272.2399005999905,272.7415062999935,315,315,272.7415062999935,272.7415062999935,272.7415062999935,272.7415062999935,272.7415062999935,272.7415062999935,272.7415062999935,272.7415062999935,272.7415062999935,273.10786729998654,273.10786729998654,273.10786729998654,273.10786729998654,273.10786729998654,273.10786729998654,273.10786729998654,273.10786729998654,273.10786729998654,23,0,,,273.10786729998654,273.3080967999995,4.9,273.3080967999995,1,4.9,1,1,1000,num_4,0.6116475000162609,,26,8,2026-03-05_10h55.17.495,2026A_exp2,2022.2.4,59.885188107598424,
1000,1,0.0,3.7,1,0,89,89,43,,,,,273.94207109999843,274.592547999986,274.592547999986,275.07711269997526,315,315,275.07711269997526,275.07711269997526,275.07711269997526,275.07711269997526,275.07711269997526,275.07711269997526,275.07711269997526,275.07711269997526,275.07711269997526,275.44354989996646,275.44354989996646,275.44354989996646,275.44354989996646,275.44354989996646,275.44354989996646,275.44354989996646,275.44354989996646,275.44354989996646,17,3,"[0.05015239998465404, 0.16693799995118752, 0.2502845999551937]","[0.06693779997294769, 0.23379789997125044, 0.2670726999640465]",275.44354989996646,275.64582789997803,1000,275.64582789997803,1000,1000,1000,1000,1,num_2,0.37796070001786575,,26,8,2026-03-05_10h55.17.495,2026A_exp2,2022.2.4,59.885188107598424,
,,,,,,,,,,,,,,,,,,,,,,,,,,,,,,,,,,,,,,,,,,,,,,,,,,,,276.0534168999875,,,,,,,
