validity,detectorcomp,contrastCW,contrastCCW,precueCWorCCW,block_80trials.thisRepN,block_80trials.thisTrialN,block_80trials.thisN,block_80trials.thisIndex,etRecord.started,etRecord.stopped,text.started,text.stopped,text_4.started,text_4.stopped,text_6.started,text_6.stopped,oriCW,oriCCW,roi_2.started,grating_UR.started,grating_UL.started,grating_LR.started,grating_LL.started,noise_UR.started,noise_UL.started,noise_LR.started,noise_LL.started,roi_2.stopped,grating_UR.stopped,grating_UL.stopped,grating_LR.stopped,grating_LL.stopped,noise_UR.stopped,noise_UL.stopped,noise_LR.stopped,noise_LL.stopped,outframe,roi_2.numLooks,roi_2.timesOn,roi_2.timesOff,text_2.started,text_2.stopped,probedcontrast,key_resp.started,respdetect,relevantContrast,correctDetect,TorFdetect,respCWorCCW,key_resp.keys,key_resp.rt,feedback_display_.started,participantNo,blockNo,date,expName,psychopyVersion,frameRate,
1,0,4.9,6.1,1,0,0,0,46,5.6999968364834785e-05,5.6999968364834785e-05,62.10225069988519,64.1075511998497,64.1075511998497,64.74015480000526,64.74015480000526,65.26027729990892,45,45,65.26027729990892,65.26027729990892,65.26027729990892,65.26027729990892,65.26027729990892,65.26027729990892,65.26027729990892,65.26027729990892,65.26027729990892,65.60751869995147,65.60751869995147,65.60751869995147,65.60751869995147,65.60751869995147,65.60751869995147,65.60751869995147,65.60751869995147,65.60751869995147,23,0,,,65.60751869995147,65.80784619995393,6.1,65.80784619995393,1,6.1,1,1,1000,num_4,0.5949348001740873,,32,11,2026-03-12_16h05.45.944,2026A_exp2,2022.2.4,60.22329594033172,
1000,1,0.0,0.0,0,0,1,1,75,,,,,66.42516759992577,67.07546279998496,67.07546279998496,67.56017869990319,315,45,67.56017869990319,67.56017869990319,67.56017869990319,67.56017869990319,67.56017869990319,67.56017869990319,67.56017869990319,67.56017869990319,67.56017869990319,67.92647309997119,67.92647309997119,67.92647309997119,67.92647309997119,67.92647309997119,67.92647309997119,67.92647309997119,67.92647309997119,67.92647309997119,23,0,,,67.92647309997119,68.13082039984874,1000,68.13082039984874,1000,1000,1000,1000,0,num_3,0.41606760025024414,,32,11,2026-03-12_16h05.45.944,2026A_exp2,2022.2.4,60.22329594033172,
1000,1,4.9,3.7,1,0,2,2,32,,,,,68.5772545998916,69.22795189986937,69.22795189986937,69.72898170002736,45,315,69.72898170002736,69.72898170002736,69.72898170002736,69.72898170002736,69.72898170002736,69.72898170002736,69.72898170002736,69.72898170002736,69.72898170002736,70.09536769986153,70.09536769986153,70.09536769986153,70.09536769986153,70.09536769986153,70.09536769986153,70.09536769986153,70.09536769986153,70.09536769986153,23,0,,,70.09536769986153,70.29735259991139,1000,70.29735259991139,1000,1000,1000,1000,1,num_2,0.13010969990864396,,32,11,2026-03-12_16h05.45.944,2026A_exp2,2022.2.4,60.22329594033172,
0,0,4.9,0.0,0,0,3,3,30,,,,,70.44577219989151,71.09643649985082,71.09643649985082,71.59732079994865,315,45,71.59732079994865,71.59732079994865,71.59732079994865,71.59732079994865,71.59732079994865,71.59732079994865,71.59732079994865,71.59732079994865,71.59732079994865,71.96382319997065,71.96382319997065,71.96382319997065,71.96382319997065,71.96382319997065,71.96382319997065,71.96382319997065,71.96382319997065,71.96382319997065,5,1,[0.0012128001544624567],[0.3009270001202822],71.96382319997065,72.16413249983452,0.0,72.16413249983452,1,0.0,0,0,1000,num_4,0.43164029996842146,,32,11,2026-03-12_16h05.45.944,2026A_exp2,2022.2.4,60.22329594033172,
1000,1,0.0,4.9,0,0,4,4,11,,,,,72.61471490003169,73.26518519991077,73.26518519991077,73.76637619989924,315,315,73.76637619989924,73.76637619989924,73.76637619989924,73.76637619989924,73.76637619989924,73.76637619989924,73.76637619989924,73.76637619989924,73.76637619989924,74.1160738999024,74.1160738999024,74.1160738999024,74.1160738999024,74.1160738999024,74.1160738999024,74.1160738999024,74.1160738999024,74.1160738999024,22,0,,,74.1160738999024,74.31795389996842,1000,74.33307920000516,1000,1000,1000,1000,1,num_2,0.509727300144732,,32,11,2026-03-12_16h05.45.944,2026A_exp2,2022.2.4,60.22329594033172,
1000,1,4.9,3.7,1,0,5,5,67,,,,,74.86679769982584,75.51756139984354,75.51756139984354,76.01867270004004,45,315,76.01867270004004,76.01867270004004,76.01867270004004,76.01867270004004,76.01867270004004,76.01867270004004,76.01867270004004,76.01867270004004,76.01867270004004,76.38509939983487,76.38509939983487,76.38509939983487,76.38509939983487,76.38509939983487,76.38509939983487,76.38509939983487,76.38509939983487,76.38509939983487,4,1,[0.0011950999032706022],[0.3172212999779731],76.38509939983487,76.58711720001884,1000,76.58711720001884,1000,1000,1000,1000,0,num_3,0.5044600002001971,,32,11,2026-03-12_16h05.45.944,2026A_exp2,2022.2.4,60.22329594033172,
1,0,0.0,0.0,0,0,6,6,49,,,,,77.11900840001181,77.76969780004583,77.76969780004583,78.27088289987296,45,315,78.27088289987296,78.27088289987296,78.27088289987296,78.27088289987296,78.27088289987296,78.27088289987296,78.27088289987296,78.27088289987296,78.27088289987296,78.63735029986128,78.63735029986128,78.63735029986128,78.63735029986128,78.63735029986128,78.63735029986128,78.63735029986128,78.63735029986128,78.63735029986128,23,0,,,78.63735029986128,78.83745440002531,0.0,78.83745440002531,1,0.0,0,0,1000,num_4,0.5906417001970112,,32,11,2026-03-12_16h05.45.944,2026A_exp2,2022.2.4,60.22329594033172,
1000,1,0.0,0.0,0,0,7,7,69,,,,,79.45484009990469,80.11341420002282,80.11341420002282,80.60653400002047,45,45,80.60653400002047,80.60653400002047,80.60653400002047,80.60653400002047,80.60653400002047,80.60653400002047,80.60653400002047,80.60653400002047,80.60653400002047,80.97300689993426,80.97300689993426,80.97300689993426,80.97300689993426,80.97300689993426,80.97300689993426,80.97300689993426,80.97300689993426,80.97300689993426,16,1,[0.0012094001285731792],[0.11693560006096959],80.97300689993426,81.17500109993853,1000,81.17500109993853,1000,1000,1000,1000,0,num_3,0.6280685001984239,,32,11,2026-03-12_16h05.45.944,2026A_exp2,2022.2.4,60.22329594033172,
1000,1,0.0,6.1,0,0,8,8,34,,,,,81.82398479990661,82.47461309982464,82.47461309982464,82.97553769988008,315,45,82.97553769988008,82.97553769988008,82.97553769988008,82.97553769988008,82.97553769988008,82.97553769988008,82.97553769988008,82.97553769988008,82.97553769988008,83.34192889998667,83.34192889998667,83.34192889998667,83.34192889998667,83.34192889998667,83.34192889998667,83.34192889998667,83.34192889998667,83.34192889998667,0,1,[0.0012101000174880028],[0.3671352001838386],83.34192889998667,83.54397240001708,1000,83.54397240001708,1000,1000,1000,1000,1,num_2,0.3951401999220252,,32,11,2026-03-12_16h05.45.944,2026A_exp2,2022.2.4,60.22329594033172,
1,0,4.9,0.0,1,0,9,9,82,,,,,83.9592347999569,84.6097042998299,84.6097042998299,85.11078209988773,315,315,85.11078209988773,85.11078209988773,85.11078209988773,85.11078209988773,85.11078209988773,85.11078209988773,85.11078209988773,85.11078209988773,85.11078209988773,85.47744499985129,85.47744499985129,85.47744499985129,85.47744499985129,85.47744499985129,85.47744499985129,85.47744499985129,85.47744499985129,85.47744499985129,2,3,"[0.0007536998018622398, 0.05029299994930625, 0.28436129982583225]","[0.033603099873289466, 0.2505951998755336, 0.36772489990107715]",85.47744499985129,85.67765689990483,0.0,85.67765689990483,0,0.0,0,1,1000,num_1,0.6210996001027524,,32,11,2026-03-12_16h05.45.944,2026A_exp2,2022.2.4,60.22329594033172,
1000,1,0.0,0.0,0,0,10,10,61,,,,,86.32845969987102,86.97901219991036,86.97901219991036,87.463317199843,315,315,87.463317199843,87.463317199843,87.463317199843,87.463317199843,87.463317199843,87.463317199843,87.463317199843,87.463317199843,87.463317199843,87.8298814999871,87.8298814999871,87.8298814999871,87.8298814999871,87.8298814999871,87.8298814999871,87.8298814999871,87.8298814999871,87.8298814999871,8,7,"[0.017243799986317754, 0.050250699976459146, 0.08351429994218051, 0.1504491998348385, 0.18359309993684292, 0.2838011998683214, 0.333753899903968]","[0.03347339993342757, 0.06694019981659949, 0.13356059999205172, 0.1669256999157369, 0.26703569991514087, 0.31711049983277917, 0.3671887000091374]",87.8298814999871,88.03186329989694,1000,88.03186329989694,1000,1000,1000,1000,0,num_3,1.1710045002400875,,32,11,2026-03-12_16h05.45.944,2026A_exp2,2022.2.4,60.22329594033172,
1,0,4.9,0.0,1,0,11,11,6,,,,,89.23180079995655,89.88176389993168,89.88176389993168,90.36623669997789,45,315,90.36623669997789,90.36623669997789,90.36623669997789,90.36623669997789,90.36623669997789,90.36623669997789,90.36623669997789,90.36623669997789,90.36623669997789,90.73263129987754,90.73263129987754,90.73263129987754,90.73263129987754,90.73263129987754,90.73263129987754,90.73263129987754,90.73263129987754,90.73263129987754,23,0,,,90.73263129987754,90.9328627998475,0.0,90.9328627998475,0,0.0,0,1,1000,num_1,1.2224171999841928,,32,11,2026-03-12_16h05.45.944,2026A_exp2,2022.2.4,60.22329594033172,
0,0,0.0,6.1,1,0,12,12,76,,,,,92.18391290004365,92.83479789993726,92.83479789993726,93.31921530002728,45,45,93.31921530002728,93.31921530002728,93.31921530002728,93.31921530002728,93.31921530002728,93.31921530002728,93.31921530002728,93.31921530002728,93.31921530002728,93.68570069991983,93.68570069991983,93.68570069991983,93.68570069991983,93.68570069991983,93.68570069991983,93.68570069991983,93.68570069991983,93.68570069991983,13,4,"[0.01737090013921261, 0.13356670015491545, 0.21701570018194616, 0.30055920011363924]","[0.10032180021516979, 0.15035510016605258, 0.25060850009322166, 0.33385180006735027]",93.68570069991983,93.88593299989589,0.0,93.88593299989589,0,0.0,0,1,1000,num_1,0.8696324001066387,,32,11,2026-03-12_16h05.45.944,2026A_exp2,2022.2.4,60.22329594033172,
1000,1,0.0,0.0,1,0,13,13,29,,,,,94.78666480001993,95.43764110002667,95.43764110002667,95.92179359984584,315,45,95.92179359984584,95.92179359984584,95.92179359984584,95.92179359984584,95.92179359984584,95.92179359984584,95.92179359984584,95.92179359984584,95.92179359984584,96.28828229987994,96.28828229987994,96.28828229987994,96.28828229987994,96.28828229987994,96.28828229987994,96.28828229987994,96.28828229987994,96.28828229987994,23,0,,,96.28828229987994,96.48997700004838,1000,96.48997700004838,1000,1000,1000,1000,1,num_2,0.9129924001172185,,32,11,2026-03-12_16h05.45.944,2026A_exp2,2022.2.4,60.22329594033172,
1000,1,4.9,0.0,0,0,14,14,22,,,,,97.42259299987927,98.07344299997203,98.07344299997203,98.5745534999296,45,315,98.5745534999296,98.5745534999296,98.5745534999296,98.5745534999296,98.5745534999296,98.5745534999296,98.5745534999296,98.5745534999296,98.5745534999296,98.94090889999643,98.94090889999643,98.94090889999643,98.94090889999643,98.94090889999643,98.94090889999643,98.94090889999643,98.94090889999643,98.94090889999643,17,2,"[0.2169473001267761, 0.36692920001223683]","[0.28359490004368126, 0.3669338000472635]",98.94090889999643,99.14320979989134,1000,99.14320979989134,1000,1000,1000,1000,0,num_3,0.4844603000674397,,32,11,2026-03-12_16h05.45.944,2026A_exp2,2022.2.4,60.22329594033172,
1000,1,3.7,6.1,0,0,15,15,28,,,,,99.65821529994719,100.30895129987039,100.30895129987039,100.79310410004109,45,45,100.79310410004109,100.79310410004109,100.79310410004109,100.79310410004109,100.79310410004109,100.79310410004109,100.79310410004109,100.79310410004109,100.79310410004109,101.1764159000013,101.1764159000013,101.1764159000013,101.1764159000013,101.1764159000013,101.1764159000013,101.1764159000013,101.1764159000013,101.1764159000013,18,4,"[0.016608000034466386, 0.08287720009684563, 0.13311260007321835, 0.35044559999369085]","[0.04983550007455051, 0.09952899999916553, 0.16671330016106367, 0.3671326001640409]",101.1764159000013,101.37856479990296,1000,101.37856479990296,1000,1000,1000,1000,1,num_2,0.36052170023322105,,32,11,2026-03-12_16h05.45.944,2026A_exp2,2022.2.4,60.22329594033172,
1000,1,0.0,3.7,0,0,16,16,44,,,,,101.76029669982381,102.41097890003584,102.41097890003584,102.91211079992354,315,45,102.91211079992354,102.91211079992354,102.91211079992354,102.91211079992354,102.91211079992354,102.91211079992354,102.91211079992354,102.91211079992354,102.91211079992354,103.26191889983602,103.26191889983602,103.26191889983602,103.26191889983602,103.26191889983602,103.26191889983602,103.26191889983602,103.26191889983602,103.26191889983602,15,3,"[0.05014619999565184, 0.11678589996881783, 0.26704009994864464]","[0.08347720000892878, 0.18363109999336302, 0.2837801999412477]",103.26191889983602,103.46422840002924,1000,103.46422840002924,1000,1000,1000,1000,1,num_2,0.41103390022180974,,32,11,2026-03-12_16h05.45.944,2026A_exp2,2022.2.4,60.22329594033172,
0,0,0.0,4.9,1,0,17,17,56,,,,,103.89577069994994,104.54654829995707,104.54654829995707,105.0476412998978,315,315,105.0476412998978,105.0476412998978,105.0476412998978,105.0476412998978,105.0476412998978,105.0476412998978,105.0476412998978,105.0476412998978,105.0476412998978,105.41411200002767,105.41411200002767,105.41411200002767,105.41411200002767,105.41411200002767,105.41411200002767,105.41411200002767,105.41411200002767,105.41411200002767,19,4,"[0.10044749989174306, 0.13364810007624328, 0.33385930000804365, 0.3673783999402076]","[0.11670910008251667, 0.15039109997451305, 0.3506499999202788, 0.36738270008936524]",105.41411200002767,105.61442109989002,0.0,105.61442109989002,0,0.0,0,1,1000,num_1,0.7327519999817014,,32,11,2026-03-12_16h05.45.944,2026A_exp2,2022.2.4,60.22329594033172,
1,0,0.0,6.1,0,0,18,18,68,,,,,106.36489209998399,107.01556689990684,107.01556689990684,107.50014839996584,45,315,107.50014839996584,107.50014839996584,107.50014839996584,107.50014839996584,107.50014839996584,107.50014839996584,107.50014839996584,107.50014839996584,107.50014839996584,107.86651339987293,107.86651339987293,107.86651339987293,107.86651339987293,107.86651339987293,107.86651339987293,107.86651339987293,107.86651339987293,107.86651339987293,12,5,"[0.0012350000906735659, 0.18325489992275834, 0.23373949993401766, 0.26725089992396533, 0.33374019991606474]","[0.10028299991972744, 0.21703709987923503, 0.2503955001011491, 0.2838033000007272, 0.3504896000958979]",107.86651339987293,108.06661189999431,0.0,108.06661189999431,0,0.0,0,1,1000,num_1,0.8093269001692533,,32,11,2026-03-12_16h05.45.944,2026A_exp2,2022.2.4,60.22329594033172,
1000,1,6.1,0.0,0,0,19,19,33,,,,,108.90083949989639,109.53492899984121,109.53492899984121,110.03604099992663,315,45,110.03604099992663,110.03604099992663,110.03604099992663,110.03604099992663,110.03604099992663,110.03604099992663,110.03604099992663,110.03604099992663,110.03604099992663,110.40241179987788,110.40241179987788,110.40241179987788,110.40241179987788,110.40241179987788,110.40241179987788,110.40241179987788,110.40241179987788,110.40241179987788,23,0,,,110.40241179987788,110.6041482000146,1000,110.6041482000146,1000,1000,1000,1000,0,num_3,0.463325799908489,,32,11,2026-03-12_16h05.45.944,2026A_exp2,2022.2.4,60.22329594033172,
1000,1,0.0,4.9,1,0,20,20,51,,,,,111.08630179986358,111.73706049984321,111.73706049984321,112.2382278998848,315,315,112.2382278998848,112.2382278998848,112.2382278998848,112.2382278998848,112.2382278998848,112.2382278998848,112.2382278998848,112.2382278998848,112.2382278998848,112.60461489995942,112.60461489995942,112.60461489995942,112.60461489995942,112.60461489995942,112.60461489995942,112.60461489995942,112.60461489995942,112.60461489995942,23,0,,,112.60461489995942,112.8067913998384,1000,112.8067913998384,1000,1000,1000,1000,1,num_2,0.348062900127843,,32,11,2026-03-12_16h05.45.944,2026A_exp2,2022.2.4,60.22329594033172,
1,0,0.0,0.0,0,0,21,21,81,,,,,113.17174509982578,113.82254850002937,113.82254850002937,114.3236067998223,45,315,114.3236067998223,114.3236067998223,114.3236067998223,114.3236067998223,114.3236067998223,114.3236067998223,114.3236067998223,114.3236067998223,114.3236067998223,114.67295909998938,114.67295909998938,114.67295909998938,114.67295909998938,114.67295909998938,114.67295909998938,114.67295909998938,114.67295909998938,114.67295909998938,21,1,[0.28391110012307763],[0.30052469996735454],114.67295909998938,114.87324330001138,0.0,114.87324330001138,0,0.0,0,1,1000,num_1,0.8814169000834227,,32,11,2026-03-12_16h05.45.944,2026A_exp2,2022.2.4,60.22329594033172,
1000,1,4.9,6.1,1,0,22,22,1,,,,,115.77459249994718,116.42475749994628,116.42475749994628,116.90952669992112,315,45,116.90952669992112,116.90952669992112,116.90952669992112,116.90952669992112,116.90952669992112,116.90952669992112,116.90952669992112,116.90952669992112,116.90952669992112,117.27586079994217,117.27586079994217,117.27586079994217,117.27586079994217,117.27586079994217,117.27586079994217,117.27586079994217,117.27586079994217,117.27586079994217,23,0,,,117.27586079994217,117.4782674999442,1000,117.4782674999442,1000,1000,1000,1000,1,num_2,0.5096207002643496,,32,11,2026-03-12_16h05.45.944,2026A_exp2,2022.2.4,60.22329594033172,
1,0,6.1,0.0,1,0,23,23,13,,,,,118.00990629987791,118.66065720003098,118.66065720003098,119.16168609983288,45,45,119.16168609983288,119.16168609983288,119.16168609983288,119.16168609983288,119.16168609983288,119.16168609983288,119.16168609983288,119.16168609983288,119.16168609983288,119.52821479993872,119.52821479993872,119.52821479993872,119.52821479993872,119.52821479993872,119.52821479993872,119.52821479993872,119.52821479993872,119.52821479993872,23,0,,,119.52821479993872,119.72828549984843,0.0,119.72828549984843,0,0.0,0,1,1000,num_1,0.6668239999562502,,32,11,2026-03-12_16h05.45.944,2026A_exp2,2022.2.4,60.22329594033172,
1000,1,6.1,0.0,0,0,24,24,19,,,,,120.41230760002509,121.06308460002765,121.06308460002765,121.54753610002808,45,45,121.54753610002808,121.54753610002808,121.54753610002808,121.54753610002808,121.54753610002808,121.54753610002808,121.54753610002808,121.54753610002808,121.54753610002808,121.91394999995828,121.91394999995828,121.91394999995828,121.91394999995828,121.91394999995828,121.91394999995828,121.91394999995828,121.91394999995828,121.91394999995828,22,1,[0.11694069998338819],[0.1335837000515312],121.91394999995828,122.1162288999185,1000,122.1162288999185,1000,1000,1000,1000,0,num_3,0.4393911000806838,,32,11,2026-03-12_16h05.45.944,2026A_exp2,2022.2.4,60.22329594033172,
1000,1,3.7,0.0,1,0,25,25,55,,,,,122.58138599991798,123.23178049991839,123.23178049991839,123.73305199993774,315,315,123.73305199993774,123.73305199993774,123.73305199993774,123.73305199993774,123.73305199993774,123.73305199993774,123.73305199993774,123.73305199993774,123.73305199993774,124.09952529985458,124.09952529985458,124.09952529985458,124.09952529985458,124.09952529985458,124.09952529985458,124.09952529985458,124.09952529985458,124.09952529985458,22,1,[0.017403499921783805],[0.03358720010146499],124.09952529985458,124.30151099991053,1000,124.30151099991053,1000,1000,1000,1000,0,num_3,0.34231920004822314,,32,11,2026-03-12_16h05.45.944,2026A_exp2,2022.2.4,60.22329594033172,
1,0,0.0,0.0,0,0,26,26,9,,,,,124.66651410004124,125.3173330000136,125.3173330000136,125.8185675998684,45,45,125.8185675998684,125.8185675998684,125.8185675998684,125.8185675998684,125.8185675998684,125.8185675998684,125.8185675998684,125.8185675998684,125.8185675998684,126.18484879983589,126.18484879983589,126.18484879983589,126.18484879983589,126.18484879983589,126.18484879983589,126.18484879983589,126.18484879983589,126.18484879983589,16,3,"[0.03364210017025471, 0.08373810001648962, 0.18393769999966025]","[0.05050010001286864, 0.15043310006149113, 0.2172220000065863]",126.18484879983589,126.3851091999095,0.0,126.3851091999095,0,0.0,0,1,1000,num_1,1.2586191000882536,,32,11,2026-03-12_16h05.45.944,2026A_exp2,2022.2.4,60.22329594033172,
1,0,0.0,0.0,1,0,27,27,37,,,,,127.66954219993204,128.32047369983047,128.32047369983047,128.80477669998072,315,315,128.80477669998072,128.80477669998072,128.80477669998072,128.80477669998072,128.80477669998072,128.80477669998072,128.80477669998072,128.80477669998072,128.80477669998072,129.17113589984365,129.17113589984365,129.17113589984365,129.17113589984365,129.17113589984365,129.17113589984365,129.17113589984365,129.17113589984365,129.17113589984365,16,4,"[0.06692779995501041, 0.167092900024727, 0.26722400006838143, 0.33398619992658496]","[0.0836459998972714, 0.18382590007968247, 0.3006162999663502, 0.367348900064826]",129.17113589984365,129.37123099993914,0.0,129.37123099993914,1,0.0,0,0,1000,num_4,0.512127400143072,,32,11,2026-03-12_16h05.45.944,2026A_exp2,2022.2.4,60.22329594033172,
1000,1,0.0,4.9,1,0,28,28,27,,,,,129.90502689988352,130.5559342999477,130.5559342999477,131.0402136000339,315,315,131.0402136000339,131.0402136000339,131.0402136000339,131.0402136000339,131.0402136000339,131.0402136000339,131.0402136000339,131.0402136000339,131.0402136000339,131.40679159993306,131.40679159993306,131.40679159993306,131.40679159993306,131.40679159993306,131.40679159993306,131.40679159993306,131.40679159993306,131.40679159993306,14,4,"[0.11689399997703731, 0.16698960005305707, 0.23373070009984076, 0.28386700013652444]","[0.150292000034824, 0.18372820015065372, 0.2670686000492424, 0.35056390007957816]",131.40679159993306,131.60846289992332,1000,131.60846289992332,1000,1000,1000,1000,1,num_2,0.37164520006626844,,32,11,2026-03-12_16h05.45.944,2026A_exp2,2022.2.4,60.22329594033172,
0,0,0.0,0.0,1,0,29,29,8,,,,,132.007365899859,132.6579078999348,132.6579078999348,133.15914579993114,45,315,133.15914579993114,133.15914579993114,133.15914579993114,133.15914579993114,133.15914579993114,133.15914579993114,133.15914579993114,133.15914579993114,133.15914579993114,133.50886739999987,133.50886739999987,133.50886739999987,133.50886739999987,133.50886739999987,133.50886739999987,133.50886739999987,133.50886739999987,133.50886739999987,16,4,"[0.050169500056654215, 0.11684529995545745, 0.23360469983890653, 0.2836779998615384]","[0.08353269984945655, 0.1337063000537455, 0.2505385000258684, 0.3170192998368293]",133.50886739999987,133.70895939995535,0.0,133.70895939995535,0,0.0,0,1,1000,num_1,1.3588390001095831,,32,11,2026-03-12_16h05.45.944,2026A_exp2,2022.2.4,60.22329594033172,
1000,1,4.9,0.0,0,0,30,30,36,,,,,135.09370409999974,135.74429959990084,135.74429959990084,136.22875249991193,315,45,136.22875249991193,136.22875249991193,136.22875249991193,136.22875249991193,136.22875249991193,136.22875249991193,136.22875249991193,136.22875249991193,136.22875249991193,136.5952484998852,136.5952484998852,136.5952484998852,136.5952484998852,136.5952484998852,136.5952484998852,136.5952484998852,136.5952484998852,136.5952484998852,12,5,"[0.08360300003550947, 0.1336190002039075, 0.2003604001365602, 0.25043970020487905, 0.31716240011155605]","[0.1170553001575172, 0.16701610013842583, 0.23388980003073812, 0.28374350001104176, 0.3671356001868844]",136.5952484998852,136.7974482998252,1000,136.7974482998252,1000,1000,1000,1000,0,num_3,0.4543897002004087,,32,11,2026-03-12_16h05.45.944,2026A_exp2,2022.2.4,60.22329594033172,
1,0,0.0,4.9,1,0,31,31,45,,,,,137.27916899998672,137.9298302999232,137.9298302999232,138.44738189992495,45,45,138.44738189992495,138.44738189992495,138.44738189992495,138.44738189992495,138.44738189992495,138.44738189992495,138.44738189992495,138.44738189992495,138.44738189992495,138.79743829998188,138.79743829998188,138.79743829998188,138.79743829998188,138.79743829998188,138.79743829998188,138.79743829998188,138.79743829998188,138.79743829998188,23,0,,,138.79743829998188,138.99773139995523,4.9,138.99773139995523,1,4.9,1,1,1000,num_4,0.6772349001839757,,32,11,2026-03-12_16h05.45.944,2026A_exp2,2022.2.4,60.22329594033172,
0,0,3.7,4.9,1,0,32,32,3,,,,,139.69818569999188,140.34884939994663,140.34884939994663,140.83338209986687,315,45,140.83338209986687,140.83338209986687,140.83338209986687,140.83338209986687,140.83338209986687,140.83338209986687,140.83338209986687,140.83338209986687,140.83338209986687,141.19979620003141,141.19979620003141,141.19979620003141,141.19979620003141,141.19979620003141,141.19979620003141,141.19979620003141,141.19979620003141,141.19979620003141,21,2,"[0.28365730005316436, 0.31709189992398024]","[0.3005536000709981, 0.33427560003474355]",141.19979620003141,141.39977309992537,3.7,141.39977309992537,0,3.7,1,0,1000,num_1,0.651859300211072,,32,11,2026-03-12_16h05.45.944,2026A_exp2,2022.2.4,60.22329594033172,
1000,1,0.0,0.0,0,0,33,33,20,,,,,142.0673318998888,142.72767379996367,142.72767379996367,143.21913530002348,45,45,143.21913530002348,143.21913530002348,143.21913530002348,143.21913530002348,143.21913530002348,143.21913530002348,143.21913530002348,143.21913530002348,143.21913530002348,143.56879679998383,143.56879679998383,143.56879679998383,143.56879679998383,143.56879679998383,143.56879679998383,143.56879679998383,143.56879679998383,143.56879679998383,13,5,"[0.08365110005252063, 0.11707030003890395, 0.15041569992899895, 0.18391050002537668, 0.28405530005693436]","[0.10049470001831651, 0.13385319989174604, 0.1673218000214547, 0.20064190006814897, 0.350625499850139]",143.56879679998383,143.77106059994549,1000,143.77106059994549,1000,1000,1000,1000,1,num_2,0.6564929001033306,,32,11,2026-03-12_16h05.45.944,2026A_exp2,2022.2.4,60.22329594033172,
1000,1,0.0,0.0,1,0,34,34,23,,,,,144.45306379999965,145.10358949983492,145.10358949983492,145.60448469989933,45,45,145.60448469989933,145.60448469989933,145.60448469989933,145.60448469989933,145.60448469989933,145.60448469989933,145.60448469989933,145.60448469989933,145.60448469989933,145.9544824999757,145.9544824999757,145.9544824999757,145.9544824999757,145.9544824999757,145.9544824999757,145.9544824999757,145.9544824999757,145.9544824999757,19,3,"[0.20033440017141402, 0.26700830017216504, 0.3012519001495093]","[0.2171618000138551, 0.28349649999290705, 0.3173666000366211]",145.9544824999757,146.1546548998449,1000,146.1546548998449,1000,1000,1000,1000,1,num_2,0.4800342998933047,,32,11,2026-03-12_16h05.45.944,2026A_exp2,2022.2.4,60.22329594033172,
1000,1,3.7,3.7,1,0,35,35,40,,,,,146.6551875998266,147.30569379986264,147.30569379986264,147.7902484999504,45,315,147.7902484999504,147.7902484999504,147.7902484999504,147.7902484999504,147.7902484999504,147.7902484999504,147.7902484999504,147.7902484999504,147.7902484999504,148.15664439997636,148.15664439997636,148.15664439997636,148.15664439997636,148.15664439997636,148.15664439997636,148.15664439997636,148.15664439997636,148.15664439997636,2,1,[0.03360110009089112],[0.3676450999919325],148.15664439997636,148.35711880004965,1000,148.35711880004965,1000,1000,1000,1000,1,num_2,0.862375000026077,,32,11,2026-03-12_16h05.45.944,2026A_exp2,2022.2.4,60.22329594033172,
1000,1,6.1,3.7,1,0,36,36,10,,,,,149.24095349991694,149.89178399997763,149.89178399997763,150.3768717998173,315,45,150.3768717998173,150.3768717998173,150.3768717998173,150.3768717998173,150.3768717998173,150.3768717998173,150.3768717998173,150.3768717998173,150.3768717998173,150.74231899995357,150.74231899995357,150.74231899995357,150.74231899995357,150.74231899995357,150.74231899995357,150.74231899995357,150.74231899995357,150.74231899995357,23,0,,,150.74231899995357,150.94258009991609,1000,150.94258009991609,1000,1000,1000,1000,0,num_3,1.084803600097075,,32,11,2026-03-12_16h05.45.944,2026A_exp2,2022.2.4,60.22329594033172,
1000,1,4.9,4.9,0,0,37,37,42,,,,,152.04373669996858,152.6943618999794,152.6943618999794,153.1790716999676,315,315,153.1790716999676,153.1790716999676,153.1790716999676,153.1790716999676,153.1790716999676,153.1790716999676,153.1790716999676,153.1790716999676,153.1790716999676,153.5451366000343,153.5451366000343,153.5451366000343,153.5451366000343,153.5451366000343,153.5451366000343,153.5451366000343,153.5451366000343,153.5451366000343,8,2,"[0.0009198000188916922, 0.3166960999369621]","[0.23326739994809031, 0.33339200005866587]",153.5451366000343,153.74546589981765,1000,153.74546589981765,1000,1000,1000,1000,0,num_3,1.3300010000821203,,32,11,2026-03-12_16h05.45.944,2026A_exp2,2022.2.4,60.22329594033172,
0,0,0.0,0.0,1,0,38,38,62,,,,,155.09687859984115,155.74746969994158,155.74746969994158,156.2322370999027,315,45,156.2322370999027,156.2322370999027,156.2322370999027,156.2322370999027,156.2322370999027,156.2322370999027,156.2322370999027,156.2322370999027,156.2322370999027,156.59833009983413,156.59833009983413,156.59833009983413,156.59833009983413,156.59833009983413,156.59833009983413,156.59833009983413,156.59833009983413,156.59833009983413,23,0,,,156.59833009983413,156.7984688000288,0.0,156.7984688000288,0,0.0,0,1,1000,num_1,1.3968702999409288,,32,11,2026-03-12_16h05.45.944,2026A_exp2,2022.2.4,60.22329594033172,
1,0,0.0,0.0,1,0,39,39,18,,,,,158.2166847998742,158.85051329992712,158.85051329992712,159.35177329997532,45,45,159.35177329997532,159.35177329997532,159.35177329997532,159.35177329997532,159.35177329997532,159.35177329997532,159.35177329997532,159.35177329997532,159.35177329997532,159.71845509996638,159.71845509996638,159.71845509996638,159.71845509996638,159.71845509996638,159.71845509996638,159.71845509996638,159.71845509996638,159.71845509996638,23,0,,,159.71845509996638,159.91843799990602,0.0,159.91843799990602,1,0.0,0,0,1000,num_4,0.4127983001526445,,32,11,2026-03-12_16h05.45.944,2026A_exp2,2022.2.4,60.22329594033172,
1000,1,6.1,4.9,1,0,40,40,53,,,,,160.35216309991665,161.00264189997688,161.00264189997688,161.48741289996542,315,315,161.48741289996542,161.48741289996542,161.48741289996542,161.48741289996542,161.48741289996542,161.48741289996542,161.48741289996542,161.48741289996542,161.48741289996542,161.853492599912,161.853492599912,161.853492599912,161.853492599912,161.853492599912,161.853492599912,161.853492599912,161.853492599912,161.853492599912,23,0,,,161.853492599912,162.05379089992493,1000,162.05379089992493,1000,1000,1000,1000,1,num_2,0.9575825000647455,,32,11,2026-03-12_16h05.45.944,2026A_exp2,2022.2.4,60.22329594033172,
0,0,0.0,4.9,0,0,41,41,54,,,,,163.03824529983103,163.6721753999591,163.6721753999591,164.17357189999893,45,315,164.17357189999893,164.17357189999893,164.17357189999893,164.17357189999893,164.17357189999893,164.17357189999893,164.17357189999893,164.17357189999893,164.17357189999893,164.53987380000763,164.53987380000763,164.53987380000763,164.53987380000763,164.53987380000763,164.53987380000763,164.53987380000763,164.53987380000763,164.53987380000763,23,0,,,164.53987380000763,164.74017669982277,4.9,164.74017669982277,1,4.9,1,1,1000,num_4,0.49511690018698573,,32,11,2026-03-12_16h05.45.944,2026A_exp2,2022.2.4,60.22329594033172,
1,0,4.9,6.1,1,0,42,42,86,,,,,165.2571111000143,165.8909850998316,165.8909850998316,166.3921524998732,45,315,166.3921524998732,166.3921524998732,166.3921524998732,166.3921524998732,166.3921524998732,166.3921524998732,166.3921524998732,166.3921524998732,166.3921524998732,166.758638799889,166.758638799889,166.758638799889,166.758638799889,166.758638799889,166.758638799889,166.758638799889,166.758638799889,166.758638799889,15,3,"[0.000739899929612875, 0.20153019996359944, 0.36738110007718205]","[0.03371950006112456, 0.28380899992771447, 0.36738399998284876]",166.758638799889,166.95866520004347,6.1,166.95866520004347,1,6.1,1,1,1000,num_4,0.6446873000822961,,32,11,2026-03-12_16h05.45.944,2026A_exp2,2022.2.4,60.22329594033172,
1000,1,6.1,3.7,0,0,43,43,87,,,,,167.6261540998239,168.2601595998276,168.2601595998276,168.76116289990023,45,315,168.76116289990023,168.76116289990023,168.76116289990023,168.76116289990023,168.76116289990023,168.76116289990023,168.76116289990023,168.76116289990023,168.76116289990023,169.12744969991036,169.12744969991036,169.12744969991036,169.12744969991036,169.12744969991036,169.12744969991036,169.12744969991036,169.12744969991036,169.12744969991036,23,0,,,169.12744969991036,169.32794209988788,1000,169.32794209988788,1000,1000,1000,1000,1,num_2,1.0829444001428783,,32,11,2026-03-12_16h05.45.944,2026A_exp2,2022.2.4,60.22329594033172,
1,0,0.0,0.0,1,0,44,44,66,,,,,170.42899039993063,171.07943199994043,171.07943199994043,171.56402709987015,315,45,171.56402709987015,171.56402709987015,171.56402709987015,171.56402709987015,171.56402709987015,171.56402709987015,171.56402709987015,171.56402709987015,171.56402709987015,171.93031480000354,171.93031480000354,171.93031480000354,171.93031480000354,171.93031480000354,171.93031480000354,171.93031480000354,171.93031480000354,171.93031480000354,20,2,"[0.06678889994509518, 0.30086419987492263]","[0.10007659997791052, 0.3170964999590069]",171.93031480000354,172.13061679992825,0.0,172.13061679992825,1,0.0,0,0,1000,num_4,0.7367222001776099,,32,11,2026-03-12_16h05.45.944,2026A_exp2,2022.2.4,60.22329594033172,
1000,1,0.0,0.0,0,0,45,45,65,,,,,172.89803029992618,173.53192169987597,173.53192169987597,174.03298659995198,315,45,174.03298659995198,174.03298659995198,174.03298659995198,174.03298659995198,174.03298659995198,174.03298659995198,174.03298659995198,174.03298659995198,174.03298659995198,174.39924359996803,174.39924359996803,174.39924359996803,174.39924359996803,174.39924359996803,174.39924359996803,174.39924359996803,174.39924359996803,174.39924359996803,14,5,"[0.03370029991492629, 0.06708569987677038, 0.11684489995241165, 0.18338579987175763, 0.28345640003681183]","[0.05048380000516772, 0.08375449990853667, 0.13407719996757805, 0.19999059988185763, 0.36732640000991523]",174.39924359996803,174.60065569984727,1000,174.60065569984727,1000,1000,1000,1000,0,num_3,0.6022701000329107,,32,11,2026-03-12_16h05.45.944,2026A_exp2,2022.2.4,60.22329594033172,
1,0,0.0,4.9,0,0,46,46,71,,,,,175.2336401999928,175.86791169992648,175.86791169992648,176.36865219986066,315,315,176.36865219986066,176.36865219986066,176.36865219986066,176.36865219986066,176.36865219986066,176.36865219986066,176.36865219986066,176.36865219986066,176.36865219986066,176.73510359995998,176.73510359995998,176.73510359995998,176.73510359995998,176.73510359995998,176.73510359995998,176.73510359995998,176.73510359995998,176.73510359995998,21,2,"[0.1840560999698937, 0.3002601000480354]","[0.20031099999323487, 0.3173627001233399]",176.73510359995998,176.93531259987503,0.0,176.93531259987503,0,0.0,0,1,1000,num_1,0.5877549999859184,,32,11,2026-03-12_16h05.45.944,2026A_exp2,2022.2.4,60.22329594033172,
1000,1,0.0,0.0,1,0,47,47,14,,,,,177.55245269997977,178.18642109981738,178.18642109981738,178.6877466000151,45,45,178.6877466000151,178.6877466000151,178.6877466000151,178.6877466000151,178.6877466000151,178.6877466000151,178.6877466000151,178.6877466000151,178.6877466000151,179.05417119991034,179.05417119991034,179.05417119991034,179.05417119991034,179.05417119991034,179.05417119991034,179.05417119991034,179.05417119991034,179.05417119991034,23,0,,,179.05417119991034,179.25430709985085,1000,179.25430709985085,1000,1000,1000,1000,1,num_2,0.5163240002002567,,32,11,2026-03-12_16h05.45.944,2026A_exp2,2022.2.4,60.22329594033172,
1,0,4.9,0.0,0,0,48,48,48,,,,,179.7881304998882,180.42197839985602,180.42197839985602,180.9232751999516,315,45,180.9232751999516,180.9232751999516,180.9232751999516,180.9232751999516,180.9232751999516,180.9232751999516,180.9232751999516,180.9232751999516,180.9232751999516,181.28975400002673,181.28975400002673,181.28975400002673,181.28975400002673,181.28975400002673,181.28975400002673,181.28975400002673,181.28975400002673,181.28975400002673,21,1,[0.2855490001384169],[0.30183320003561676],181.28975400002673,181.4902567998506,4.9,181.4902567998506,1,4.9,1,1,1000,num_4,0.5684476001188159,,32,11,2026-03-12_16h05.45.944,2026A_exp2,2022.2.4,60.22329594033172,
1,0,6.1,4.9,1,0,49,49,35,,,,,182.09061719989404,182.72458589985035,182.72458589985035,183.22550840000622,45,315,183.22550840000622,183.22550840000622,183.22550840000622,183.22550840000622,183.22550840000622,183.22550840000622,183.22550840000622,183.22550840000622,183.22550840000622,183.5921098999679,183.5921098999679,183.5921098999679,183.5921098999679,183.5921098999679,183.5921098999679,183.5921098999679,183.5921098999679,183.5921098999679,23,0,,,183.5921098999679,183.79226280003786,4.9,183.79226280003786,1,4.9,1,1,1000,num_4,0.6591350000817329,,32,11,2026-03-12_16h05.45.944,2026A_exp2,2022.2.4,60.22329594033172,
1,0,0.0,0.0,0,0,50,50,38,,,,,184.47616810002364,185.11002779984847,185.11002779984847,185.61184230004437,45,315,185.61184230004437,185.61184230004437,185.61184230004437,185.61184230004437,185.61184230004437,185.61184230004437,185.61184230004437,185.61184230004437,185.61184230004437,185.97764179995283,185.97764179995283,185.97764179995283,185.97764179995283,185.97764179995283,185.97764179995283,185.97764179995283,185.97764179995283,185.97764179995283,8,2,"[0.10062989988364279, 0.3510272998828441]","[0.3170896000228822, 0.3673797999508679]",185.97764179995283,186.17790269991383,0.0,186.17790269991383,0,0.0,0,1,1000,num_1,0.7050894999410957,,32,11,2026-03-12_16h05.45.944,2026A_exp2,2022.2.4,60.22329594033172,
1,0,6.1,0.0,0,0,51,51,50,,,,,186.9119631999638,187.54599069990218,187.54599069990218,188.04714989988133,315,315,188.04714989988133,188.04714989988133,188.04714989988133,188.04714989988133,188.04714989988133,188.04714989988133,188.04714989988133,188.04714989988133,188.04714989988133,188.41347999987192,188.41347999987192,188.41347999987192,188.41347999987192,188.41347999987192,188.41347999987192,188.41347999987192,188.41347999987192,188.41347999987192,22,1,[0.21748270001262426],[0.233298699837178],188.41347999987192,188.6136780998204,6.1,188.6136780998204,0,6.1,1,0,1000,num_1,2.108867200091481,,32,11,2026-03-12_16h05.45.944,2026A_exp2,2022.2.4,60.22329594033172,
1,0,6.1,3.7,0,0,52,52,26,,,,,190.7492074999027,191.38318470004015,191.38318470004015,191.88426960003562,45,315,191.88426960003562,191.88426960003562,191.88426960003562,191.88426960003562,191.88426960003562,191.88426960003562,191.88426960003562,191.88426960003562,191.88426960003562,192.25045989989303,192.25045989989303,192.25045989989303,192.25045989989303,192.25045989989303,192.25045989989303,192.25045989989303,192.25045989989303,192.25045989989303,20,3,"[0.03382060001604259, 0.20043860003352165, 0.36699389992281795]","[0.05098329996690154, 0.2168876000214368, 0.3669966000597924]",192.25045989989303,192.45070039993152,6.1,192.45070039993152,1,6.1,1,1,1000,num_4,0.40015730005688965,,32,11,2026-03-12_16h05.45.944,2026A_exp2,2022.2.4,60.22329594033172,
1000,1,0.0,3.7,1,0,53,53,80,,,,,192.86787769990042,193.50188859994523,193.50188859994523,194.0028307000175,45,45,194.0028307000175,194.0028307000175,194.0028307000175,194.0028307000175,194.0028307000175,194.0028307000175,194.0028307000175,194.0028307000175,194.0028307000175,194.36933659994975,194.36933659994975,194.36933659994975,194.36933659994975,194.36933659994975,194.36933659994975,194.36933659994975,194.36933659994975,194.36933659994975,7,3,"[0.0008239999879151583, 0.167189400177449, 0.31737480009905994]","[0.15051890001632273, 0.26727730012498796, 0.33410490001551807]",194.36933659994975,194.56964199990034,1000,194.56964199990034,1000,1000,1000,1000,1,num_2,0.5853639000561088,,32,11,2026-03-12_16h05.45.944,2026A_exp2,2022.2.4,60.22329594033172,
0,0,0.0,3.7,1,0,54,54,21,,,,,195.18710189987905,195.83747549983673,195.83747549983673,196.32208209997043,315,315,196.32208209997043,196.32208209997043,196.32208209997043,196.32208209997043,196.32208209997043,196.32208209997043,196.32208209997043,196.32208209997043,196.32208209997043,196.68859339994378,196.68859339994378,196.68859339994378,196.68859339994378,196.68859339994378,196.68859339994378,196.68859339994378,196.68859339994378,196.68859339994378,23,0,,,196.68859339994378,196.8884640999604,0.0,196.8884640999604,0,0.0,0,1,1000,num_1,0.6342759002000093,,32,11,2026-03-12_16h05.45.944,2026A_exp2,2022.2.4,60.22329594033172,
0,0,3.7,0.0,1,0,55,55,83,,,,,197.54027969995514,198.17351159988903,198.17351159988903,198.67447279999033,315,45,198.67447279999033,198.67447279999033,198.67447279999033,198.67447279999033,198.67447279999033,198.67447279999033,198.67447279999033,198.67447279999033,198.67447279999033,199.04088529990986,199.04088529990986,199.04088529990986,199.04088529990986,199.04088529990986,199.04088529990986,199.04088529990986,199.04088529990986,199.04088529990986,23,0,,,199.04088529990986,199.24098249990493,3.7,199.24098249990493,1,3.7,1,1,1000,num_4,0.6576309001538903,,32,11,2026-03-12_16h05.45.944,2026A_exp2,2022.2.4,60.22329594033172,
1000,1,4.9,0.0,1,0,56,56,25,,,,,199.92492929985747,200.5592539999634,200.5592539999634,201.06033749994822,315,315,201.06033749994822,201.06033749994822,201.06033749994822,201.06033749994822,201.06033749994822,201.06033749994822,201.06033749994822,201.06033749994822,201.06033749994822,201.42638890002854,201.42638890002854,201.42638890002854,201.42638890002854,201.42638890002854,201.42638890002854,201.42638890002854,201.42638890002854,201.42638890002854,23,0,,,201.42638890002854,201.62675069994293,1000,201.62675069994293,1000,1000,1000,1000,1,num_2,1.9437937999609858,,32,11,2026-03-12_16h05.45.944,2026A_exp2,2022.2.4,60.22329594033172,
1000,1,0.0,4.9,0,0,57,57,77,,,,,203.59545919997618,204.24575520004146,204.24575520004146,204.73091859999113,315,45,204.73091859999113,204.73091859999113,204.73091859999113,204.73091859999113,204.73091859999113,204.73091859999113,204.73091859999113,204.73091859999113,204.73091859999113,205.09689149982296,205.09689149982296,205.09689149982296,205.09689149982296,205.09689149982296,205.09689149982296,205.09689149982296,205.09689149982296,205.09689149982296,6,7,"[0.0007385001517832279, 0.08319120015949011, 0.11709480010904372, 0.15064090001396835, 0.20116790011525154, 0.26699430006556213, 0.3168777001556009]","[0.0662990000564605, 0.10006080009043217, 0.1335615001153201, 0.1847622999921441, 0.2500955001451075, 0.2999625999946147, 0.3666197001002729]",205.09689149982296,205.29772190004587,1000,205.29772190004587,1000,1000,1000,1000,1,num_2,0.32889720029197633,,32,11,2026-03-12_16h05.45.944,2026A_exp2,2022.2.4,60.22329594033172,
1,0,3.7,0.0,1,0,58,58,74,,,,,205.6472761000041,206.29795779986307,206.29795779986307,206.78281659982167,315,45,206.78281659982167,206.78281659982167,206.78281659982167,206.78281659982167,206.78281659982167,206.78281659982167,206.78281659982167,206.78281659982167,206.78281659982167,207.14888079999946,207.14888079999946,207.14888079999946,207.14888079999946,207.14888079999946,207.14888079999946,207.14888079999946,207.14888079999946,207.14888079999946,21,2,"[0.06558030005544424, 0.3327019999269396]","[0.0821610998827964, 0.34902750002220273]",207.14888079999946,207.34915669984184,0.0,207.34915669984184,0,0.0,0,1,1000,num_1,0.6702106001321226,,32,11,2026-03-12_16h05.45.944,2026A_exp2,2022.2.4,60.22329594033172,
1,0,4.9,4.9,1,0,59,59,89,,,,,208.0503286998719,208.7003712998703,208.7003712998703,209.1848650998436,315,315,209.1848650998436,209.1848650998436,209.1848650998436,209.1848650998436,209.1848650998436,209.1848650998436,209.1848650998436,209.1848650998436,209.1848650998436,209.5512220999226,209.5512220999226,209.5512220999226,209.5512220999226,209.5512220999226,209.5512220999226,209.5512220999226,209.5512220999226,209.5512220999226,23,0,,,209.5512220999226,209.75126419984736,4.9,209.75126419984736,1,4.9,1,1,1000,num_4,0.7556517000775784,,32,11,2026-03-12_16h05.45.944,2026A_exp2,2022.2.4,60.22329594033172,
1000,1,4.9,0.0,0,0,60,60,58,,,,,210.53555499995127,211.16936359996907,211.16936359996907,211.67061969987117,315,45,211.67061969987117,211.67061969987117,211.67061969987117,211.67061969987117,211.67061969987117,211.67061969987117,211.67061969987117,211.67061969987117,211.67061969987117,212.03703269991092,212.03703269991092,212.03703269991092,212.03703269991092,212.03703269991092,212.03703269991092,212.03703269991092,212.03703269991092,212.03703269991092,21,2,"[0.049726400058716536, 0.13290739990770817]","[0.0664663000497967, 0.14955709991045296]",212.03703269991092,212.23728969995864,1000,212.23728969995864,1000,1000,1000,1000,0,num_3,0.5896760001778603,,32,11,2026-03-12_16h05.45.944,2026A_exp2,2022.2.4,60.22329594033172,
1,0,0.0,0.0,1,0,61,61,73,,,,,212.85474279988557,213.5050669000484,213.5050669000484,213.98983939993195,45,45,213.98983939993195,213.98983939993195,213.98983939993195,213.98983939993195,213.98983939993195,213.98983939993195,213.98983939993195,213.98983939993195,213.98983939993195,214.3561902998481,214.3561902998481,214.3561902998481,214.3561902998481,214.3561902998481,214.3561902998481,214.3561902998481,214.3561902998481,214.3561902998481,15,2,"[0.0007328998763114214, 0.2339576999656856]","[0.0842525998596102, 0.28390059992671013]",214.3561902998481,214.556303499965,0.0,214.556303499965,0,0.0,0,1,1000,num_1,0.9112258001696318,,32,11,2026-03-12_16h05.45.944,2026A_exp2,2022.2.4,60.22329594033172,
1,0,0.0,0.0,0,0,62,62,2,,,,,215.49048599996604,216.12458459986374,216.12458459986374,216.6256303000264,45,45,216.6256303000264,216.6256303000264,216.6256303000264,216.6256303000264,216.6256303000264,216.6256303000264,216.6256303000264,216.6256303000264,216.6256303000264,216.99203239986673,216.99203239986673,216.99203239986673,216.99203239986673,216.99203239986673,216.99203239986673,216.99203239986673,216.99203239986673,216.99203239986673,23,0,,,216.99203239986673,217.19226399995387,0.0,217.19226399995387,0,0.0,0,1,1000,num_1,1.115191400051117,,32,11,2026-03-12_16h05.45.944,2026A_exp2,2022.2.4,60.22329594033172,
1000,1,0.0,3.7,0,0,63,63,52,,,,,218.32689739996567,218.97730649984442,218.97730649984442,219.47842159983702,45,45,219.47842159983702,219.47842159983702,219.47842159983702,219.47842159983702,219.47842159983702,219.47842159983702,219.47842159983702,219.47842159983702,219.47842159983702,219.8446792999748,219.8446792999748,219.8446792999748,219.8446792999748,219.8446792999748,219.8446792999748,219.8446792999748,219.8446792999748,219.8446792999748,17,5,"[0.0007550001610070467, 0.034657200099900365, 0.0836752001196146, 0.13356430013664067, 0.20093920012004673]","[0.017433400033041835, 0.05091680004261434, 0.10031610005535185, 0.15048950002528727, 0.23382190009579062]",219.8446792999748,220.04514970001765,1000,220.04514970001765,1000,1000,1000,1000,1,num_2,0.7658675001002848,,32,11,2026-03-12_16h05.45.944,2026A_exp2,2022.2.4,60.22329594033172,
1000,1,4.9,4.9,0,0,64,64,31,,,,,220.82944719982333,221.47966309986077,221.47966309986077,221.96446709986776,45,45,221.96446709986776,221.96446709986776,221.96446709986776,221.96446709986776,221.96446709986776,221.96446709986776,221.96446709986776,221.96446709986776,221.96446709986776,222.33084039995447,222.33084039995447,222.33084039995447,222.33084039995447,222.33084039995447,222.33084039995447,222.33084039995447,222.33084039995447,222.33084039995447,23,0,,,222.33084039995447,222.5313768000342,1000,222.5313768000342,1000,1000,1000,1000,0,num_3,1.1679780001286417,,32,11,2026-03-12_16h05.45.944,2026A_exp2,2022.2.4,60.22329594033172,
1,0,0.0,3.7,0,0,65,65,78,,,,,223.7153894000221,224.3660676998552,224.3660676998552,224.85179389989935,315,45,224.85179389989935,224.85179389989935,224.85179389989935,224.85179389989935,224.85179389989935,224.85179389989935,224.85179389989935,224.85179389989935,224.85179389989935,225.21703209984116,225.21703209984116,225.21703209984116,225.21703209984116,225.21703209984116,225.21703209984116,225.21703209984116,225.21703209984116,225.21703209984116,18,3,"[0.04985480010509491, 0.13327100011520088, 0.30008199997246265]","[0.06663529993966222, 0.16651599993929267, 0.33339740009978414]",225.21703209984116,225.41706889984198,0.0,225.41706889984198,0,0.0,0,1,1000,num_1,0.5859931001905352,,32,11,2026-03-12_16h05.45.944,2026A_exp2,2022.2.4,60.22329594033172,
1000,1,0.0,6.1,1,0,66,66,88,,,,,226.03432979993522,226.6684744998347,226.6684744998347,227.16973880003206,45,45,227.16973880003206,227.16973880003206,227.16973880003206,227.16973880003206,227.16973880003206,227.16973880003206,227.16973880003206,227.16973880003206,227.16973880003206,227.5358050998766,227.5358050998766,227.5358050998766,227.5358050998766,227.5358050998766,227.5358050998766,227.5358050998766,227.5358050998766,227.5358050998766,23,0,,,227.5358050998766,227.7360455999151,1000,227.7360455999151,1000,1000,1000,1000,1,num_2,0.5228780000470579,,32,11,2026-03-12_16h05.45.944,2026A_exp2,2022.2.4,60.22329594033172,
1000,1,3.7,0.0,1,0,67,67,79,,,,,228.2865905999206,228.93722139997408,228.93722139997408,229.4221155999694,315,315,229.4221155999694,229.4221155999694,229.4221155999694,229.4221155999694,229.4221155999694,229.4221155999694,229.4221155999694,229.4221155999694,229.4221155999694,229.7881560998503,229.7881560998503,229.7881560998503,229.7881560998503,229.7881560998503,229.7881560998503,229.7881560998503,229.7881560998503,229.7881560998503,23,0,,,229.7881560998503,229.98860009992495,1000,229.98860009992495,1000,1000,1000,1000,0,num_3,1.117948800092563,,32,11,2026-03-12_16h05.45.944,2026A_exp2,2022.2.4,60.22329594033172,
1,0,0.0,3.7,0,0,68,68,12,,,,,231.1231245000381,231.77360889990814,231.77360889990814,232.27456999989226,315,315,232.27456999989226,232.27456999989226,232.27456999989226,232.27456999989226,232.27456999989226,232.27456999989226,232.27456999989226,232.27456999989226,232.27456999989226,232.6409537999425,232.6409537999425,232.6409537999425,232.6409537999425,232.6409537999425,232.6409537999425,232.6409537999425,232.6409537999425,232.6409537999425,21,1,[0.0007104999385774136],[0.03366780001670122],232.6409537999425,232.84118200000376,0.0,232.84118200000376,0,0.0,0,1,1000,num_1,0.5373260001651943,,32,11,2026-03-12_16h05.45.944,2026A_exp2,2022.2.4,60.22329594033172,
1,0,0.0,4.9,0,0,69,69,17,,,,,233.4084283998236,234.04310989985242,234.04310989985242,234.54366749990731,315,45,234.54366749990731,234.54366749990731,234.54366749990731,234.54366749990731,234.54366749990731,234.54366749990731,234.54366749990731,234.54366749990731,234.54366749990731,234.9105473998934,234.9105473998934,234.9105473998934,234.9105473998934,234.9105473998934,234.9105473998934,234.9105473998934,234.9105473998934,234.9105473998934,18,3,"[0.0008309001568704844, 0.30042550014331937, 0.33446849999018013]","[0.01749320002272725, 0.3175737999845296, 0.3675743001513183]",234.9105473998934,235.11147059989162,0.0,235.11147059989162,0,0.0,0,1,1000,num_1,0.4911839999258518,,32,11,2026-03-12_16h05.45.944,2026A_exp2,2022.2.4,60.22329594033172,
1,0,0.0,0.0,1,0,70,70,70,,,,,235.62739299982786,236.26135799987242,236.26135799987242,236.76268459996209,45,45,236.76268459996209,236.76268459996209,236.76268459996209,236.76268459996209,236.76268459996209,236.76268459996209,236.76268459996209,236.76268459996209,236.76268459996209,237.12882129987702,237.12882129987702,237.12882129987702,237.12882129987702,237.12882129987702,237.12882129987702,237.12882129987702,237.12882129987702,237.12882129987702,23,0,,,237.12882129987702,237.32903449982405,0.0,237.32903449982405,1,0.0,0,0,1000,num_4,0.30601050006225705,,32,11,2026-03-12_16h05.45.944,2026A_exp2,2022.2.4,60.22329594033172,
1,0,0.0,0.0,1,0,71,71,41,,,,,237.66262319986708,238.29666400002316,238.29666400002316,238.79798559984192,45,45,238.79798559984192,238.79798559984192,238.79798559984192,238.79798559984192,238.79798559984192,238.79798559984192,238.79798559984192,238.79798559984192,238.79798559984192,239.16423180000857,239.16423180000857,239.16423180000857,239.16423180000857,239.16423180000857,239.16423180000857,239.16423180000857,239.16423180000857,239.16423180000857,5,4,"[0.0348857999779284, 0.10019170003943145, 0.2001313001383096, 0.2501839001197368]","[0.0838522999547422, 0.18328300002031028, 0.23416019999422133, 0.36698719998821616]",239.16423180000857,239.36431519989856,0.0,239.36431519989856,0,0.0,0,1,1000,num_1,0.542389600072056,,32,11,2026-03-12_16h05.45.944,2026A_exp2,2022.2.4,60.22329594033172,
1,0,0.0,4.9,0,0,72,72,85,,,,,239.9316612998955,240.56558099994436,240.56558099994436,241.06701929983683,45,45,241.06701929983683,241.06701929983683,241.06701929983683,241.06701929983683,241.06701929983683,241.06701929983683,241.06701929983683,241.06701929983683,241.06701929983683,241.43322899984196,241.43322899984196,241.43322899984196,241.43322899984196,241.43322899984196,241.43322899984196,241.43322899984196,241.43322899984196,241.43322899984196,17,4,"[0.033688200172036886, 0.06709600007161498, 0.1508121001534164, 0.2508094999939203]","[0.05057770013809204, 0.11732279998250306, 0.16703330003656447, 0.2674080999568105]",241.43322899984196,241.63330430001952,0.0,241.63330430001952,0,0.0,0,1,1000,num_1,0.7216112001333386,,32,11,2026-03-12_16h05.45.944,2026A_exp2,2022.2.4,60.22329594033172,
1000,1,0.0,0.0,1,0,73,73,7,,,,,242.38408949994482,243.01800409983844,243.01800409983844,243.5194530999288,315,45,243.5194530999288,243.5194530999288,243.5194530999288,243.5194530999288,243.5194530999288,243.5194530999288,243.5194530999288,243.5194530999288,243.5194530999288,243.88586529996246,243.88586529996246,243.88586529996246,243.88586529996246,243.88586529996246,243.88586529996246,243.88586529996246,243.88586529996246,243.88586529996246,21,1,[0.13373320014216006],[0.1673120001796633],243.88586529996246,244.08586729993112,1000,244.08586729993112,1000,1000,1000,1000,0,num_3,0.6533862999640405,,32,11,2026-03-12_16h05.45.944,2026A_exp2,2022.2.4,60.22329594033172,
1000,1,6.1,3.7,1,0,74,74,0,,,,,244.7699182999786,245.42045439989306,245.42045439989306,245.90515619982034,315,45,245.90515619982034,245.90515619982034,245.90515619982034,245.90515619982034,245.90515619982034,245.90515619982034,245.90515619982034,245.90515619982034,245.90515619982034,246.27123329997994,246.27123329997994,246.27123329997994,246.27123329997994,246.27123329997994,246.27123329997994,246.27123329997994,246.27123329997994,246.27123329997994,4,2,"[0.0007134999614208937, 0.31703900010325015]","[0.30039030010811985, 0.33375140000134706]",246.27123329997994,246.47170379990712,1000,246.47170379990712,1000,1000,1000,1000,0,num_3,0.475285799941048,,32,11,2026-03-12_16h05.45.944,2026A_exp2,2022.2.4,60.22329594033172,
1,0,4.9,4.9,0,0,75,75,63,,,,,246.97218549996614,247.60609499993734,247.60609499993734,248.10715209995396,45,45,248.10715209995396,248.10715209995396,248.10715209995396,248.10715209995396,248.10715209995396,248.10715209995396,248.10715209995396,248.10715209995396,248.10715209995396,248.4735177999828,248.4735177999828,248.4735177999828,248.4735177999828,248.4735177999828,248.4735177999828,248.4735177999828,248.4735177999828,248.4735177999828,15,1,[0.25036070006899536],[0.3671220999676734],248.4735177999828,248.6742149000056,4.9,248.6742149000056,1,4.9,1,1,1000,num_4,0.6890320000238717,,32,11,2026-03-12_16h05.45.944,2026A_exp2,2022.2.4,60.22329594033172,
1000,1,6.1,4.9,1,0,76,76,16,,,,,249.39150449982844,250.02511899988167,250.02511899988167,250.526217199862,315,45,250.526217199862,250.526217199862,250.526217199862,250.526217199862,250.526217199862,250.526217199862,250.526217199862,250.526217199862,250.526217199862,250.89254899998195,250.89254899998195,250.89254899998195,250.89254899998195,250.89254899998195,250.89254899998195,250.89254899998195,250.89254899998195,250.89254899998195,23,0,,,250.89254899998195,251.09526079986244,1000,251.09526079986244,1000,1000,1000,1000,1,num_2,0.4514048001728952,,32,11,2026-03-12_16h05.45.944,2026A_exp2,2022.2.4,60.22329594033172,
1,0,0.0,6.1,0,0,77,77,5,,,,,251.57683869986795,252.22756140003912,252.22756140003912,252.72857160004787,315,45,252.72857160004787,252.72857160004787,252.72857160004787,252.72857160004787,252.72857160004787,252.72857160004787,252.72857160004787,252.72857160004787,252.72857160004787,253.09509709989652,253.09509709989652,253.09509709989652,253.09509709989652,253.09509709989652,253.09509709989652,253.09509709989652,253.09509709989652,253.09509709989652,4,4,"[0.0012012999504804611, 0.05022869980894029, 0.13373389979824424, 0.18390419986099005]","[0.03364239982329309, 0.10029009985737503, 0.1671207998879254, 0.36733139981515706]",253.09509709989652,253.29517109994777,0.0,253.29517109994777,0,0.0,0,1,1000,num_1,0.5879784002900124,,32,11,2026-03-12_16h05.45.944,2026A_exp2,2022.2.4,60.22329594033172,
1000,1,6.1,0.0,1,0,78,78,60,,,,,253.91242129984312,254.56314409989864,254.56314409989864,255.0477833999321,315,315,255.0477833999321,255.0477833999321,255.0477833999321,255.0477833999321,255.0477833999321,255.0477833999321,255.0477833999321,255.0477833999321,255.0477833999321,255.41391999996267,255.41391999996267,255.41391999996267,255.41391999996267,255.41391999996267,255.41391999996267,255.41391999996267,255.41391999996267,255.41391999996267,23,0,,,255.41391999996267,255.6161592998542,1000,255.6161592998542,1000,1000,1000,1000,0,num_3,0.45982340001501143,,32,11,2026-03-12_16h05.45.944,2026A_exp2,2022.2.4,60.22329594033172,
1000,1,6.1,3.7,1,0,79,79,24,,,,,256.09799299994484,256.7486246000044,256.7486246000044,257.24969199998304,45,45,257.24969199998304,257.24969199998304,257.24969199998304,257.24969199998304,257.24969199998304,257.24969199998304,257.24969199998304,257.24969199998304,257.24969199998304,257.6163208000362,257.6163208000362,257.6163208000362,257.6163208000362,257.6163208000362,257.6163208000362,257.6163208000362,257.6163208000362,257.6163208000362,23,0,,,257.6163208000362,257.81866610003635,1000,257.81866610003635,1000,1000,1000,1000,0,num_3,0.6479165002238005,,32,11,2026-03-12_16h05.45.944,2026A_exp2,2022.2.4,60.22329594033172,
1000,1,0.0,0.0,1,0,80,80,47,,,,,258.48369779996574,259.1345128000248,259.1345128000248,259.6355908999685,45,45,259.6355908999685,259.6355908999685,259.6355908999685,259.6355908999685,259.6355908999685,259.6355908999685,259.6355908999685,259.6355908999685,259.6355908999685,260.00196160003543,260.00196160003543,260.00196160003543,260.00196160003543,260.00196160003543,260.00196160003543,260.00196160003543,260.00196160003543,260.00196160003543,23,0,,,260.00196160003543,260.20402990002185,1000,260.20402990002185,1000,1000,1000,1000,0,num_3,0.6068940002005547,,32,11,2026-03-12_16h05.45.944,2026A_exp2,2022.2.4,60.22329594033172,
1,0,0.0,0.0,0,0,81,81,59,,,,,260.83633890002966,261.48676979984157,261.48676979984157,261.98791839997284,45,45,261.98791839997284,261.98791839997284,261.98791839997284,261.98791839997284,261.98791839997284,261.98791839997284,261.98791839997284,261.98791839997284,261.98791839997284,262.3543859999627,262.3543859999627,262.3543859999627,262.3543859999627,262.3543859999627,262.3543859999627,262.3543859999627,262.3543859999627,262.3543859999627,1,1,[0.0012151999399065971],[0.36737870005890727],262.3543859999627,262.55452460004017,0.0,262.55452460004017,1,0.0,0,0,1000,num_4,0.7695046002045274,,32,11,2026-03-12_16h05.45.944,2026A_exp2,2022.2.4,60.22329594033172,
1,0,4.9,0.0,1,0,82,82,4,,,,,263.35525409993716,264.0061003998853,264.0061003998853,264.4904982999433,315,45,264.4904982999433,264.4904982999433,264.4904982999433,264.4904982999433,264.4904982999433,264.4904982999433,264.4904982999433,264.4904982999433,264.4904982999433,264.8573912999127,264.8573912999127,264.8573912999127,264.8573912999127,264.8573912999127,264.8573912999127,264.8573912999127,264.8573912999127,264.8573912999127,21,2,"[0.0007116999477148056, 0.36723250010982156]","[0.017352000111714005, 0.36723520001396537]",264.8573912999127,265.0573416999541,0.0,265.0573416999541,0,0.0,0,1,1000,num_1,1.049402000149712,,32,11,2026-03-12_16h05.45.944,2026A_exp2,2022.2.4,60.22329594033172,
1,0,4.9,0.0,1,0,83,83,84,,,,,266.12459669983946,266.775395500008,266.775395500008,267.2600348999258,315,45,267.2600348999258,267.2600348999258,267.2600348999258,267.2600348999258,267.2600348999258,267.2600348999258,267.2600348999258,267.2600348999258,267.2600348999258,267.6262977998704,267.6262977998704,267.6262977998704,267.6262977998704,267.6262977998704,267.6262977998704,267.6262977998704,267.6262977998704,267.6262977998704,15,1,[0.18380369991064072],[0.3173197000287473],267.6262977998704,267.82646689983085,0.0,267.82646689983085,0,0.0,0,1,1000,num_1,0.577419700101018,,32,11,2026-03-12_16h05.45.944,2026A_exp2,2022.2.4,60.22329594033172,
1,0,0.0,0.0,1,0,84,84,43,,,,,268.42696219985373,269.0777030000463,269.0777030000463,269.56209110002965,315,315,269.56209110002965,269.56209110002965,269.56209110002965,269.56209110002965,269.56209110002965,269.56209110002965,269.56209110002965,269.56209110002965,269.56209110002965,269.9285158000421,269.9285158000421,269.9285158000421,269.9285158000421,269.9285158000421,269.9285158000421,269.9285158000421,269.9285158000421,269.9285158000421,4,4,"[0.01728589995764196, 0.10028790007345378, 0.13356290012598038, 0.16695769992657006]","[0.08369989995844662, 0.11706429999321699, 0.15025350009091198, 0.3667909000068903]",269.9285158000421,270.1286738999188,0.0,270.1286738999188,1,0.0,0,0,1000,num_4,0.6339290000032634,,32,11,2026-03-12_16h05.45.944,2026A_exp2,2022.2.4,60.22329594033172,
1,0,0.0,0.0,0,0,85,85,64,,,,,270.7792678999249,271.430065699853,271.430065699853,271.91470089997165,45,45,271.91470089997165,271.91470089997165,271.91470089997165,271.91470089997165,271.91470089997165,271.91470089997165,271.91470089997165,271.91470089997165,271.91470089997165,272.28089749999344,272.28089749999344,272.28089749999344,272.28089749999344,272.28089749999344,272.28089749999344,272.28089749999344,272.28089749999344,272.28089749999344,21,2,"[0.06680329982191324, 0.21701269992627203]","[0.0834815998096019, 0.2337759998627007]",272.28089749999344,272.48098759981804,0.0,272.48098759981804,1,0.0,0,0,1000,num_4,0.5619334001094103,,32,11,2026-03-12_16h05.45.944,2026A_exp2,2022.2.4,60.22329594033172,
1,0,4.9,6.1,0,0,86,86,15,,,,,273.0648894000333,273.71563480002806,273.71563480002806,274.2001475999132,315,315,274.2001475999132,274.2001475999132,274.2001475999132,274.2001475999132,274.2001475999132,274.2001475999132,274.2001475999132,274.2001475999132,274.2001475999132,274.56648419983685,274.56648419983685,274.56648419983685,274.56648419983685,274.56648419983685,274.56648419983685,274.56648419983685,274.56648419983685,274.56648419983685,18,1,[0.0012503000907599926],[0.08359980001114309],274.56648419983685,274.7664269998204,4.9,274.7664269998204,0,4.9,1,0,1000,num_1,0.4692598001565784,,32,11,2026-03-12_16h05.45.944,2026A_exp2,2022.2.4,60.22329594033172,
1000,1,4.9,0.0,1,0,87,87,72,,,,,275.26714070001617,275.91791999991983,275.91791999991983,276.40215159999207,315,315,276.40215159999207,276.40215159999207,276.40215159999207,276.40215159999207,276.40215159999207,276.40215159999207,276.40215159999207,276.40215159999207,276.40215159999207,276.7686395000201,276.7686395000201,276.7686395000201,276.7686395000201,276.7686395000201,276.7686395000201,276.7686395000201,276.7686395000201,276.7686395000201,23,0,,,276.7686395000201,276.9707307999488,1000,276.9707307999488,1000,1000,1000,1000,0,num_3,0.3844933002255857,,32,11,2026-03-12_16h05.45.944,2026A_exp2,2022.2.4,60.22329594033172,
1,0,0.0,3.7,1,0,88,88,57,,,,,277.38614870002493,278.03663109987974,278.03663109987974,278.53788960003294,315,45,278.53788960003294,278.53788960003294,278.53788960003294,278.53788960003294,278.53788960003294,278.53788960003294,278.53788960003294,278.53788960003294,278.53788960003294,278.90429860004224,278.90429860004224,278.90429860004224,278.90429860004224,278.90429860004224,278.90429860004224,278.90429860004224,278.90429860004224,278.90429860004224,23,0,,,278.90429860004224,279.1043576998636,3.7,279.1043576998636,1,3.7,1,1,1000,num_4,0.44303850014694035,,32,11,2026-03-12_16h05.45.944,2026A_exp2,2022.2.4,60.22329594033172,
1,0,3.7,4.9,1,0,89,89,39,,,,,279.57157099992037,280.22204939997755,280.22204939997755,280.7063990999013,45,315,280.7063990999013,280.7063990999013,280.7063990999013,280.7063990999013,280.7063990999013,280.7063990999013,280.7063990999013,280.7063990999013,280.7063990999013,281.07306830002926,281.07306830002926,281.07306830002926,281.07306830002926,281.07306830002926,281.07306830002926,281.07306830002926,281.07306830002926,281.07306830002926,23,0,,,281.07306830002926,281.2733519000467,4.9,281.2733519000467,1,4.9,1,1,1000,num_4,0.37847320013679564,,32,11,2026-03-12_16h05.45.944,2026A_exp2,2022.2.4,60.22329594033172,
,,,,,,,,,,,,,,,,,,,,,,,,,,,,,,,,,,,,,,,,,,,,,,,,,,,,281.6834894998465,,,,,,,
