validity,detectorcomp,contrastCW,contrastCCW,precueCWorCCW,block_80trials.thisRepN,block_80trials.thisTrialN,block_80trials.thisN,block_80trials.thisIndex,etRecord.started,etRecord.stopped,text.started,text.stopped,text_4.started,text_4.stopped,text_6.started,text_6.stopped,oriCW,oriCCW,roi_2.started,grating_UR.started,grating_UL.started,grating_LR.started,grating_LL.started,noise_UR.started,noise_UL.started,noise_LR.started,noise_LL.started,roi_2.stopped,grating_UR.stopped,grating_UL.stopped,grating_LR.stopped,grating_LL.stopped,noise_UR.stopped,noise_UL.stopped,noise_LR.stopped,noise_LL.stopped,outframe,roi_2.numLooks,roi_2.timesOn,roi_2.timesOff,text_2.started,text_2.stopped,probedcontrast,key_resp.started,respdetect,relevantContrast,correctDetect,TorFdetect,respCWorCCW,key_resp.keys,key_resp.rt,feedback_display_.started,participantNo,blockNo,date,expName,psychopyVersion,frameRate,
1,0,4.9,3.7,0,0,0,0,44,3.409999771974981e-05,3.409999771974981e-05,72.00815059998422,74.01276909999433,74.01276909999433,74.64417610000237,74.64417610000237,75.16229300000123,45,315,75.16229300000123,75.16229300000123,75.16229300000123,75.16229300000123,75.16229300000123,75.16229300000123,75.16229300000123,75.16229300000123,75.16229300000123,75.51214859998436,75.51214859998436,75.51214859998436,75.51214859998436,75.51214859998436,75.51214859998436,75.51214859998436,75.51214859998436,75.51214859998436,0,1,[0.0009295000054407865],[0.3673273000167683],75.51214859998436,75.71216510000522,4.9,75.71216510000522,1,4.9,1,1,1000,num_4,2.2524677999899723,,21,4,2026-03-02_17h33.34.523,2026A_exp2,2022.2.4,59.803032731896955,
1,0,6.1,0.0,1,0,1,1,89,,,,,77.98133989999769,78.6319234999828,78.6319234999828,79.11632100000861,45,315,79.11632100000861,79.11632100000861,79.11632100000861,79.11632100000861,79.11632100000861,79.11632100000861,79.11632100000861,79.11632100000861,79.11632100000861,79.48273859999608,79.48273859999608,79.48273859999608,79.48273859999608,79.48273859999608,79.48273859999608,79.48273859999608,79.48273859999608,79.48273859999608,0,1,[0.0012197000032756478],[0.36713999998755753],79.48273859999608,79.68265519998386,0.0,79.68265519998386,0,0.0,0,1,1000,num_1,1.1536122999968939,,21,4,2026-03-02_17h33.34.523,2026A_exp2,2022.2.4,59.803032731896955,
1,0,3.7,0.0,0,0,2,2,87,,,,,80.86777069998789,81.50116149999667,81.50116149999667,82.00328649999574,45,45,82.00328649999574,82.00328649999574,82.00328649999574,82.00328649999574,82.00328649999574,82.00328649999574,82.00328649999574,82.00328649999574,82.00328649999574,82.36930039999424,82.36930039999424,82.36930039999424,82.36930039999424,82.36930039999424,82.36930039999424,82.36930039999424,82.36930039999424,82.36930039999424,0,1,[0.0007523999956902117],[0.36759880001773126],82.36930039999424,82.56894319999265,3.7,82.56894319999265,1,3.7,1,1,1000,num_4,0.9231601000064984,,21,4,2026-03-02_17h33.34.523,2026A_exp2,2022.2.4,59.803032731896955,
1,0,0.0,3.7,1,0,3,3,14,,,,,83.5200557000062,84.15446580000571,84.15446580000571,84.65482510000584,315,45,84.65482510000584,84.65482510000584,84.65482510000584,84.65482510000584,84.65482510000584,84.65482510000584,84.65482510000584,84.65482510000584,84.65482510000584,85.02120329998434,85.02120329998434,85.02120329998434,85.02120329998434,85.02120329998434,85.02120329998434,85.02120329998434,85.02120329998434,85.02120329998434,0,1,[0.000744799996027723],[0.3671596999920439],85.02120329998434,85.22133800000302,3.7,85.22133800000302,0,3.7,1,0,1000,num_1,3.751192199997604,,21,4,2026-03-02_17h33.34.523,2026A_exp2,2022.2.4,59.803032731896955,
1,0,0.0,3.7,1,0,4,4,35,,,,,88.99214079999365,89.6428815999825,89.6428815999825,90.12730709998868,315,315,90.12730709998868,90.12730709998868,90.12730709998868,90.12730709998868,90.12730709998868,90.12730709998868,90.12730709998868,90.12730709998868,90.12730709998868,90.49368250000407,90.49368250000407,90.49368250000407,90.49368250000407,90.49368250000407,90.49368250000407,90.49368250000407,90.49368250000407,90.49368250000407,0,1,[0.001292400003876537],[0.3671455000003334],90.49368250000407,90.69386589998612,3.7,90.69386589998612,0,3.7,1,0,1000,num_1,1.5988315000140574,,21,4,2026-03-02_17h33.34.523,2026A_exp2,2022.2.4,59.803032731896955,
1,0,0.0,6.1,1,0,5,5,31,,,,,92.31222749999142,92.96294090000447,92.96294090000447,93.4472606999916,45,45,93.4472606999916,93.4472606999916,93.4472606999916,93.4472606999916,93.4472606999916,93.4472606999916,93.4472606999916,93.4472606999916,93.4472606999916,93.81364259999827,93.81364259999827,93.81364259999827,93.81364259999827,93.81364259999827,93.81364259999827,93.81364259999827,93.81364259999827,93.81364259999827,0,1,[0.0012186000240035355],[0.3672124000149779],93.81364259999827,94.01388529999531,6.1,94.01388529999531,1,6.1,1,1,1000,num_4,0.4791125000047032,,21,4,2026-03-02_17h33.34.523,2026A_exp2,2022.2.4,59.803032731896955,
1000,1,0.0,0.0,0,0,6,6,86,,,,,94.51422199999797,95.16507160000037,95.16507160000037,95.64951339998515,45,315,95.64951339998515,95.64951339998515,95.64951339998515,95.64951339998515,95.64951339998515,95.64951339998515,95.64951339998515,95.64951339998515,95.64951339998515,96.01593550000689,96.01593550000689,96.01593550000689,96.01593550000689,96.01593550000689,96.01593550000689,96.01593550000689,96.01593550000689,96.01593550000689,0,1,[0.0012199000047985464],[0.36730299997725524],96.01593550000689,96.21612170001026,1000,96.21612170001026,1000,1000,1000,1000,1,num_2,1.0042341999942437,,21,4,2026-03-02_17h33.34.523,2026A_exp2,2022.2.4,59.803032731896955,
1000,1,0.0,4.9,0,0,7,7,26,,,,,97.25042100000428,97.90120259998366,97.90120259998366,98.4022493000084,315,45,98.4022493000084,98.4022493000084,98.4022493000084,98.4022493000084,98.4022493000084,98.4022493000084,98.4022493000084,98.4022493000084,98.4022493000084,98.76861569998437,98.76861569998437,98.76861569998437,98.76861569998437,98.76861569998437,98.76861569998437,98.76861569998437,98.76861569998437,98.76861569998437,0,1,[0.001218899997184053],[0.3676080000004731],98.76861569998437,98.97110460000113,1000,98.97110460000113,1000,1000,1000,1000,1,num_2,0.8253939999849536,,21,4,2026-03-02_17h33.34.523,2026A_exp2,2022.2.4,59.803032731896955,
1,0,3.7,4.9,1,0,8,8,20,,,,,99.81958859998849,100.47024979998241,100.47024979998241,100.97132620000048,315,45,100.97132620000048,100.97132620000048,100.97132620000048,100.97132620000048,100.97132620000048,100.97132620000048,100.97132620000048,100.97132620000048,100.97132620000048,101.33779160000267,101.33779160000267,101.33779160000267,101.33779160000267,101.33779160000267,101.33779160000267,101.33779160000267,101.33779160000267,101.33779160000267,0,1,[0.0012214999878779054],[0.3671590999874752],101.33779160000267,101.5378389999969,4.9,101.5378389999969,1,4.9,1,1,1000,num_4,3.570070100016892,,21,4,2026-03-02_17h33.34.523,2026A_exp2,2022.2.4,59.803032731896955,
1,0,6.1,4.9,1,0,9,9,64,,,,,105.12499320000643,105.7755988999852,105.7755988999852,106.2600633999973,315,45,106.2600633999973,106.2600633999973,106.2600633999973,106.2600633999973,106.2600633999973,106.2600633999973,106.2600633999973,106.2600633999973,106.2600633999973,106.62648400000762,106.62648400000762,106.62648400000762,106.62648400000762,106.62648400000762,106.62648400000762,106.62648400000762,106.62648400000762,106.62648400000762,0,1,[0.0012281000090297312],[0.36720650002826005],106.62648400000762,106.82655800000066,4.9,106.82655800000066,0,4.9,1,0,1000,num_1,1.3059883999812882,,21,4,2026-03-02_17h33.34.523,2026A_exp2,2022.2.4,59.803032731896955,
1000,1,4.9,0.0,0,0,10,10,41,,,,,108.16130469998461,108.81198490000679,108.81198490000679,109.29638270000578,315,45,109.29638270000578,109.29638270000578,109.29638270000578,109.29638270000578,109.29638270000578,109.29638270000578,109.29638270000578,109.29638270000578,109.29638270000578,109.662782600004,109.662782600004,109.662782600004,109.662782600004,109.662782600004,109.662782600004,109.662782600004,109.662782600004,109.662782600004,0,1,[0.0014774000155739486],[0.3672002000093926],109.662782600004,109.86311109998496,1000,109.86311109998496,1000,1000,1000,1000,0,num_3,0.644927799992729,,21,4,2026-03-02_17h33.34.523,2026A_exp2,2022.2.4,59.803032731896955,
0,0,6.1,4.9,0,0,11,11,22,,,,,110.5304111999867,111.18111109998426,111.18111109998426,111.68210159998853,315,315,111.68210159998853,111.68210159998853,111.68210159998853,111.68210159998853,111.68210159998853,111.68210159998853,111.68210159998853,111.68210159998853,111.68210159998853,112.04861219998566,112.04861219998566,112.04861219998566,112.04861219998566,112.04861219998566,112.04861219998566,112.04861219998566,112.04861219998566,112.04861219998566,0,1,[0.00127269999939017],[0.367168099997798],112.04861219998566,112.24867440000526,4.9,112.24867440000526,1,4.9,1,1,1000,num_4,1.6437704999989364,,21,4,2026-03-02_17h33.34.523,2026A_exp2,2022.2.4,59.803032731896955,
0,0,6.1,0.0,0,0,12,12,74,,,,,113.91699500000686,114.56778449998819,114.56778449998819,115.0522415000014,45,315,115.0522415000014,115.0522415000014,115.0522415000014,115.0522415000014,115.0522415000014,115.0522415000014,115.0522415000014,115.0522415000014,115.0522415000014,115.41862829998718,115.41862829998718,115.41862829998718,115.41862829998718,115.41862829998718,115.41862829998718,115.41862829998718,115.41862829998718,115.41862829998718,0,1,[0.0012140000180806965],[0.36711900000227615],115.41862829998718,115.6187651999935,0.0,115.6187651999935,0,0.0,0,1,1000,num_1,1.0491004000068642,,21,4,2026-03-02_17h33.34.523,2026A_exp2,2022.2.4,59.803032731896955,
1000,1,0.0,0.0,1,0,13,13,85,,,,,116.68647549999878,117.3372076000087,117.3372076000087,117.83821359998547,315,45,117.83821359998547,117.83821359998547,117.83821359998547,117.83821359998547,117.83821359998547,117.83821359998547,117.83821359998547,117.83821359998547,117.83821359998547,118.1881630999851,118.1881630999851,118.1881630999851,118.1881630999851,118.1881630999851,118.1881630999851,118.1881630999851,118.1881630999851,118.1881630999851,0,1,[0.0012941000168211758],[0.3503565000137314],118.1881630999851,118.39020699998946,1000,118.39020699998946,1000,1000,1000,1000,0,num_3,0.8702295999974012,,21,4,2026-03-02_17h33.34.523,2026A_exp2,2022.2.4,59.803032731896955,
1000,1,6.1,0.0,0,0,14,14,81,,,,,119.28906139999162,119.93994670000393,119.93994670000393,120.44090290000895,45,45,120.44090290000895,120.44090290000895,120.44090290000895,120.44090290000895,120.44090290000895,120.44090290000895,120.44090290000895,120.44090290000895,120.44090290000895,120.80732759999228,120.80732759999228,120.80732759999228,120.80732759999228,120.80732759999228,120.80732759999228,120.80732759999228,120.80732759999228,120.80732759999228,0,1,[0.0012946999922860414],[0.3671347000054084],120.80732759999228,121.00955640000757,1000,121.00955640000757,1000,1000,1000,1000,0,num_3,0.5949626000074204,,21,4,2026-03-02_17h33.34.523,2026A_exp2,2022.2.4,59.803032731896955,
1000,1,4.9,3.7,0,0,15,15,40,,,,,121.62470710001071,122.27554659999441,122.27554659999441,122.77658169998904,315,45,122.77658169998904,122.77658169998904,122.77658169998904,122.77658169998904,122.77658169998904,122.77658169998904,122.77658169998904,122.77658169998904,122.77658169998904,123.14295969999512,123.14295969999512,123.14295969999512,123.14295969999512,123.14295969999512,123.14295969999512,123.14295969999512,123.14295969999512,123.14295969999512,1,2,"[0.0012980999890714884, 0.2670886999985669]","[0.2503488000074867, 0.3668570999871008]",123.14295969999512,123.34500080000726,1000,123.34500080000726,1000,1000,1000,1000,0,num_3,0.4910731999843847,,21,4,2026-03-02_17h33.34.523,2026A_exp2,2022.2.4,59.803032731896955,
1000,1,3.7,3.7,0,0,16,16,63,,,,,123.86047159999725,124.4944334999891,124.4944334999891,124.99538939999184,315,315,124.99538939999184,124.99538939999184,124.99538939999184,124.99538939999184,124.99538939999184,124.99538939999184,124.99538939999184,124.99538939999184,124.99538939999184,125.3619117999915,125.3619117999915,125.3619117999915,125.3619117999915,125.3619117999915,125.3619117999915,125.3619117999915,125.3619117999915,125.3619117999915,0,1,[0.001219500001752749],[0.3672379999770783],125.3619117999915,125.56406859998242,1000,125.56406859998242,1000,1000,1000,1000,1,num_2,0.7768275999987964,,21,4,2026-03-02_17h33.34.523,2026A_exp2,2022.2.4,59.803032731896955,
1000,1,0.0,4.9,0,0,17,17,61,,,,,126.36276699998416,127.01358279999113,127.01358279999113,127.51472219999414,315,315,127.51472219999414,127.51472219999414,127.51472219999414,127.51472219999414,127.51472219999414,127.51472219999414,127.51472219999414,127.51472219999414,127.51472219999414,127.88123569998425,127.88123569998425,127.88123569998425,127.88123569998425,127.88123569998425,127.88123569998425,127.88123569998425,127.88123569998425,127.88123569998425,11,4,"[0.01731390002532862, 0.10012700001243502, 0.23362959999940358, 0.31694900000002235]","[0.03347840000060387, 0.21675280001363717, 0.25023330000112765, 0.3669930000032764]",127.88123569998425,128.08349869999802,1000,128.08349869999802,1000,1000,1000,1000,1,num_2,0.45715060000657104,,21,4,2026-03-02_17h33.34.523,2026A_exp2,2022.2.4,59.803032731896955,
1000,1,0.0,0.0,1,0,18,18,1,,,,,128.565004700009,129.2156537999981,129.2156537999981,129.70529089999036,45,315,129.70529089999036,129.70529089999036,129.70529089999036,129.70529089999036,129.70529089999036,129.70529089999036,129.70529089999036,129.70529089999036,129.70529089999036,130.0664756000042,130.0664756000042,130.0664756000042,130.0664756000042,130.0664756000042,130.0664756000042,130.0664756000042,130.0664756000042,130.0664756000042,1,2,"[0.0026252999959979206, 0.24916589999338612]","[0.23247769998852164, 0.3658112999983132]",130.0664756000042,130.26689729999634,1000,130.26689729999634,1000,1000,1000,1000,0,num_3,1.0171107999922242,,21,4,2026-03-02_17h33.34.523,2026A_exp2,2022.2.4,59.803032731896955,
1,0,0.0,0.0,0,0,19,19,79,,,,,131.30104679998476,131.95186699999613,131.95186699999613,132.4529687000031,315,45,132.4529687000031,132.4529687000031,132.4529687000031,132.4529687000031,132.4529687000031,132.4529687000031,132.4529687000031,132.4529687000031,132.4529687000031,132.8194089999888,132.8194089999888,132.8194089999888,132.8194089999888,132.8194089999888,132.8194089999888,132.8194089999888,132.8194089999888,132.8194089999888,0,1,[0.0012141999904997647],[0.36723000000347383],132.8194089999888,133.0195425999991,0.0,133.0195425999991,0,0.0,0,1,1000,num_1,2.8972846000106074,,21,4,2026-03-02_17h33.34.523,2026A_exp2,2022.2.4,59.803032731896955,
1,0,6.1,0.0,0,0,20,20,82,,,,,135.93901470000856,136.59909460000927,136.59909460000927,137.07980469998438,315,45,137.07980469998438,137.07980469998438,137.07980469998438,137.07980469998438,137.07980469998438,137.07980469998438,137.07980469998438,137.07980469998438,137.07980469998438,137.4407821999921,137.4407821999921,137.4407821999921,137.4407821999921,137.4407821999921,137.4407821999921,137.4407821999921,137.4407821999921,137.4407821999921,17,4,"[0.0026187000039499253, 0.03639009999460541, 0.13366229998064227, 0.3003755999961868]","[0.023098599980585277, 0.049893899995367974, 0.16680609999457374, 0.33367950000683777]",137.4407821999921,137.64086359998328,6.1,137.64086359998328,1,6.1,1,1,1000,num_4,2.5550156999961473,,21,4,2026-03-02_17h33.34.523,2026A_exp2,2022.2.4,59.803032731896955,
1000,1,6.1,0.0,1,0,21,21,29,,,,,140.22661300000618,140.87728799998877,140.87728799998877,141.3786363999825,315,45,141.3786363999825,141.3786363999825,141.3786363999825,141.3786363999825,141.3786363999825,141.3786363999825,141.3786363999825,141.3786363999825,141.3786363999825,141.72787490001065,141.72787490001065,141.72787490001065,141.72787490001065,141.72787490001065,141.72787490001065,141.72787490001065,141.72787490001065,141.72787490001065,22,0,,,141.72787490001065,141.9302774000098,1000,141.94519510000828,1000,1000,1000,1000,0,num_3,0.6194487000175286,,21,4,2026-03-02_17h33.34.523,2026A_exp2,2022.2.4,59.803032731896955,
1,0,0.0,4.9,0,0,22,22,73,,,,,142.59586400000262,143.24647809998714,143.24647809998714,143.73093140000128,45,45,143.73093140000128,143.73093140000128,143.73093140000128,143.73093140000128,143.73093140000128,143.73093140000128,143.73093140000128,143.73093140000128,143.73093140000128,144.09730900000432,144.09730900000432,144.09730900000432,144.09730900000432,144.09730900000432,144.09730900000432,144.09730900000432,144.09730900000432,144.09730900000432,23,0,,,144.09730900000432,144.29751229999238,0.0,144.29751229999238,0,0.0,0,1,1000,num_1,1.1629634000128135,,21,4,2026-03-02_17h33.34.523,2026A_exp2,2022.2.4,59.803032731896955,
1000,1,4.9,0.0,0,0,23,23,54,,,,,145.48188340000343,146.13271999999415,146.13271999999415,146.63369409998995,45,45,146.63369409998995,146.63369409998995,146.63369409998995,146.63369409998995,146.63369409998995,146.63369409998995,146.63369409998995,146.63369409998995,146.63369409998995,146.98350349999964,146.98350349999964,146.98350349999964,146.98350349999964,146.98350349999964,146.98350349999964,146.98350349999964,146.98350349999964,146.98350349999964,10,2,"[0.15026290001696907, 0.21687500001280569]","[0.20028099999763072, 0.35053620001417585]",146.98350349999964,147.1858035000041,1000,147.1858035000041,1000,1000,1000,1000,0,num_3,0.6024146000272594,,21,4,2026-03-02_17h33.34.523,2026A_exp2,2022.2.4,59.803032731896955,
1,0,4.9,3.7,1,0,24,24,27,,,,,147.81786019998253,148.46836800000165,148.46836800000165,148.96933709998848,45,45,148.96933709998848,148.96933709998848,148.96933709998848,148.96933709998848,148.96933709998848,148.96933709998848,148.96933709998848,148.96933709998848,148.96933709998848,149.33592579999822,149.33592579999822,149.33592579999822,149.33592579999822,149.33592579999822,149.33592579999822,149.33592579999822,149.33592579999822,149.33592579999822,0,1,[0.0015387999883387238],[0.3669686999928672],149.33592579999822,149.53614439998637,3.7,149.53614439998637,0,3.7,1,0,1000,num_1,0.7564424000156578,,21,4,2026-03-02_17h33.34.523,2026A_exp2,2022.2.4,59.803032731896955,
1000,1,3.7,4.9,0,0,25,25,45,,,,,150.32015869999304,150.9708275999874,150.9708275999874,151.45553949999157,45,45,151.45553949999157,151.45553949999157,151.45553949999157,151.45553949999157,151.45553949999157,151.45553949999157,151.45553949999157,151.45553949999157,151.45553949999157,151.82170490000863,151.82170490000863,151.82170490000863,151.82170490000863,151.82170490000863,151.82170490000863,151.82170490000863,151.82170490000863,151.82170490000863,0,1,[0.0012268999998923391],[0.36720370000693947],151.82170490000863,152.02352950000204,1000,152.02352950000204,1000,1000,1000,1000,0,num_3,1.2845613000099547,,21,4,2026-03-02_17h33.34.523,2026A_exp2,2022.2.4,59.803032731896955,
1000,1,6.1,6.1,1,0,26,26,8,,,,,153.323114800005,153.973825699999,153.973825699999,154.47500330000184,45,45,154.47500330000184,154.47500330000184,154.47500330000184,154.47500330000184,154.47500330000184,154.47500330000184,154.47500330000184,154.47500330000184,154.47500330000184,154.8414237999823,154.8414237999823,154.8414237999823,154.8414237999823,154.8414237999823,154.8414237999823,154.8414237999823,154.8414237999823,154.8414237999823,23,0,,,154.8414237999823,155.04367459999048,1000,155.04367459999048,1000,1000,1000,1000,0,num_3,0.6572398999996949,,21,4,2026-03-02_17h33.34.523,2026A_exp2,2022.2.4,59.803032731896955,
1000,1,4.9,4.9,1,0,27,27,68,,,,,155.72550810000394,156.37629409998772,156.37629409998772,156.89361969998572,315,315,156.89361969998572,156.89361969998572,156.89361969998572,156.89361969998572,156.89361969998572,156.89361969998572,156.89361969998572,156.89361969998572,156.89361969998572,157.24397209999734,157.24397209999734,157.24397209999734,157.24397209999734,157.24397209999734,157.24397209999734,157.24397209999734,157.24397209999734,157.24397209999734,23,0,,,157.24397209999734,157.45572369999718,1000,157.45572369999718,1000,1000,1000,1000,1,num_2,1.4209637000167277,,21,4,2026-03-02_17h33.34.523,2026A_exp2,2022.2.4,59.803032731896955,
1000,1,3.7,0.0,0,0,28,28,76,,,,,158.89533910001046,159.54611339999246,159.54611339999246,160.04719419998582,45,315,160.04719419998582,160.04719419998582,160.04719419998582,160.04719419998582,160.04719419998582,160.04719419998582,160.04719419998582,160.04719419998582,160.04719419998582,160.3969325000071,160.3969325000071,160.3969325000071,160.3969325000071,160.3969325000071,160.3969325000071,160.3969325000071,160.3969325000071,160.3969325000071,22,0,,,160.3969325000071,160.59953169999062,1000,160.59953169999062,1000,1000,1000,1000,0,num_3,0.45246890000998974,,21,4,2026-03-02_17h33.34.523,2026A_exp2,2022.2.4,59.803032731896955,
1000,1,3.7,6.1,1,0,29,29,58,,,,,161.08106219998444,161.73167720000492,161.73167720000492,162.23261579999235,45,315,162.23261579999235,162.23261579999235,162.23261579999235,162.23261579999235,162.23261579999235,162.23261579999235,162.23261579999235,162.23261579999235,162.23261579999235,162.59946959998342,162.59946959998342,162.59946959998342,162.59946959998342,162.59946959998342,162.59946959998342,162.59946959998342,162.59946959998342,162.59946959998342,23,0,,,162.59946959998342,162.8154724999913,1000,162.8154724999913,1000,1000,1000,1000,1,num_2,0.75782200001413,,21,4,2026-03-02_17h33.34.523,2026A_exp2,2022.2.4,59.803032731896955,
1000,1,0.0,0.0,0,0,30,30,5,,,,,163.60032019999926,164.25070229999255,164.25070229999255,164.75179849998676,45,45,164.75179849998676,164.75179849998676,164.75179849998676,164.75179849998676,164.75179849998676,164.75179849998676,164.75179849998676,164.75179849998676,164.75179849998676,165.11819790001027,165.11819790001027,165.11819790001027,165.11819790001027,165.11819790001027,165.11819790001027,165.11819790001027,165.11819790001027,165.11819790001027,23,0,,,165.11819790001027,165.3203106999863,1000,165.3203106999863,1000,1000,1000,1000,0,num_3,2.0916318999952637,,21,4,2026-03-02_17h33.34.523,2026A_exp2,2022.2.4,59.803032731896955,
1000,1,3.7,0.0,1,0,31,31,38,,,,,167.43730429999414,168.08786719999625,168.08786719999625,168.58898070000578,45,45,168.58898070000578,168.58898070000578,168.58898070000578,168.58898070000578,168.58898070000578,168.58898070000578,168.58898070000578,168.58898070000578,168.58898070000578,168.95546070000273,168.95546070000273,168.95546070000273,168.95546070000273,168.95546070000273,168.95546070000273,168.95546070000273,168.95546070000273,168.95546070000273,23,0,,,168.95546070000273,169.15743019999354,1000,169.15743019999354,1000,1000,1000,1000,0,num_3,0.40710110001964495,,21,4,2026-03-02_17h33.34.523,2026A_exp2,2022.2.4,59.803032731896955,
1,0,0.0,6.1,0,0,32,32,0,,,,,169.5893170000054,170.2400731999951,170.2400731999951,170.74110019998625,45,315,170.74110019998625,170.74110019998625,170.74110019998625,170.74110019998625,170.74110019998625,170.74110019998625,170.74110019998625,170.74110019998625,170.74110019998625,171.10762789999717,171.10762789999717,171.10762789999717,171.10762789999717,171.10762789999717,171.10762789999717,171.10762789999717,171.10762789999717,171.10762789999717,23,0,,,171.10762789999717,171.30783289999817,0.0,171.30783289999817,0,0.0,0,1,1000,num_1,1.1129802000068594,,21,4,2026-03-02_17h33.34.523,2026A_exp2,2022.2.4,59.803032731896955,
1000,1,0.0,0.0,0,0,33,33,7,,,,,172.44218670000555,173.092931399995,173.092931399995,173.57738820000668,315,45,173.57738820000668,173.57738820000668,173.57738820000668,173.57738820000668,173.57738820000668,173.57738820000668,173.57738820000668,173.57738820000668,173.57738820000668,173.94373520000954,173.94373520000954,173.94373520000954,173.94373520000954,173.94373520000954,173.94373520000954,173.94373520000954,173.94373520000954,173.94373520000954,23,0,,,173.94373520000954,174.14601409999887,1000,174.14601409999887,1000,1000,1000,1000,1,num_2,1.1465633000188973,,21,4,2026-03-02_17h33.34.523,2026A_exp2,2022.2.4,59.803032731896955,
1,0,6.1,3.7,1,0,34,34,51,,,,,175.3117421999923,175.96256529999664,175.96256529999664,176.46355230000336,45,45,176.46355230000336,176.46355230000336,176.46355230000336,176.46355230000336,176.46355230000336,176.46355230000336,176.46355230000336,176.46355230000336,176.46355230000336,176.83005240000784,176.83005240000784,176.83005240000784,176.83005240000784,176.83005240000784,176.83005240000784,176.83005240000784,176.83005240000784,176.83005240000784,23,0,,,176.83005240000784,177.0299815000035,3.7,177.0299815000035,0,3.7,1,0,1000,num_1,1.2782375999959186,,21,4,2026-03-02_17h33.34.523,2026A_exp2,2022.2.4,59.803032731896955,
1,0,0.0,0.0,1,0,35,35,49,,,,,178.33134649999556,178.98223940000753,178.98223940000753,179.4666276999924,45,45,179.4666276999924,179.4666276999924,179.4666276999924,179.4666276999924,179.4666276999924,179.4666276999924,179.4666276999924,179.4666276999924,179.4666276999924,179.83294100000057,179.83294100000057,179.83294100000057,179.83294100000057,179.83294100000057,179.83294100000057,179.83294100000057,179.83294100000057,179.83294100000057,23,0,,,179.83294100000057,180.03323070000624,0.0,180.03323070000624,0,0.0,0,1,1000,num_1,0.6837788000120781,,21,4,2026-03-02_17h33.34.523,2026A_exp2,2022.2.4,59.803032731896955,
1,0,0.0,0.0,1,0,36,36,69,,,,,180.73371900001075,181.36799589998554,181.36799589998554,181.86894829999073,315,315,181.86894829999073,181.86894829999073,181.86894829999073,181.86894829999073,181.86894829999073,181.86894829999073,181.86894829999073,181.86894829999073,181.86894829999073,182.23550919999252,182.23550919999252,182.23550919999252,182.23550919999252,182.23550919999252,182.23550919999252,182.23550919999252,182.23550919999252,182.23550919999252,23,0,,,182.23550919999252,182.43563029999495,0.0,182.43563029999495,0,0.0,0,1,1000,num_1,0.4325869000167586,,21,4,2026-03-02_17h33.34.523,2026A_exp2,2022.2.4,59.803032731896955,
1000,1,0.0,3.7,0,0,37,37,46,,,,,182.8861218999955,183.53674859998864,183.53674859998864,184.02121000000625,45,315,184.02121000000625,184.02121000000625,184.02121000000625,184.02121000000625,184.02121000000625,184.02121000000625,184.02121000000625,184.02121000000625,184.02121000000625,184.38748099998338,184.38748099998338,184.38748099998338,184.38748099998338,184.38748099998338,184.38748099998338,184.38748099998338,184.38748099998338,184.38748099998338,23,0,,,184.38748099998338,184.5899086999998,1000,184.5899086999998,1000,1000,1000,1000,1,num_2,0.9904729999834672,,21,4,2026-03-02_17h33.34.523,2026A_exp2,2022.2.4,59.803032731896955,
1,0,0.0,6.1,1,0,38,38,36,,,,,185.6054169999843,186.25614149999456,186.25614149999456,186.7573074999964,315,45,186.7573074999964,186.7573074999964,186.7573074999964,186.7573074999964,186.7573074999964,186.7573074999964,186.7573074999964,186.7573074999964,186.7573074999964,187.1235505999939,187.1235505999939,187.1235505999939,187.1235505999939,187.1235505999939,187.1235505999939,187.1235505999939,187.1235505999939,187.1235505999939,21,1,[0.2171606000047177],[0.2506084000051487],187.1235505999939,187.33207559998846,6.1,187.33207559998846,1,6.1,1,1,1000,num_4,1.1527346999791916,,21,4,2026-03-02_17h33.34.523,2026A_exp2,2022.2.4,59.803032731896955,
0,0,4.9,3.7,0,0,39,39,28,,,,,188.50827980000759,189.15889180000522,189.15889180000522,189.64316249999683,315,315,189.64316249999683,189.64316249999683,189.64316249999683,189.64316249999683,189.64316249999683,189.64316249999683,189.64316249999683,189.64316249999683,189.64316249999683,190.00986049999483,190.00986049999483,190.00986049999483,190.00986049999483,190.00986049999483,190.00986049999483,190.00986049999483,190.00986049999483,190.00986049999483,17,5,"[0.03351670000120066, 0.10030450002523139, 0.13370990002295002, 0.18365069999708794, 0.23373810001066886]","[0.050279200018849224, 0.11693450002348982, 0.15036600001621991, 0.2004486000223551, 0.2504796000139322]",190.00986049999483,190.2101302999945,3.7,190.2101302999945,0,3.7,1,0,1000,num_1,1.1946870000101626,,21,4,2026-03-02_17h33.34.523,2026A_exp2,2022.2.4,59.803032731896955,
0,0,3.7,0.0,0,0,40,40,62,,,,,191.42778229998657,192.07849849999184,192.07849849999184,192.56298139999853,45,315,192.56298139999853,192.56298139999853,192.56298139999853,192.56298139999853,192.56298139999853,192.56298139999853,192.56298139999853,192.56298139999853,192.56298139999853,192.92947899998398,192.92947899998398,192.92947899998398,192.92947899998398,192.92947899998398,192.92947899998398,192.92947899998398,192.92947899998398,192.92947899998398,23,0,,,192.92947899998398,193.1296779999975,0.0,193.1296779999975,0,0.0,0,1,1000,num_1,0.6114849000005051,,21,4,2026-03-02_17h33.34.523,2026A_exp2,2022.2.4,59.803032731896955,
1,0,0.0,0.0,1,0,41,41,42,,,,,193.76345490000676,194.41430380000384,194.41430380000384,194.89875369999208,45,315,194.89875369999208,194.89875369999208,194.89875369999208,194.89875369999208,194.89875369999208,194.89875369999208,194.89875369999208,194.89875369999208,194.89875369999208,195.26512080000248,195.26512080000248,195.26512080000248,195.26512080000248,195.26512080000248,195.26512080000248,195.26512080000248,195.26512080000248,195.26512080000248,23,0,,,195.26512080000248,195.46536909998395,0.0,195.46536909998395,0,0.0,0,1,1000,num_1,0.4438228999788407,,21,4,2026-03-02_17h33.34.523,2026A_exp2,2022.2.4,59.803032731896955,
1000,1,3.7,0.0,1,0,42,42,19,,,,,195.93225859999075,196.58315079999738,196.58315079999738,197.06755380000686,45,315,197.06755380000686,197.06755380000686,197.06755380000686,197.06755380000686,197.06755380000686,197.06755380000686,197.06755380000686,197.06755380000686,197.06755380000686,197.4339181999967,197.4339181999967,197.4339181999967,197.4339181999967,197.4339181999967,197.4339181999967,197.4339181999967,197.4339181999967,197.4339181999967,13,6,"[0.0012907999916933477, 0.05015080000157468, 0.1167970999958925, 0.23370219999924302, 0.31717919997754507, 0.36716209998121485]","[0.0333909000037238, 0.10020369998528622, 0.13343659997917712, 0.2670178999833297, 0.3505418999993708, 0.3671662999840919]",197.4339181999967,197.63635009998688,1000,197.63635009998688,1000,1000,1000,1000,0,num_3,0.6315708000038285,,21,4,2026-03-02_17h33.34.523,2026A_exp2,2022.2.4,59.803032731896955,
1000,1,0.0,0.0,1,0,43,43,9,,,,,198.2847124999971,198.93542339999112,198.93542339999112,199.43649789999472,45,45,199.43649789999472,199.43649789999472,199.43649789999472,199.43649789999472,199.43649789999472,199.43649789999472,199.43649789999472,199.43649789999472,199.43649789999472,199.80288040000596,199.80288040000596,199.80288040000596,199.80288040000596,199.80288040000596,199.80288040000596,199.80288040000596,199.80288040000596,199.80288040000596,6,3,"[0.0012184999941382557, 0.10024390000035055, 0.20054779999190941]","[0.08360569999786094, 0.11713080000481568, 0.3670063999888953]",199.80288040000596,200.00549189999583,1000,200.00549189999583,1000,1000,1000,1000,0,num_3,1.9192668000177946,,21,4,2026-03-02_17h33.34.523,2026A_exp2,2022.2.4,59.803032731896955,
1,0,0.0,4.9,1,0,44,44,37,,,,,201.9549929999921,202.60580600000685,202.60580600000685,203.10696790000657,315,45,203.10696790000657,203.10696790000657,203.10696790000657,203.10696790000657,203.10696790000657,203.10696790000657,203.10696790000657,203.10696790000657,203.10696790000657,203.47319409999182,203.47319409999182,203.47319409999182,203.47319409999182,203.47319409999182,203.47319409999182,203.47319409999182,203.47319409999182,203.47319409999182,17,2,"[0.21707690000766888, 0.3172387999948114]","[0.3004916000063531, 0.3338664000038989]",203.47319409999182,203.67342370000551,4.9,203.67342370000551,1,4.9,1,1,1000,num_4,1.4263826000096742,,21,4,2026-03-02_17h33.34.523,2026A_exp2,2022.2.4,59.803032731896955,
1000,1,6.1,0.0,1,0,45,45,25,,,,,205.12480419999338,205.77566389998537,205.77566389998537,206.27674639999168,45,315,206.27674639999168,206.27674639999168,206.27674639999168,206.27674639999168,206.27674639999168,206.27674639999168,206.27674639999168,206.27674639999168,206.27674639999168,206.62651599998935,206.62651599998935,206.62651599998935,206.62651599998935,206.62651599998935,206.62651599998935,206.62651599998935,206.62651599998935,206.62651599998935,13,6,"[0.0012066999915987253, 0.06699260001187213, 0.10005300000193529, 0.16707019999739714, 0.20054970000637695, 0.3172410000115633]","[0.03357739999773912, 0.08362759998999536, 0.15017229999648407, 0.18384620000142604, 0.21710050001274794, 0.333882300008554]",206.62651599998935,206.82885079999687,1000,206.82885079999687,1000,1000,1000,1000,0,num_3,0.5915862999972887,,21,4,2026-03-02_17h33.34.523,2026A_exp2,2022.2.4,59.803032731896955,
1,0,6.1,0.0,1,0,46,46,80,,,,,207.4440428999951,208.09475499999826,208.09475499999826,208.59567280000192,45,45,208.59567280000192,208.59567280000192,208.59567280000192,208.59567280000192,208.59567280000192,208.59567280000192,208.59567280000192,208.59567280000192,208.59567280000192,208.96216550000827,208.96216550000827,208.96216550000827,208.96216550000827,208.96216550000827,208.96216550000827,208.96216550000827,208.96216550000827,208.96216550000827,23,0,,,208.96216550000827,209.16228329998557,0.0,209.16228329998557,0,0.0,0,1,1000,num_1,1.1062568000052124,,21,4,2026-03-02_17h33.34.523,2026A_exp2,2022.2.4,59.803032731896955,
0,0,0.0,0.0,1,0,47,47,2,,,,,210.29669739998644,210.9472417999932,210.9472417999932,211.43178929999704,315,45,211.43178929999704,211.43178929999704,211.43178929999704,211.43178929999704,211.43178929999704,211.43178929999704,211.43178929999704,211.43178929999704,211.43178929999704,211.79817009999533,211.79817009999533,211.79817009999533,211.79817009999533,211.79817009999533,211.79817009999533,211.79817009999533,211.79817009999533,211.79817009999533,17,5,"[0.11700530000962317, 0.23366319999331608, 0.26718130000517704, 0.3004524999996647, 0.3671394999837503]","[0.1669316999905277, 0.25041189999319613, 0.2836828999861609, 0.31697600000188686, 0.3671439999889117]",211.79817009999533,211.99844289998873,0.0,211.99844289998873,0,0.0,0,1,1000,num_1,3.965412899997318,,21,4,2026-03-02_17h33.34.523,2026A_exp2,2022.2.4,59.803032731896955,
1000,1,0.0,0.0,1,0,48,48,78,,,,,215.98563409998314,216.6380503999826,216.6380503999826,217.12099779999699,45,45,217.12099779999699,217.12099779999699,217.12099779999699,217.12099779999699,217.12099779999699,217.12099779999699,217.12099779999699,217.12099779999699,217.12099779999699,217.4874889999919,217.4874889999919,217.4874889999919,217.4874889999919,217.4874889999919,217.4874889999919,217.4874889999919,217.4874889999919,217.4874889999919,14,2,"[0.0012186999956611544, 0.16693979999399744]","[0.13357159998849966, 0.18388490000506863]",217.4874889999919,217.68941009999253,1000,217.68941009999253,1000,1000,1000,1000,0,num_3,0.8510438999801408,,21,4,2026-03-02_17h33.34.523,2026A_exp2,2022.2.4,59.803032731896955,
0,0,0.0,3.7,0,0,49,49,34,,,,,218.5718164999853,219.22239549999358,219.22239549999358,219.72343539999565,45,45,219.72343539999565,219.72343539999565,219.72343539999565,219.72343539999565,219.72343539999565,219.72343539999565,219.72343539999565,219.72343539999565,219.72343539999565,220.0899989999889,220.0899989999889,220.0899989999889,220.0899989999889,220.0899989999889,220.0899989999889,220.0899989999889,220.0899989999889,220.0899989999889,23,0,,,220.0899989999889,220.29018139999243,3.7,220.29018139999243,1,3.7,1,1,1000,num_4,1.5862134999770205,,21,4,2026-03-02_17h33.34.523,2026A_exp2,2022.2.4,59.803032731896955,
1,0,6.1,0.0,1,0,50,50,70,,,,,221.90851249999832,222.55899749998935,222.55899749998935,223.0435645999969,315,315,223.0435645999969,223.0435645999969,223.0435645999969,223.0435645999969,223.0435645999969,223.0435645999969,223.0435645999969,223.0435645999969,223.0435645999969,223.4099850000057,223.4099850000057,223.4099850000057,223.4099850000057,223.4099850000057,223.4099850000057,223.4099850000057,223.4099850000057,223.4099850000057,6,4,"[0.03356770001119003, 0.10022980000940152, 0.18378150000353344, 0.23373730000457726]","[0.0670170999947004, 0.16710049999528565, 0.2171068000025116, 0.3672839000064414]",223.4099850000057,223.61004239998874,0.0,223.61004239998874,0,0.0,0,1,1000,num_1,0.8112469000043347,,21,4,2026-03-02_17h33.34.523,2026A_exp2,2022.2.4,59.803032731896955,
1,0,6.1,0.0,0,0,51,51,47,,,,,224.44416079999064,225.0947898000013,225.0947898000013,225.57936719999998,45,45,225.57936719999998,225.57936719999998,225.57936719999998,225.57936719999998,225.57936719999998,225.57936719999998,225.57936719999998,225.57936719999998,225.57936719999998,225.94589040000574,225.94589040000574,225.94589040000574,225.94589040000574,225.94589040000574,225.94589040000574,225.94589040000574,225.94589040000574,225.94589040000574,23,0,,,225.94589040000574,226.14586799999233,6.1,226.14586799999233,1,6.1,1,1,1000,num_4,0.7312250999966636,,21,4,2026-03-02_17h33.34.523,2026A_exp2,2022.2.4,59.803032731896955,
1000,1,3.7,6.1,1,0,52,52,48,,,,,226.89659610000672,227.54734240000835,227.54734240000835,228.04842639999697,45,315,228.04842639999697,228.04842639999697,228.04842639999697,228.04842639999697,228.04842639999697,228.04842639999697,228.04842639999697,228.04842639999697,228.04842639999697,228.3981942999817,228.3981942999817,228.3981942999817,228.3981942999817,228.3981942999817,228.3981942999817,228.3981942999817,228.3981942999817,228.3981942999817,22,0,,,228.3981942999817,228.6005281000107,1000,228.6005281000107,1000,1000,1000,1000,1,num_2,0.675440199993318,,21,4,2026-03-02_17h33.34.523,2026A_exp2,2022.2.4,59.803032731896955,
1,0,0.0,6.1,1,0,53,53,50,,,,,229.29896019998705,229.93317909998586,229.93317909998586,230.4341720000084,45,45,230.4341720000084,230.4341720000084,230.4341720000084,230.4341720000084,230.4341720000084,230.4341720000084,230.4341720000084,230.4341720000084,230.4341720000084,230.8006528999831,230.8006528999831,230.8006528999831,230.8006528999831,230.8006528999831,230.8006528999831,230.8006528999831,230.8006528999831,230.8006528999831,23,0,,,230.8006528999831,231.00079940000433,6.1,231.00079940000433,1,6.1,1,1,1000,num_4,0.8670664000092074,,21,4,2026-03-02_17h33.34.523,2026A_exp2,2022.2.4,59.803032731896955,
1000,1,6.1,3.7,0,0,54,54,75,,,,,231.88496130000567,232.53565979999257,232.53565979999257,233.0202042000019,315,45,233.0202042000019,233.0202042000019,233.0202042000019,233.0202042000019,233.0202042000019,233.0202042000019,233.0202042000019,233.0202042000019,233.0202042000019,233.38660969998455,233.38660969998455,233.38660969998455,233.38660969998455,233.38660969998455,233.38660969998455,233.38660969998455,233.38660969998455,233.38660969998455,21,1,[0.20027929998468608],[0.23357319997739978],233.38660969998455,233.58821459999308,1000,233.58821459999308,1000,1000,1000,1000,0,num_3,0.6410867999948096,,21,4,2026-03-02_17h33.34.523,2026A_exp2,2022.2.4,59.803032731896955,
1,0,0.0,3.7,1,0,55,55,32,,,,,234.2540144000086,234.90473660000134,234.90473660000134,235.40592329998617,45,45,235.40592329998617,235.40592329998617,235.40592329998617,235.40592329998617,235.40592329998617,235.40592329998617,235.40592329998617,235.40592329998617,235.40592329998617,235.7723185000068,235.7723185000068,235.7723185000068,235.7723185000068,235.7723185000068,235.7723185000068,235.7723185000068,235.7723185000068,235.7723185000068,23,0,,,235.7723185000068,235.97232050000457,3.7,235.97232050000457,1,3.7,1,1,1000,num_4,3.4315418000041973,,21,4,2026-03-02_17h33.34.523,2026A_exp2,2022.2.4,59.803032731896955,
1000,1,0.0,6.1,1,0,56,56,71,,,,,239.42587760000606,240.0597945000045,240.0597945000045,240.56108509999467,315,45,240.56108509999467,240.56108509999467,240.56108509999467,240.56108509999467,240.56108509999467,240.56108509999467,240.56108509999467,240.56108509999467,240.56108509999467,240.92745560000185,240.92745560000185,240.92745560000185,240.92745560000185,240.92745560000185,240.92745560000185,240.92745560000185,240.92745560000185,240.92745560000185,23,0,,,240.92745560000185,241.13004479999654,1000,241.13004479999654,1000,1000,1000,1000,1,num_2,0.634293200011598,,21,4,2026-03-02_17h33.34.523,2026A_exp2,2022.2.4,59.803032731896955,
1000,1,6.1,0.0,1,0,57,57,83,,,,,241.7949254999985,242.4456174999941,242.4456174999941,242.94676489999983,315,45,242.94676489999983,242.94676489999983,242.94676489999983,242.94676489999983,242.94676489999983,242.94676489999983,242.94676489999983,242.94676489999983,242.94676489999983,243.3129074999888,243.3129074999888,243.3129074999888,243.3129074999888,243.3129074999888,243.3129074999888,243.3129074999888,243.3129074999888,243.3129074999888,23,0,,,243.3129074999888,243.51519770000596,1000,243.51519770000596,1000,1000,1000,1000,0,num_3,1.5372735999990255,,21,4,2026-03-02_17h33.34.523,2026A_exp2,2022.2.4,59.803032731896955,
1000,1,6.1,0.0,1,0,58,58,57,,,,,245.08155679999618,245.7323894999863,245.7323894999863,246.23333909999928,45,45,246.23333909999928,246.23333909999928,246.23333909999928,246.23333909999928,246.23333909999928,246.23333909999928,246.23333909999928,246.23333909999928,246.23333909999928,246.59973109999555,246.59973109999555,246.59973109999555,246.59973109999555,246.59973109999555,246.59973109999555,246.59973109999555,246.59973109999555,246.59973109999555,23,0,,,246.59973109999555,246.80169239998213,1000,246.80169239998213,1000,1000,1000,1000,0,num_3,0.5304784000036307,,21,4,2026-03-02_17h33.34.523,2026A_exp2,2022.2.4,59.803032731896955,
1000,1,0.0,3.7,1,0,59,59,84,,,,,247.35038409999106,248.00124969999888,248.00124969999888,248.50229770000442,315,45,248.50229770000442,248.50229770000442,248.50229770000442,248.50229770000442,248.50229770000442,248.50229770000442,248.50229770000442,248.50229770000442,248.50229770000442,248.86877050000476,248.86877050000476,248.86877050000476,248.86877050000476,248.86877050000476,248.86877050000476,248.86877050000476,248.86877050000476,248.86877050000476,23,0,,,248.86877050000476,249.0711003000033,1000,249.0711003000033,1000,1000,1000,1000,1,num_2,1.1649444000213407,,21,4,2026-03-02_17h33.34.523,2026A_exp2,2022.2.4,59.803032731896955,
1000,1,0.0,0.0,0,0,60,60,17,,,,,250.25349309999729,250.90409639998688,250.90409639998688,251.40504009998403,315,45,251.40504009998403,251.40504009998403,251.40504009998403,251.40504009998403,251.40504009998403,251.40504009998403,251.40504009998403,251.40504009998403,251.40504009998403,251.754990299989,251.754990299989,251.754990299989,251.754990299989,251.754990299989,251.754990299989,251.754990299989,251.754990299989,251.754990299989,22,0,,,251.754990299989,251.95716900000116,1000,251.95716900000116,1000,1000,1000,1000,1,num_2,1.5026582999853417,,21,4,2026-03-02_17h33.34.523,2026A_exp2,2022.2.4,59.803032731896955,
1000,1,0.0,4.9,0,0,61,61,6,,,,,253.48994219998713,254.14066659999662,254.14066659999662,254.64171460000216,45,315,254.64171460000216,254.64171460000216,254.64171460000216,254.64171460000216,254.64171460000216,254.64171460000216,254.64171460000216,254.64171460000216,254.64171460000216,255.0082328999997,255.0082328999997,255.0082328999997,255.0082328999997,255.0082328999997,255.0082328999997,255.0082328999997,255.0082328999997,255.0082328999997,23,0,,,255.0082328999997,255.21038599999156,1000,255.21038599999156,1000,1000,1000,1000,1,num_2,0.3703059999970719,,21,4,2026-03-02_17h33.34.523,2026A_exp2,2022.2.4,59.803032731896955,
1000,1,6.1,6.1,0,0,62,62,16,,,,,255.6091149999993,256.25943149998784,256.25943149998784,256.76052609999897,315,315,256.76052609999897,256.76052609999897,256.76052609999897,256.76052609999897,256.76052609999897,256.76052609999897,256.76052609999897,256.76052609999897,256.76052609999897,257.1269418000011,257.1269418000011,257.1269418000011,257.1269418000011,257.1269418000011,257.1269418000011,257.1269418000011,257.1269418000011,257.1269418000011,23,0,,,257.1269418000011,257.3290425000014,1000,257.3290425000014,1000,1000,1000,1000,0,num_3,0.6281617000058759,,21,4,2026-03-02_17h33.34.523,2026A_exp2,2022.2.4,59.803032731896955,
1000,1,0.0,4.9,0,0,63,63,60,,,,,257.97810390000814,258.62856690000626,258.62856690000626,259.1295475999941,45,45,259.1295475999941,259.1295475999941,259.1295475999941,259.1295475999941,259.1295475999941,259.1295475999941,259.1295475999941,259.1295475999941,259.1295475999941,259.49582660000306,259.49582660000306,259.49582660000306,259.49582660000306,259.49582660000306,259.49582660000306,259.49582660000306,259.49582660000306,259.49582660000306,23,0,,,259.49582660000306,259.6985279000073,1000,259.6985279000073,1000,1000,1000,1000,1,num_2,0.49811879999469966,,21,4,2026-03-02_17h33.34.523,2026A_exp2,2022.2.4,59.803032731896955,
1,0,6.1,6.1,1,0,64,64,23,,,,,260.21330959998886,260.8640737000096,260.8640737000096,261.3651654999994,315,45,261.3651654999994,261.3651654999994,261.3651654999994,261.3651654999994,261.3651654999994,261.3651654999994,261.3651654999994,261.3651654999994,261.3651654999994,261.7315794999886,261.7315794999886,261.7315794999886,261.7315794999886,261.7315794999886,261.7315794999886,261.7315794999886,261.7315794999886,261.7315794999886,23,0,,,261.7315794999886,261.9315508999862,6.1,261.9315508999862,1,6.1,1,1,1000,num_4,1.3530341000005137,,21,4,2026-03-02_17h33.34.523,2026A_exp2,2022.2.4,59.803032731896955,
1,0,0.0,6.1,1,0,65,65,33,,,,,263.3164802000101,263.96681690000696,263.96681690000696,264.45165529998485,45,45,264.45165529998485,264.45165529998485,264.45165529998485,264.45165529998485,264.45165529998485,264.45165529998485,264.45165529998485,264.45165529998485,264.45165529998485,264.8180500000017,264.8180500000017,264.8180500000017,264.8180500000017,264.8180500000017,264.8180500000017,264.8180500000017,264.8180500000017,264.8180500000017,22,1,[0.2837617000041064],[0.3003512999857776],264.8180500000017,265.0181450000091,6.1,265.0181450000091,1,6.1,1,1,1000,num_4,0.5466192000021692,,21,4,2026-03-02_17h33.34.523,2026A_exp2,2022.2.4,59.803032731896955,
1000,1,3.7,0.0,0,0,66,66,56,,,,,265.58542089999537,266.2464437999879,266.2464437999879,266.72057159998803,315,315,266.72057159998803,266.72057159998803,266.72057159998803,266.72057159998803,266.72057159998803,266.72057159998803,266.72057159998803,266.72057159998803,266.72057159998803,267.08684579998953,267.08684579998953,267.08684579998953,267.08684579998953,267.08684579998953,267.08684579998953,267.08684579998953,267.08684579998953,267.08684579998953,21,1,[0.03359089998411946],[0.050253599998541176],267.08684579998953,267.2893689000048,1000,267.2893689000048,1000,1000,1000,1000,0,num_3,0.6507848000037484,,21,4,2026-03-02_17h33.34.523,2026A_exp2,2022.2.4,59.803032731896955,
1000,1,0.0,4.9,1,0,67,67,66,,,,,267.97104350000154,268.6218022000103,268.6218022000103,269.1229844999907,45,315,269.1229844999907,269.1229844999907,269.1229844999907,269.1229844999907,269.1229844999907,269.1229844999907,269.1229844999907,269.1229844999907,269.1229844999907,269.489447800006,269.489447800006,269.489447800006,269.489447800006,269.489447800006,269.489447800006,269.489447800006,269.489447800006,269.489447800006,23,0,,,269.489447800006,269.6896514999971,1000,269.6896514999971,1000,1000,1000,1000,1,num_2,0.6103623999806587,,21,4,2026-03-02_17h33.34.523,2026A_exp2,2022.2.4,59.803032731896955,
1000,1,4.9,0.0,1,0,68,68,10,,,,,270.3235122000042,270.9742261999927,270.9742261999927,271.45834389998345,45,315,271.45834389998345,271.45834389998345,271.45834389998345,271.45834389998345,271.45834389998345,271.45834389998345,271.45834389998345,271.45834389998345,271.45834389998345,271.82495619999827,271.82495619999827,271.82495619999827,271.82495619999827,271.82495619999827,271.82495619999827,271.82495619999827,271.82495619999827,271.82495619999827,12,10,"[0.000981699995463714, 0.033379600004991516, 0.0665558000036981, 0.13339529998484068, 0.1667635999910999, 0.2169796999951359, 0.2506445999897551, 0.28425589998369105, 0.3174273000040557, 0.3506622999848332]","[0.017132699984358624, 0.05009149998659268, 0.10022579997894354, 0.14995599997928366, 0.20033890000195242, 0.2338506999949459, 0.26747409999370575, 0.30080130000715144, 0.3341071000031661, 0.36747070000274107]",271.82495619999827,272.02712029998656,1000,272.02712029998656,1000,1000,1000,1000,0,num_3,0.49671310000121593,,21,4,2026-03-02_17h33.34.523,2026A_exp2,2022.2.4,59.803032731896955,
1,0,6.1,4.9,1,0,69,69,11,,,,,272.5422694000008,273.1930798999965,273.1930798999965,273.69423120000283,45,45,273.69423120000283,273.69423120000283,273.69423120000283,273.69423120000283,273.69423120000283,273.69423120000283,273.69423120000283,273.69423120000283,273.69423120000283,274.0606168000086,274.0606168000086,274.0606168000086,274.0606168000086,274.0606168000086,274.0606168000086,274.0606168000086,274.0606168000086,274.0606168000086,10,6,"[0.017417299997759983, 0.1335116999980528, 0.16698040001210757, 0.21706619998440146, 0.3003246999869589, 0.33371119998628274]","[0.10027830000035465, 0.15019409998785704, 0.20037070001126267, 0.23373670000000857, 0.31700859998818487, 0.36715119998552836]",274.0606168000086,274.26076390000526,4.9,274.26076390000526,1,4.9,1,1,1000,num_4,2.408386499999324,,21,4,2026-03-02_17h33.34.523,2026A_exp2,2022.2.4,59.803032731896955,
1000,1,0.0,0.0,0,0,70,70,15,,,,,276.69638690000284,277.34717510000337,277.34717510000337,277.83152629999677,45,45,277.83152629999677,277.83152629999677,277.83152629999677,277.83152629999677,277.83152629999677,277.83152629999677,277.83152629999677,277.83152629999677,277.83152629999677,278.1980249999906,278.1980249999906,278.1980249999906,278.1980249999906,278.1980249999906,278.1980249999906,278.1980249999906,278.1980249999906,278.1980249999906,1,2,"[0.0012698000064119697, 0.08354970000800677]","[0.06673869999940507, 0.3671154000039678]",278.1980249999906,278.4001153999998,1000,278.4001153999998,1000,1000,1000,1000,0,num_3,2.123965100006899,,21,4,2026-03-02_17h33.34.523,2026A_exp2,2022.2.4,59.803032731896955,
0,0,0.0,0.0,0,0,71,71,59,,,,,280.55023799999617,281.20104499999434,281.20104499999434,281.702183299989,45,45,281.702183299989,281.702183299989,281.702183299989,281.702183299989,281.702183299989,281.702183299989,281.702183299989,281.702183299989,281.702183299989,282.06859680000343,282.06859680000343,282.06859680000343,282.06859680000343,282.06859680000343,282.06859680000343,282.06859680000343,282.06859680000343,282.06859680000343,7,5,"[0.0012368999887257814, 0.08351249998668209, 0.15032200000132434, 0.2671606999938376, 0.31686579997767694]","[0.06694239997887053, 0.11685570000554435, 0.23365650000050664, 0.2837176999892108, 0.36723329999949783]",282.06859680000343,282.26864709999063,0.0,282.26864709999063,0,0.0,0,1,1000,num_1,1.008648599992739,,21,4,2026-03-02_17h33.34.523,2026A_exp2,2022.2.4,59.803032731896955,
1,0,4.9,0.0,0,0,72,72,53,,,,,283.303027499991,283.95400169998175,283.95400169998175,284.4381102999905,45,315,284.4381102999905,284.4381102999905,284.4381102999905,284.4381102999905,284.4381102999905,284.4381102999905,284.4381102999905,284.4381102999905,284.4381102999905,284.80473519998486,284.80473519998486,284.80473519998486,284.80473519998486,284.80473519998486,284.80473519998486,284.80473519998486,284.80473519998486,284.80473519998486,23,0,,,284.80473519998486,285.01271519999136,4.9,285.01271519999136,1,4.9,1,1,1000,num_4,1.8715080000110902,,21,4,2026-03-02_17h33.34.523,2026A_exp2,2022.2.4,59.803032731896955,
1,0,3.7,3.7,1,0,73,73,30,,,,,286.90664030000335,287.54075159999775,287.54075159999775,288.0418818999897,45,315,288.0418818999897,288.0418818999897,288.0418818999897,288.0418818999897,288.0418818999897,288.0418818999897,288.0418818999897,288.0418818999897,288.0418818999897,288.4082863999938,288.4082863999938,288.4082863999938,288.4082863999938,288.4082863999938,288.4082863999938,288.4082863999938,288.4082863999938,288.4082863999938,23,0,,,288.4082863999938,288.60832649999065,3.7,288.60832649999065,0,3.7,1,0,1000,num_1,1.0276745000155643,,21,4,2026-03-02_17h33.34.523,2026A_exp2,2022.2.4,59.803032731896955,
0,0,4.9,0.0,1,0,74,74,67,,,,,289.65934350001044,290.31003190000774,290.31003190000774,290.7945524000097,315,315,290.7945524000097,290.7945524000097,290.7945524000097,290.7945524000097,290.7945524000097,290.7945524000097,290.7945524000097,290.7945524000097,290.7945524000097,291.1609674000065,291.1609674000065,291.1609674000065,291.1609674000065,291.1609674000065,291.1609674000065,291.1609674000065,291.1609674000065,291.1609674000065,22,1,[0.267145799996797],[0.2838370999961626],291.1609674000065,291.36110370000824,4.9,291.36110370000824,1,4.9,1,1,1000,num_4,0.8037888999970164,,21,4,2026-03-02_17h33.34.523,2026A_exp2,2022.2.4,59.803032731896955,
1,0,3.7,6.1,0,0,75,75,52,,,,,292.1952171000012,292.84599169998546,292.84599169998546,293.33036520000314,315,45,293.33036520000314,293.33036520000314,293.33036520000314,293.33036520000314,293.33036520000314,293.33036520000314,293.33036520000314,293.33036520000314,293.33036520000314,293.69692680001026,293.69692680001026,293.69692680001026,293.69692680001026,293.69692680001026,293.69692680001026,293.69692680001026,293.69692680001026,293.69692680001026,13,6,"[0.001225999993039295, 0.03354350000154227, 0.08363110001664609, 0.13370890001533553, 0.1669216000009328, 0.2334893000079319]","[0.01733190001687035, 0.06692159999511205, 0.10039120001601987, 0.15031789999920875, 0.21701029999530874, 0.26713970000855625]",293.69692680001026,293.8971537000034,3.7,293.8971537000034,0,3.7,1,0,1000,num_1,0.9400972999865189,,21,4,2026-03-02_17h33.34.523,2026A_exp2,2022.2.4,59.803032731896955,
1,0,0.0,0.0,0,0,76,76,55,,,,,294.86462420001044,295.515395800001,295.515395800001,295.9998882999935,45,315,295.9998882999935,295.9998882999935,295.9998882999935,295.9998882999935,295.9998882999935,295.9998882999935,295.9998882999935,295.9998882999935,295.9998882999935,296.366280199989,296.366280199989,296.366280199989,296.366280199989,296.366280199989,296.366280199989,296.366280199989,296.366280199989,296.366280199989,6,4,"[0.001222899998538196, 0.0669769000087399, 0.1003678000124637, 0.2669070000119973]","[0.05029149999609217, 0.08351820000098087, 0.25006720001692884, 0.31725160000496544]",296.366280199989,296.56638899998507,0.0,296.56638899998507,0,0.0,0,1,1000,num_1,0.7179818000004161,,21,4,2026-03-02_17h33.34.523,2026A_exp2,2022.2.4,59.803032731896955,
1000,1,3.7,3.7,0,0,77,77,72,,,,,297.30033169998205,297.95113810000475,297.95113810000475,298.4354202999966,315,45,298.4354202999966,298.4354202999966,298.4354202999966,298.4354202999966,298.4354202999966,298.4354202999966,298.4354202999966,298.4354202999966,298.4354202999966,298.8019989999884,298.8019989999884,298.8019989999884,298.8019989999884,298.8019989999884,298.8019989999884,298.8019989999884,298.8019989999884,298.8019989999884,16,3,"[0.03344289999222383, 0.18368579997331835, 0.31714499997906387]","[0.066955299989786, 0.21691160000045784, 0.3504778999777045]",298.8019989999884,299.0041349999956,1000,299.0041349999956,1000,1000,1000,1000,0,num_3,1.048666199989384,,21,4,2026-03-02_17h33.34.523,2026A_exp2,2022.2.4,59.803032731896955,
1,0,0.0,0.0,0,0,78,78,24,,,,,300.0701269999845,300.7206647999992,300.7206647999992,301.22153509999043,315,45,301.22153509999043,301.22153509999043,301.22153509999043,301.22153509999043,301.22153509999043,301.22153509999043,301.22153509999043,301.22153509999043,301.22153509999043,301.5880879999895,301.5880879999895,301.5880879999895,301.5880879999895,301.5880879999895,301.5880879999895,301.5880879999895,301.5880879999895,301.5880879999895,12,3,"[0.017232100013643503, 0.08322180001414381, 0.21668030001455918]","[0.05014540001866408, 0.11669280001660809, 0.33381790001294576]",301.5880879999895,301.7881453000009,0.0,301.7881453000009,0,0.0,0,1,1000,num_1,0.9281194999930449,,21,4,2026-03-02_17h33.34.523,2026A_exp2,2022.2.4,59.803032731896955,
1000,1,6.1,6.1,1,0,79,79,4,,,,,302.7391381000052,303.38971160000074,303.38971160000074,303.8742340999888,315,315,303.8742340999888,303.8742340999888,303.8742340999888,303.8742340999888,303.8742340999888,303.8742340999888,303.8742340999888,303.8742340999888,303.8742340999888,304.2408035999979,304.2408035999979,304.2408035999979,304.2408035999979,304.2408035999979,304.2408035999979,304.2408035999979,304.2408035999979,304.2408035999979,19,3,"[0.05045419998350553, 0.0838363999791909, 0.2340418999956455]","[0.0670475999941118, 0.10050040000351146, 0.26732909999554977]",304.2408035999979,304.44274430000223,1000,304.44274430000223,1000,1000,1000,1000,0,num_3,0.7462267999944743,,21,4,2026-03-02_17h33.34.523,2026A_exp2,2022.2.4,59.803032731896955,
1,0,0.0,0.0,1,0,80,80,39,,,,,305.20829519999097,305.85875650000526,305.85875650000526,306.36009979998926,45,315,306.36009979998926,306.36009979998926,306.36009979998926,306.36009979998926,306.36009979998926,306.36009979998926,306.36009979998926,306.36009979998926,306.36009979998926,306.7266013000044,306.7266013000044,306.7266013000044,306.7266013000044,306.7266013000044,306.7266013000044,306.7266013000044,306.7266013000044,306.7266013000044,23,0,,,306.7266013000044,306.9268502999912,0.0,306.9268502999912,0,0.0,0,1,1000,num_1,0.8138711000210606,,21,4,2026-03-02_17h33.34.523,2026A_exp2,2022.2.4,59.803032731896955,
1,0,3.7,0.0,1,0,81,81,12,,,,,307.7607033000095,308.41161280000233,308.41161280000233,308.89600559999235,315,315,308.89600559999235,308.89600559999235,308.89600559999235,308.89600559999235,308.89600559999235,308.89600559999235,308.89600559999235,308.89600559999235,308.89600559999235,309.26230770000257,309.26230770000257,309.26230770000257,309.26230770000257,309.26230770000257,309.26230770000257,309.26230770000257,309.26230770000257,309.26230770000257,22,1,[0.2838756999990437],[0.3004079000093043],309.26230770000257,309.4625448999868,0.0,309.4625448999868,0,0.0,0,1,1000,num_1,0.798443200008478,,21,4,2026-03-02_17h33.34.523,2026A_exp2,2022.2.4,59.803032731896955,
1000,1,4.9,0.0,1,0,82,82,77,,,,,310.2799720999901,310.9307833999919,310.9307833999919,311.43185339999036,315,45,311.43185339999036,311.43185339999036,311.43185339999036,311.43185339999036,311.43185339999036,311.43185339999036,311.43185339999036,311.43185339999036,311.43185339999036,311.79845780000323,311.79845780000323,311.79845780000323,311.79845780000323,311.79845780000323,311.79845780000323,311.79845780000323,311.79845780000323,311.79845780000323,23,0,,,311.79845780000323,312.01795469998615,1000,312.01795469998615,1000,1000,1000,1000,0,num_3,0.4825465999892913,,21,4,2026-03-02_17h33.34.523,2026A_exp2,2022.2.4,59.803032731896955,
1,0,4.9,0.0,1,0,83,83,65,,,,,312.5155745999946,313.1664197999926,313.1664197999926,313.6674101999961,315,315,313.6674101999961,313.6674101999961,313.6674101999961,313.6674101999961,313.6674101999961,313.6674101999961,313.6674101999961,313.6674101999961,313.6674101999961,314.03389279998373,314.03389279998373,314.03389279998373,314.03389279998373,314.03389279998373,314.03389279998373,314.03389279998373,314.03389279998373,314.03389279998373,23,0,,,314.03389279998373,314.23406409999006,0.0,314.23406409999006,0,0.0,0,1,1000,num_1,0.7861033999943174,,21,4,2026-03-02_17h33.34.523,2026A_exp2,2022.2.4,59.803032731896955,
1,0,0.0,0.0,0,0,84,84,88,,,,,315.0514775000047,315.7022697000066,315.7022697000066,316.1866878999863,315,315,316.1866878999863,316.1866878999863,316.1866878999863,316.1866878999863,316.1866878999863,316.1866878999863,316.1866878999863,316.1866878999863,316.1866878999863,316.55320299998857,316.55320299998857,316.55320299998857,316.55320299998857,316.55320299998857,316.55320299998857,316.55320299998857,316.55320299998857,316.55320299998857,23,0,,,316.55320299998857,316.7533800000092,0.0,316.7533800000092,0,0.0,0,1,1000,num_1,1.2587116999784485,,21,4,2026-03-02_17h33.34.523,2026A_exp2,2022.2.4,59.803032731896955,
1000,1,0.0,3.7,1,0,85,85,13,,,,,318.0378109999874,318.6885081999935,318.6885081999935,319.172900799982,45,45,319.172900799982,319.172900799982,319.172900799982,319.172900799982,319.172900799982,319.172900799982,319.172900799982,319.172900799982,319.172900799982,319.53936090000207,319.53936090000207,319.53936090000207,319.53936090000207,319.53936090000207,319.53936090000207,319.53936090000207,319.53936090000207,319.53936090000207,23,0,,,319.53936090000207,319.7414668999845,1000,319.7414668999845,1000,1000,1000,1000,1,num_2,0.5914421000052243,,21,4,2026-03-02_17h33.34.523,2026A_exp2,2022.2.4,59.803032731896955,
1000,1,0.0,6.1,1,0,86,86,43,,,,,320.35678609999013,321.00747159999446,321.00747159999446,321.50849049998214,315,45,321.50849049998214,321.50849049998214,321.50849049998214,321.50849049998214,321.50849049998214,321.50849049998214,321.50849049998214,321.50849049998214,321.50849049998214,321.8750657000055,321.8750657000055,321.8750657000055,321.8750657000055,321.8750657000055,321.8750657000055,321.8750657000055,321.8750657000055,321.8750657000055,23,0,,,321.8750657000055,322.07551150000654,1000,322.07551150000654,1000,1000,1000,1000,1,num_2,0.7776641999953426,,21,4,2026-03-02_17h33.34.523,2026A_exp2,2022.2.4,59.803032731896955,
1,0,0.0,4.9,0,0,87,87,3,,,,,322.8759742999973,323.5265567000024,323.5265567000024,324.0278871000046,45,45,324.0278871000046,324.0278871000046,324.0278871000046,324.0278871000046,324.0278871000046,324.0278871000046,324.0278871000046,324.0278871000046,324.0278871000046,324.3941056999902,324.3941056999902,324.3941056999902,324.3941056999902,324.3941056999902,324.3941056999902,324.3941056999902,324.3941056999902,324.3941056999902,23,0,,,324.3941056999902,324.59446210000897,0.0,324.59446210000897,0,0.0,0,1,1000,num_1,0.6746084000042174,,21,4,2026-03-02_17h33.34.523,2026A_exp2,2022.2.4,59.803032731896955,
1,0,3.7,4.9,1,0,88,88,18,,,,,325.2950623999932,325.9458301999839,325.9458301999839,326.43028529998264,45,315,326.43028529998264,326.43028529998264,326.43028529998264,326.43028529998264,326.43028529998264,326.43028529998264,326.43028529998264,326.43028529998264,326.43028529998264,326.7964408999833,326.7964408999833,326.7964408999833,326.7964408999833,326.7964408999833,326.7964408999833,326.7964408999833,326.7964408999833,326.7964408999833,23,0,,,326.7964408999833,326.996922899998,4.9,326.996922899998,1,4.9,1,1,1000,num_4,1.0874059000052512,,21,4,2026-03-02_17h33.34.523,2026A_exp2,2022.2.4,59.803032731896955,
1,0,6.1,0.0,0,0,89,89,21,,,,,328.11444440000923,328.7759955000074,328.7759955000074,329.25368100000196,45,45,329.25368100000196,329.25368100000196,329.25368100000196,329.25368100000196,329.25368100000196,329.25368100000196,329.25368100000196,329.25368100000196,329.25368100000196,329.6161743999983,329.6161743999983,329.6161743999983,329.6161743999983,329.6161743999983,329.6161743999983,329.6161743999983,329.6161743999983,329.6161743999983,22,1,[0.21728689997689798],[0.23379669999121688],329.6161743999983,329.81630929998937,6.1,329.81630929998937,1,6.1,1,1,1000,num_4,0.7317298999987543,,21,4,2026-03-02_17h33.34.523,2026A_exp2,2022.2.4,59.803032731896955,
,,,,,,,,,,,,,,,,,,,,,,,,,,,,,,,,,,,,,,,,,,,,,,,,,,,,330.5707021999988,,,,,,,
