validity,detectorcomp,contrastCW,contrastCCW,precueCWorCCW,block_80trials.thisRepN,block_80trials.thisTrialN,block_80trials.thisN,block_80trials.thisIndex,etRecord.started,etRecord.stopped,text.started,text.stopped,text_4.started,text_4.stopped,text_6.started,text_6.stopped,oriCW,oriCCW,roi_2.started,grating_UR.started,grating_UL.started,grating_LR.started,grating_LL.started,noise_UR.started,noise_UL.started,noise_LR.started,noise_LL.started,roi_2.stopped,grating_UR.stopped,grating_UL.stopped,grating_LR.stopped,grating_LL.stopped,noise_UR.stopped,noise_UL.stopped,noise_LR.stopped,noise_LL.stopped,outframe,roi_2.numLooks,roi_2.timesOn,roi_2.timesOff,text_2.started,text_2.stopped,probedcontrast,key_resp.started,respdetect,relevantContrast,correctDetect,TorFdetect,respCWorCCW,key_resp.keys,key_resp.rt,feedback_display_.started,participantNo,blockNo,date,expName,psychopyVersion,frameRate,
1000,1,3.7,0.0,1,0,0,0,48,8.19999841041863e-05,8.19999841041863e-05,45.5107624999946,47.51416100002825,47.51416100002825,48.14765030000126,48.14765030000126,48.66990799998166,315,45,48.66990799998166,48.66990799998166,48.66990799998166,48.66990799998166,48.66990799998166,48.66990799998166,48.66990799998166,48.66990799998166,48.66990799998166,49.01524269999936,49.01524269999936,49.01524269999936,49.01524269999936,49.01524269999936,49.01524269999936,49.01524269999936,49.01524269999936,49.01524269999936,2,2,"[0.001185000000987202, 0.2654958000057377]","[0.23177410004427657, 0.3655181000358425]",49.01524269999936,49.22253039997304,1000,49.22253039997304,1000,1000,1000,1000,0,num_3,0.7119025000138208,,28,10,2026-03-05_16h21.46.900,2026A_exp2,2022.2.4,59.940610837156555,
1000,1,3.7,4.9,1,0,1,1,46,,,,,49.966077900025994,50.616557999979705,50.616557999979705,51.10107400000561,45,315,51.10107400000561,51.10107400000561,51.10107400000561,51.10107400000561,51.10107400000561,51.10107400000561,51.10107400000561,51.10107400000561,51.10107400000561,51.46779099997366,51.46779099997366,51.46779099997366,51.46779099997366,51.46779099997366,51.46779099997366,51.46779099997366,51.46779099997366,51.46779099997366,10,1,[0.0013079000054858625],[0.2169562000199221],51.46779099997366,51.66930000000866,1000,51.66930000000866,1000,1000,1000,1000,0,num_3,0.5287057000095956,,28,10,2026-03-05_16h21.46.900,2026A_exp2,2022.2.4,59.940610837156555,
1000,1,0.0,4.9,1,0,2,2,76,,,,,52.21840120002162,52.870803600002546,52.870803600002546,53.370257499977015,315,315,53.370257499977015,53.370257499977015,53.370257499977015,53.370257499977015,53.370257499977015,53.370257499977015,53.370257499977015,53.370257499977015,53.370257499977015,53.73660499998368,53.73660499998368,53.73660499998368,53.73660499998368,53.73660499998368,53.73660499998368,53.73660499998368,53.73660499998368,53.73660499998368,23,0,,,53.73660499998368,53.93903329997556,1000,53.93903329997556,1000,1000,1000,1000,1,num_2,0.651913300040178,,28,10,2026-03-05_16h21.46.900,2026A_exp2,2022.2.4,59.940610837156555,
1000,1,3.7,0.0,0,0,3,3,2,,,,,54.62081659998512,55.27151839999715,55.27151839999715,55.772776999976486,45,45,55.772776999976486,55.772776999976486,55.772776999976486,55.772776999976486,55.772776999976486,55.772776999976486,55.772776999976486,55.772776999976486,55.772776999976486,56.13900399999693,56.13900399999693,56.13900399999693,56.13900399999693,56.13900399999693,56.13900399999693,56.13900399999693,56.13900399999693,56.13900399999693,22,1,[0.23323150002397597],[0.2503876000409946],56.13900399999693,56.34143710002536,1000,56.34143710002536,1000,1000,1000,1000,0,num_3,0.6412725999834947,,28,10,2026-03-05_16h21.46.900,2026A_exp2,2022.2.4,59.940610837156555,
1000,1,6.1,0.0,1,0,4,4,75,,,,,57.00644040002953,57.65726950002136,57.65726950002136,58.15823429997545,315,45,58.15823429997545,58.15823429997545,58.15823429997545,58.15823429997545,58.15823429997545,58.15823429997545,58.15823429997545,58.15823429997545,58.15823429997545,58.52474090002943,58.52474090002943,58.52474090002943,58.52474090002943,58.52474090002943,58.52474090002943,58.52474090002943,58.52474090002943,58.52474090002943,15,2,"[0.0012029999634250998, 0.13367810001363978]","[0.11702169995987788, 0.15023869997821748]",58.52474090002943,58.72654040000634,1000,58.72654040000634,1000,1000,1000,1000,0,num_3,0.6154567999765277,,28,10,2026-03-05_16h21.46.900,2026A_exp2,2022.2.4,59.940610837156555,
1000,1,4.9,0.0,1,0,5,5,5,,,,,59.358844899979886,60.009534600016195,60.009534600016195,60.51071750000119,315,45,60.51071750000119,60.51071750000119,60.51071750000119,60.51071750000119,60.51071750000119,60.51071750000119,60.51071750000119,60.51071750000119,60.51071750000119,60.87712299998384,60.87712299998384,60.87712299998384,60.87712299998384,60.87712299998384,60.87712299998384,60.87712299998384,60.87712299998384,60.87712299998384,0,1,[0.0012139000464230776],[0.36710480001056567],60.87712299998384,61.078935500001535,1000,61.078935500001535,1000,1000,1000,1000,1,num_2,0.6469543999992311,,28,10,2026-03-05_16h21.46.900,2026A_exp2,2022.2.4,59.940610837156555,
1000,1,4.9,0.0,0,0,6,6,26,,,,,61.74455669999588,62.39526050002314,62.39526050002314,62.896281699999236,315,45,62.896281699999236,62.896281699999236,62.896281699999236,62.896281699999236,62.896281699999236,62.896281699999236,62.896281699999236,62.896281699999236,62.896281699999236,63.24619289999828,63.24619289999828,63.24619289999828,63.24619289999828,63.24619289999828,63.24619289999828,63.24619289999828,63.24619289999828,63.24619289999828,0,1,[0.0012044000322930515],[0.3505120000336319],63.24619289999828,63.44870270002866,1000,63.44870270002866,1000,1000,1000,1000,0,num_3,0.34926479996647686,,28,10,2026-03-05_16h21.46.900,2026A_exp2,2022.2.4,59.940610837156555,
1000,1,6.1,0.0,1,0,7,7,30,,,,,63.813466700026765,64.46395489998395,64.46395489998395,64.9652400999912,45,315,64.9652400999912,64.9652400999912,64.9652400999912,64.9652400999912,64.9652400999912,64.9652400999912,64.9652400999912,64.9652400999912,64.9652400999912,65.33157380000921,65.33157380000921,65.33157380000921,65.33157380000921,65.33157380000921,65.33157380000921,65.33157380000921,65.33157380000921,65.33157380000921,0,1,[0.0012389000039547682],[0.3673088999930769],65.33157380000921,65.53364099998726,1000,65.53364099998726,1000,1000,1000,1000,0,num_3,0.48134890000801533,,28,10,2026-03-05_16h21.46.900,2026A_exp2,2022.2.4,59.940610837156555,
1,0,6.1,0.0,0,0,8,8,56,,,,,66.0321192999836,66.68296459998237,66.68296459998237,67.18407700001262,315,45,67.18407700001262,67.18407700001262,67.18407700001262,67.18407700001262,67.18407700001262,67.18407700001262,67.18407700001262,67.18407700001262,67.18407700001262,67.53373109997483,67.53373109997483,67.53373109997483,67.53373109997483,67.53373109997483,67.53373109997483,67.53373109997483,67.53373109997483,67.53373109997483,0,1,[0.0012102000182494521],[0.35053689999040216],67.53373109997483,67.7340282999794,6.1,67.75069790001726,1,6.1,1,1,1000,num_4,1.1193546999711543,,28,10,2026-03-05_16h21.46.900,2026A_exp2,2022.2.4,59.940610837156555,
1,0,3.7,0.0,1,0,9,9,19,,,,,68.90205279999645,69.55242120003095,69.55242120003095,70.03665419999743,315,315,70.03665419999743,70.03665419999743,70.03665419999743,70.03665419999743,70.03665419999743,70.03665419999743,70.03665419999743,70.03665419999743,70.03665419999743,70.40301349997753,70.40301349997753,70.40301349997753,70.40301349997753,70.40301349997753,70.40301349997753,70.40301349997753,70.40301349997753,70.40301349997753,0,1,[0.0008574000094085932],[0.36777289997553453],70.40301349997753,70.60359060001792,0.0,70.60359060001792,0,0.0,0,1,1000,num_1,0.57967969996389,,28,10,2026-03-05_16h21.46.900,2026A_exp2,2022.2.4,59.940610837156555,
1000,1,0.0,0.0,1,0,10,10,33,,,,,71.20394259999739,71.85474149999209,71.85474149999209,72.3390668000211,45,45,72.3390668000211,72.3390668000211,72.3390668000211,72.3390668000211,72.3390668000211,72.3390668000211,72.3390668000211,72.3390668000211,72.3390668000211,72.7054675000254,72.7054675000254,72.7054675000254,72.7054675000254,72.7054675000254,72.7054675000254,72.7054675000254,72.7054675000254,72.7054675000254,0,1,[0.0011897999793291092],[0.3673115000128746],72.7054675000254,72.9074778999784,1000,72.9074778999784,1000,1000,1000,1000,0,num_3,0.6106921000173315,,28,10,2026-03-05_16h21.46.900,2026A_exp2,2022.2.4,59.940610837156555,
1000,1,3.7,0.0,0,0,11,11,57,,,,,73.53961440001149,74.19026750000194,74.19026750000194,74.6915990000125,315,315,74.6915990000125,74.6915990000125,74.6915990000125,74.6915990000125,74.6915990000125,74.6915990000125,74.6915990000125,74.6915990000125,74.6915990000125,75.05800379998982,75.05800379998982,75.05800379998982,75.05800379998982,75.05800379998982,75.05800379998982,75.05800379998982,75.05800379998982,75.05800379998982,0,1,[0.0012054999824613333],[0.36740239994833246],75.05800379998982,75.2598760999972,1000,75.2598760999972,1000,1000,1000,1000,0,num_3,0.618577599991113,,28,10,2026-03-05_16h21.46.900,2026A_exp2,2022.2.4,59.940610837156555,
1000,1,0.0,0.0,0,0,12,12,83,,,,,75.90871699998388,76.55944149999414,76.55944149999414,77.06050670001423,45,45,77.06050670001423,77.06050670001423,77.06050670001423,77.06050670001423,77.06050670001423,77.06050670001423,77.06050670001423,77.06050670001423,77.06050670001423,77.42684829997597,77.42684829997597,77.42684829997597,77.42684829997597,77.42684829997597,77.42684829997597,77.42684829997597,77.42684829997597,77.42684829997597,18,1,[0.0011899999808520079],[0.08345470001222566],77.42684829997597,77.62877449998632,1000,77.62877449998632,1000,1000,1000,1000,0,num_3,0.6491616999846883,,28,10,2026-03-05_16h21.46.900,2026A_exp2,2022.2.4,59.940610837156555,
1,0,6.1,4.9,0,0,13,13,24,,,,,78.29437199997483,78.94497309997678,78.94497309997678,79.44631329999538,45,315,79.44631329999538,79.44631329999538,79.44631329999538,79.44631329999538,79.44631329999538,79.44631329999538,79.44631329999538,79.44631329999538,79.44631329999538,79.81270760000916,79.81270760000916,79.81270760000916,79.81270760000916,79.81270760000916,79.81270760000916,79.81270760000916,79.81270760000916,79.81270760000916,23,0,,,79.81270760000916,80.01292429998284,6.1,80.01292429998284,1,6.1,1,1,1000,num_4,1.2811293000122532,,28,10,2026-03-05_16h21.46.900,2026A_exp2,2022.2.4,59.940610837156555,
1000,1,0.0,0.0,0,0,14,14,81,,,,,81.3140727999853,81.96497710002586,81.96497710002586,82.4492656000075,45,45,82.4492656000075,82.4492656000075,82.4492656000075,82.4492656000075,82.4492656000075,82.4492656000075,82.4492656000075,82.4492656000075,82.4492656000075,82.81559259997448,82.81559259997448,82.81559259997448,82.81559259997448,82.81559259997448,82.81559259997448,82.81559259997448,82.81559259997448,82.81559259997448,5,2,"[0.0012473000097088516, 0.30050730000948533]","[0.2166713000042364, 0.36714909999864176]",82.81559259997448,83.01779130002251,1000,83.01779130002251,1000,1000,1000,1000,1,num_2,1.0361593999550678,,28,10,2026-03-05_16h21.46.900,2026A_exp2,2022.2.4,59.940610837156555,
1000,1,0.0,6.1,1,0,15,15,88,,,,,84.08372479997342,84.73419410001952,84.73419410001952,85.23542340000859,315,45,85.23542340000859,85.23542340000859,85.23542340000859,85.23542340000859,85.23542340000859,85.23542340000859,85.23542340000859,85.23542340000859,85.23542340000859,85.6018876999733,85.6018876999733,85.6018876999733,85.6018876999733,85.6018876999733,85.6018876999733,85.6018876999733,85.6018876999733,85.6018876999733,23,0,,,85.6018876999733,85.80372989998432,1000,85.80372989998432,1000,1000,1000,1000,1,num_2,1.7943503000424244,,28,10,2026-03-05_16h21.46.900,2026A_exp2,2022.2.4,59.940610837156555,
0,0,6.1,3.7,1,0,16,16,49,,,,,87.62065330002224,88.27120680001099,88.27120680001099,88.77225380000891,45,315,88.77225380000891,88.77225380000891,88.77225380000891,88.77225380000891,88.77225380000891,88.77225380000891,88.77225380000891,88.77225380000891,88.77225380000891,89.12206610001158,89.12206610001158,89.12206610001158,89.12206610001158,89.12206610001158,89.12206610001158,89.12206610001158,89.12206610001158,89.12206610001158,22,0,,,89.12206610001158,89.3222734000301,6.1,89.3222734000301,0,6.1,1,0,1000,num_1,0.8357568000210449,,28,10,2026-03-05_16h21.46.900,2026A_exp2,2022.2.4,59.940610837156555,
1000,1,3.7,4.9,1,0,17,17,43,,,,,90.18959550000727,90.84040240000468,90.84040240000468,91.33004069997696,315,315,91.33004069997696,91.33004069997696,91.33004069997696,91.33004069997696,91.33004069997696,91.33004069997696,91.33004069997696,91.33004069997696,91.33004069997696,91.69125959998928,91.69125959998928,91.69125959998928,91.69125959998928,91.69125959998928,91.69125959998928,91.69125959998928,91.69125959998928,91.69125959998928,8,2,"[0.002600100007839501, 0.25042719999328256]","[0.2337722000083886, 0.2671614999999292]",91.69125959998928,91.89346749999095,1000,91.89346749999095,1000,1000,1000,1000,0,num_3,0.5536299999803305,,28,10,2026-03-05_16h21.46.900,2026A_exp2,2022.2.4,59.940610837156555,
1000,1,0.0,0.0,1,0,18,18,12,,,,,92.47548740002094,93.12608969997382,93.12608969997382,93.62720430002082,315,315,93.62720430002082,93.62720430002082,93.62720430002082,93.62720430002082,93.62720430002082,93.62720430002082,93.62720430002082,93.62720430002082,93.62720430002082,93.9767630000133,93.9767630000133,93.9767630000133,93.9767630000133,93.9767630000133,93.9767630000133,93.9767630000133,93.9767630000133,93.9767630000133,22,0,,,93.9767630000133,94.17867350002052,1000,94.19369570002891,1000,1000,1000,1000,0,num_3,0.6043081999523565,,28,10,2026-03-05_16h21.46.900,2026A_exp2,2022.2.4,59.940610837156555,
1000,1,3.7,4.9,1,0,19,19,44,,,,,94.82778799999505,95.47833100002026,95.47833100002026,95.97944800002733,315,45,95.97944800002733,95.97944800002733,95.97944800002733,95.97944800002733,95.97944800002733,95.97944800002733,95.97944800002733,95.97944800002733,95.97944800002733,96.34592729998985,96.34592729998985,96.34592729998985,96.34592729998985,96.34592729998985,96.34592729998985,96.34592729998985,96.34592729998985,96.34592729998985,23,0,,,96.34592729998985,96.54807030002121,1000,96.54807030002121,1000,1000,1000,1000,0,num_3,0.7146360999904573,,28,10,2026-03-05_16h21.46.900,2026A_exp2,2022.2.4,59.940610837156555,
1000,1,0.0,0.0,0,0,20,20,64,,,,,97.28029800002696,97.93089199997485,97.93089199997485,98.43211350002093,315,45,98.43211350002093,98.43211350002093,98.43211350002093,98.43211350002093,98.43211350002093,98.43211350002093,98.43211350002093,98.43211350002093,98.43211350002093,98.78177539998433,98.78177539998433,98.78177539998433,98.78177539998433,98.78177539998433,98.78177539998433,98.78177539998433,98.78177539998433,98.78177539998433,22,0,,,98.78177539998433,98.98349060001783,1000,98.98349060001783,1000,1000,1000,1000,1,num_2,0.5746612999937497,,28,10,2026-03-05_16h21.46.900,2026A_exp2,2022.2.4,59.940610837156555,
1,0,0.0,0.0,1,0,21,21,73,,,,,99.58258039999055,100.2329581999802,100.2329581999802,100.73425119998865,45,315,100.73425119998865,100.73425119998865,100.73425119998865,100.73425119998865,100.73425119998865,100.73425119998865,100.73425119998865,100.73425119998865,100.73425119998865,101.10063760000048,101.10063760000048,101.10063760000048,101.10063760000048,101.10063760000048,101.10063760000048,101.10063760000048,101.10063760000048,101.10063760000048,23,0,,,101.10063760000048,101.30073930002982,0.0,101.30073930002982,1,0.0,0,0,1000,num_4,1.033746000030078,,28,10,2026-03-05_16h21.46.900,2026A_exp2,2022.2.4,59.940610837156555,
1,0,3.7,0.0,0,0,22,22,42,,,,,102.35195159999421,103.00254610000411,103.00254610000411,103.48703560000286,45,315,103.48703560000286,103.48703560000286,103.48703560000286,103.48703560000286,103.48703560000286,103.48703560000286,103.48703560000286,103.48703560000286,103.48703560000286,103.85341739997966,103.85341739997966,103.85341739997966,103.85341739997966,103.85341739997966,103.85341739997966,103.85341739997966,103.85341739997966,103.85341739997966,23,0,,,103.85341739997966,104.05356640001992,3.7,104.05356640001992,1,3.7,1,1,1000,num_4,0.8962556000333279,,28,10,2026-03-05_16h21.46.900,2026A_exp2,2022.2.4,59.940610837156555,
1000,1,0.0,0.0,1,0,23,23,67,,,,,104.97116529999766,105.62169320002431,105.62169320002431,106.10655590001261,45,315,106.10655590001261,106.10655590001261,106.10655590001261,106.10655590001261,106.10655590001261,106.10655590001261,106.10655590001261,106.10655590001261,106.10655590001261,106.47258679999504,106.47258679999504,106.47258679999504,106.47258679999504,106.47258679999504,106.47258679999504,106.47258679999504,106.47258679999504,106.47258679999504,23,0,,,106.47258679999504,106.6746074000257,1000,106.6746074000257,1000,1000,1000,1000,0,num_3,0.6757169000338763,,28,10,2026-03-05_16h21.46.900,2026A_exp2,2022.2.4,59.940610837156555,
1000,1,0.0,4.9,1,0,24,24,59,,,,,107.37378060002811,108.02416029997403,108.02416029997403,108.52499990002252,45,45,108.52499990002252,108.52499990002252,108.52499990002252,108.52499990002252,108.52499990002252,108.52499990002252,108.52499990002252,108.52499990002252,108.52499990002252,108.8748401000048,108.8748401000048,108.8748401000048,108.8748401000048,108.8748401000048,108.8748401000048,108.8748401000048,108.8748401000048,108.8748401000048,22,0,,,108.8748401000048,109.07726380001986,1000,109.07726380001986,1000,1000,1000,1000,0,num_3,0.7447379000368528,,28,10,2026-03-05_16h21.46.900,2026A_exp2,2022.2.4,59.940610837156555,
1000,1,6.1,0.0,1,0,25,25,16,,,,,109.84278760000598,110.49340289999964,110.49340289999964,110.99442669999553,45,315,110.99442669999553,110.99442669999553,110.99442669999553,110.99442669999553,110.99442669999553,110.99442669999553,110.99442669999553,110.99442669999553,110.99442669999553,111.36096880002879,111.36096880002879,111.36096880002879,111.36096880002879,111.36096880002879,111.36096880002879,111.36096880002879,111.36096880002879,111.36096880002879,23,0,,,111.36096880002879,111.562802200031,1000,111.562802200031,1000,1000,1000,1000,0,num_3,1.4917467000195757,,28,10,2026-03-05_16h21.46.900,2026A_exp2,2022.2.4,59.940610837156555,
1,0,4.9,0.0,0,0,26,26,58,,,,,113.07937819999643,113.72992860001978,113.72992860001978,114.23109680000925,45,315,114.23109680000925,114.23109680000925,114.23109680000925,114.23109680000925,114.23109680000925,114.23109680000925,114.23109680000925,114.23109680000925,114.23109680000925,114.59754260000773,114.59754260000773,114.59754260000773,114.59754260000773,114.59754260000773,114.59754260000773,114.59754260000773,114.59754260000773,114.59754260000773,23,0,,,114.59754260000773,114.79771860002074,4.9,114.79771860002074,1,4.9,1,1,1000,num_4,1.1452656000037678,,28,10,2026-03-05_16h21.46.900,2026A_exp2,2022.2.4,59.940610837156555,
1,0,3.7,3.7,0,0,27,27,13,,,,,115.96554730000207,116.61615209997399,116.61615209997399,117.10056430002442,45,315,117.10056430002442,117.10056430002442,117.10056430002442,117.10056430002442,117.10056430002442,117.10056430002442,117.10056430002442,117.10056430002442,117.10056430002442,117.4670744999894,117.4670744999894,117.4670744999894,117.4670744999894,117.4670744999894,117.4670744999894,117.4670744999894,117.4670744999894,117.4670744999894,23,0,,,117.4670744999894,117.66709920001449,3.7,117.66709920001449,1,3.7,1,1,1000,num_4,0.7874987000250258,,28,10,2026-03-05_16h21.46.900,2026A_exp2,2022.2.4,59.940610837156555,
1,0,3.7,6.1,0,0,28,28,55,,,,,118.48461059998954,119.11861260002479,119.11861260002479,119.61986550001893,45,315,119.61986550001893,119.61986550001893,119.61986550001893,119.61986550001893,119.61986550001893,119.61986550001893,119.61986550001893,119.61986550001893,119.61986550001893,119.98621320002712,119.98621320002712,119.98621320002712,119.98621320002712,119.98621320002712,119.98621320002712,119.98621320002712,119.98621320002712,119.98621320002712,23,0,,,119.98621320002712,120.18646880000597,3.7,120.18646880000597,0,3.7,1,0,1000,num_1,1.3877694999682717,,28,10,2026-03-05_16h21.46.900,2026A_exp2,2022.2.4,59.940610837156555,
1,0,6.1,0.0,0,0,29,29,70,,,,,121.60457959998166,122.25501580000855,122.25501580000855,122.74365870002657,45,45,122.74365870002657,122.74365870002657,122.74365870002657,122.74365870002657,122.74365870002657,122.74365870002657,122.74365870002657,122.74365870002657,122.74365870002657,123.10582970001269,123.10582970001269,123.10582970001269,123.10582970001269,123.10582970001269,123.10582970001269,123.10582970001269,123.10582970001269,123.10582970001269,23,0,,,123.10582970001269,123.30618960002903,6.1,123.30618960002903,0,6.1,1,0,1000,num_1,0.6447986999992281,,28,10,2026-03-05_16h21.46.900,2026A_exp2,2022.2.4,59.940610837156555,
1000,1,6.1,0.0,0,0,30,30,14,,,,,123.9736644999939,124.607521500031,124.607521500031,125.10866620001616,315,45,125.10866620001616,125.10866620001616,125.10866620001616,125.10866620001616,125.10866620001616,125.10866620001616,125.10866620001616,125.10866620001616,125.10866620001616,125.47504619997926,125.47504619997926,125.47504619997926,125.47504619997926,125.47504619997926,125.47504619997926,125.47504619997926,125.47504619997926,125.47504619997926,23,0,,,125.47504619997926,125.6768780000275,1000,125.6768780000275,1000,1000,1000,1000,1,num_2,0.8498665999504738,,28,10,2026-03-05_16h21.46.900,2026A_exp2,2022.2.4,59.940610837156555,
1000,1,0.0,0.0,0,0,31,31,15,,,,,126.54275989998132,127.1933519000304,127.1933519000304,127.70733669999754,45,315,127.70733669999754,127.70733669999754,127.70733669999754,127.70733669999754,127.70733669999754,127.70733669999754,127.70733669999754,127.70733669999754,127.70733669999754,128.0441866000183,128.0441866000183,128.0441866000183,128.0441866000183,128.0441866000183,128.0441866000183,128.0441866000183,128.0441866000183,128.0441866000183,22,0,,,128.0441866000183,128.24681139999302,1000,128.26126679999288,1000,1000,1000,1000,0,num_3,0.8817083000321873,,28,10,2026-03-05_16h21.46.900,2026A_exp2,2022.2.4,59.940610837156555,
1000,1,0.0,0.0,1,0,32,32,27,,,,,129.1621748000034,129.81265089998487,129.81265089998487,130.3138802999747,315,45,130.3138802999747,130.3138802999747,130.3138802999747,130.3138802999747,130.3138802999747,130.3138802999747,130.3138802999747,130.3138802999747,130.3138802999747,130.6802835999988,130.6802835999988,130.6802835999988,130.6802835999988,130.6802835999988,130.6802835999988,130.6802835999988,130.6802835999988,130.6802835999988,23,0,,,130.6802835999988,130.8820953000104,1000,130.8820953000104,1000,1000,1000,1000,0,num_3,0.5880392999970354,,28,10,2026-03-05_16h21.46.900,2026A_exp2,2022.2.4,59.940610837156555,
1,0,0.0,6.1,0,0,33,33,60,,,,,131.49776370002655,132.1484797000303,132.1484797000303,132.6493220999837,315,315,132.6493220999837,132.6493220999837,132.6493220999837,132.6493220999837,132.6493220999837,132.6493220999837,132.6493220999837,132.6493220999837,132.6493220999837,133.01585440000053,133.01585440000053,133.01585440000053,133.01585440000053,133.01585440000053,133.01585440000053,133.01585440000053,133.01585440000053,133.01585440000053,23,0,,,133.01585440000053,133.2160206999979,0.0,133.2160206999979,0,0.0,0,1,1000,num_1,1.606023499974981,,28,10,2026-03-05_16h21.46.900,2026A_exp2,2022.2.4,59.940610837156555,
1000,1,0.0,0.0,0,0,34,34,74,,,,,134.85105340002337,135.50157820002642,135.50157820002642,135.98607009998523,45,315,135.98607009998523,135.98607009998523,135.98607009998523,135.98607009998523,135.98607009998523,135.98607009998523,135.98607009998523,135.98607009998523,135.98607009998523,136.35239680000814,136.35239680000814,136.35239680000814,136.35239680000814,136.35239680000814,136.35239680000814,136.35239680000814,136.35239680000814,136.35239680000814,23,0,,,136.35239680000814,136.55466889997479,1000,136.55466889997479,1000,1000,1000,1000,0,num_3,0.73158899997361,,28,10,2026-03-05_16h21.46.900,2026A_exp2,2022.2.4,59.940610837156555,
1000,1,0.0,0.0,0,0,35,35,17,,,,,137.30357069999445,137.95422810001764,137.95422810001764,138.45500289998017,45,315,138.45500289998017,138.45500289998017,138.45500289998017,138.45500289998017,138.45500289998017,138.45500289998017,138.45500289998017,138.45500289998017,138.45500289998017,138.82173660001718,138.82173660001718,138.82173660001718,138.82173660001718,138.82173660001718,138.82173660001718,138.82173660001718,138.82173660001718,138.82173660001718,23,0,,,138.82173660001718,139.02413179998985,1000,139.02413179998985,1000,1000,1000,1000,0,num_3,0.9821032999898307,,28,10,2026-03-05_16h21.46.900,2026A_exp2,2022.2.4,59.940610837156555,
1000,1,3.7,0.0,0,0,36,36,45,,,,,140.02298700000392,140.67351029999554,140.67351029999554,141.17458240000997,45,45,141.17458240000997,141.17458240000997,141.17458240000997,141.17458240000997,141.17458240000997,141.17458240000997,141.17458240000997,141.17458240000997,141.17458240000997,141.54114829999162,141.54114829999162,141.54114829999162,141.54114829999162,141.54114829999162,141.54114829999162,141.54114829999162,141.54114829999162,141.54114829999162,23,0,,,141.54114829999162,141.74726789997658,1000,141.74726789997658,1000,1000,1000,1000,0,num_3,0.578945700020995,,28,10,2026-03-05_16h21.46.900,2026A_exp2,2022.2.4,59.940610837156555,
1,0,4.9,0.0,1,0,37,37,8,,,,,142.3419740999816,142.99258840002585,142.99258840002585,143.49359069997445,315,315,143.49359069997445,143.49359069997445,143.49359069997445,143.49359069997445,143.49359069997445,143.49359069997445,143.49359069997445,143.49359069997445,143.49359069997445,143.85992110002553,143.85992110002553,143.85992110002553,143.85992110002553,143.85992110002553,143.85992110002553,143.85992110002553,143.85992110002553,143.85992110002553,23,0,,,143.85992110002553,144.06022380001377,0.0,144.06022380001377,1,0.0,0,0,1000,num_4,1.4748884000000544,,28,10,2026-03-05_16h21.46.900,2026A_exp2,2022.2.4,59.940610837156555,
1,0,0.0,4.9,0,0,38,38,4,,,,,145.56151289999252,146.19571499997983,146.19571499997983,146.69673490000423,315,45,146.69673490000423,146.69673490000423,146.69673490000423,146.69673490000423,146.69673490000423,146.69673490000423,146.69673490000423,146.69673490000423,146.69673490000423,147.0633127000183,147.0633127000183,147.0633127000183,147.0633127000183,147.0633127000183,147.0633127000183,147.0633127000183,147.0633127000183,147.0633127000183,23,0,,,147.0633127000183,147.26335770002333,0.0,147.26335770002333,0,0.0,0,1,1000,num_1,0.7673711000243202,,28,10,2026-03-05_16h21.46.900,2026A_exp2,2022.2.4,59.940610837156555,
1000,1,0.0,0.0,0,0,39,39,80,,,,,148.0476296999841,148.69814749999205,148.69814749999205,149.18270589999156,315,45,149.18270589999156,149.18270589999156,149.18270589999156,149.18270589999156,149.18270589999156,149.18270589999156,149.18270589999156,149.18270589999156,149.18270589999156,149.54904449998867,149.54904449998867,149.54904449998867,149.54904449998867,149.54904449998867,149.54904449998867,149.54904449998867,149.54904449998867,149.54904449998867,23,0,,,149.54904449998867,149.7509203000227,1000,149.7509203000227,1000,1000,1000,1000,1,num_2,0.8229570999974385,,28,10,2026-03-05_16h21.46.900,2026A_exp2,2022.2.4,59.940610837156555,
0,0,4.9,0.0,1,0,40,40,25,,,,,150.59995439997874,151.23413860000437,151.23413860000437,151.73530729999766,45,45,151.73530729999766,151.73530729999766,151.73530729999766,151.73530729999766,151.73530729999766,151.73530729999766,151.73530729999766,151.73530729999766,151.73530729999766,152.10135850001825,152.10135850001825,152.10135850001825,152.10135850001825,152.10135850001825,152.10135850001825,152.10135850001825,152.10135850001825,152.10135850001825,23,0,,,152.10135850001825,152.30417850002414,4.9,152.30417850002414,0,4.9,1,0,1000,num_1,2.3498281000065617,,28,10,2026-03-05_16h21.46.900,2026A_exp2,2022.2.4,59.940610837156555,
1,0,0.0,6.1,0,0,41,41,11,,,,,154.67096319998382,155.32151779998094,155.32151779998094,155.822574299993,45,315,155.822574299993,155.822574299993,155.822574299993,155.822574299993,155.822574299993,155.822574299993,155.822574299993,155.822574299993,155.822574299993,156.18892210000195,156.18892210000195,156.18892210000195,156.18892210000195,156.18892210000195,156.18892210000195,156.18892210000195,156.18892210000195,156.18892210000195,23,0,,,156.18892210000195,156.3891989000258,0.0,156.3891989000258,0,0.0,0,1,1000,num_1,1.6093027000315487,,28,10,2026-03-05_16h21.46.900,2026A_exp2,2022.2.4,59.940610837156555,
1000,1,0.0,3.7,0,0,42,42,51,,,,,158.02425550000044,158.67483809997793,158.67483809997793,159.15925419999985,45,315,159.15925419999985,159.15925419999985,159.15925419999985,159.15925419999985,159.15925419999985,159.15925419999985,159.15925419999985,159.15925419999985,159.15925419999985,159.52567379997345,159.52567379997345,159.52567379997345,159.52567379997345,159.52567379997345,159.52567379997345,159.52567379997345,159.52567379997345,159.52567379997345,23,0,,,159.52567379997345,159.72815719997743,1000,159.72815719997743,1000,1000,1000,1000,1,num_2,1.0545886000036262,,28,10,2026-03-05_16h21.46.900,2026A_exp2,2022.2.4,59.940610837156555,
1000,1,0.0,6.1,0,0,43,43,37,,,,,160.81051630002912,161.46092490002047,161.46092490002047,161.96210780000547,45,45,161.96210780000547,161.96210780000547,161.96210780000547,161.96210780000547,161.96210780000547,161.96210780000547,161.96210780000547,161.96210780000547,161.96210780000547,162.3118466999731,162.3118466999731,162.3118466999731,162.3118466999731,162.3118466999731,162.3118466999731,162.3118466999731,162.3118466999731,162.3118466999731,22,0,,,162.3118466999731,162.51390670001274,1000,162.51390670001274,1000,1000,1000,1000,0,num_3,0.9889110999647528,,28,10,2026-03-05_16h21.46.900,2026A_exp2,2022.2.4,59.940610837156555,
1,0,0.0,4.9,1,0,44,44,53,,,,,163.5298890999984,164.18047199997818,164.18047199997818,164.68163760000607,315,315,164.68163760000607,164.68163760000607,164.68163760000607,164.68163760000607,164.68163760000607,164.68163760000607,164.68163760000607,164.68163760000607,164.68163760000607,165.04779929999495,165.04779929999495,165.04779929999495,165.04779929999495,165.04779929999495,165.04779929999495,165.04779929999495,165.04779929999495,165.04779929999495,23,0,,,165.04779929999495,165.24809980002465,4.9,165.24809980002465,1,4.9,1,1,1000,num_4,1.0390104000107385,,28,10,2026-03-05_16h21.46.900,2026A_exp2,2022.2.4,59.940610837156555,
1000,1,0.0,4.9,1,0,45,45,79,,,,,166.31593490001978,166.96652100002393,166.96652100002393,167.45087449997663,45,315,167.45087449997663,167.45087449997663,167.45087449997663,167.45087449997663,167.45087449997663,167.45087449997663,167.45087449997663,167.45087449997663,167.45087449997663,167.81742839998333,167.81742839998333,167.81742839998333,167.81742839998333,167.81742839998333,167.81742839998333,167.81742839998333,167.81742839998333,167.81742839998333,23,0,,,167.81742839998333,168.04022740002256,1000,168.04022740002256,1000,1000,1000,1000,0,num_3,0.621930000022985,,28,10,2026-03-05_16h21.46.900,2026A_exp2,2022.2.4,59.940610837156555,
1,0,0.0,4.9,1,0,46,46,21,,,,,168.68462379998527,169.3188626000192,169.3188626000192,169.81999340001494,45,315,169.81999340001494,169.81999340001494,169.81999340001494,169.81999340001494,169.81999340001494,169.81999340001494,169.81999340001494,169.81999340001494,169.81999340001494,170.1864716000273,170.1864716000273,170.1864716000273,170.1864716000273,170.1864716000273,170.1864716000273,170.1864716000273,170.1864716000273,170.1864716000273,23,0,,,170.1864716000273,170.38668599998346,4.9,170.38668599998346,0,4.9,1,0,1000,num_1,1.1077347000245936,,28,10,2026-03-05_16h21.46.900,2026A_exp2,2022.2.4,59.940610837156555,
1,0,0.0,6.1,0,0,47,47,34,,,,,171.52117219998036,172.17164979997324,172.17164979997324,172.65619250002783,45,45,172.65619250002783,172.65619250002783,172.65619250002783,172.65619250002783,172.65619250002783,172.65619250002783,172.65619250002783,172.65619250002783,172.65619250002783,173.022550099995,173.022550099995,173.022550099995,173.022550099995,173.022550099995,173.022550099995,173.022550099995,173.022550099995,173.022550099995,23,0,,,173.022550099995,173.2228247000021,0.0,173.2228247000021,0,0.0,0,1,1000,num_1,0.9991013999679126,,28,10,2026-03-05_16h21.46.900,2026A_exp2,2022.2.4,59.940610837156555,
1,0,6.1,4.9,0,0,48,48,39,,,,,174.24049970001215,174.8911769000115,174.8911769000115,175.3754321000306,45,45,175.3754321000306,175.3754321000306,175.3754321000306,175.3754321000306,175.3754321000306,175.3754321000306,175.3754321000306,175.3754321000306,175.3754321000306,175.74197139998432,175.74197139998432,175.74197139998432,175.74197139998432,175.74197139998432,175.74197139998432,175.74197139998432,175.74197139998432,175.74197139998432,23,0,,,175.74197139998432,175.94223139999667,6.1,175.94223139999667,1,6.1,1,1,1000,num_4,0.6968467999831773,,28,10,2026-03-05_16h21.46.900,2026A_exp2,2022.2.4,59.940610837156555,
1,0,0.0,0.0,0,0,49,49,29,,,,,176.65951680002036,177.31026960001327,177.31026960001327,177.79451939999126,315,45,177.79451939999126,177.79451939999126,177.79451939999126,177.79451939999126,177.79451939999126,177.79451939999126,177.79451939999126,177.79451939999126,177.79451939999126,178.1610918000224,178.1610918000224,178.1610918000224,178.1610918000224,178.1610918000224,178.1610918000224,178.1610918000224,178.1610918000224,178.1610918000224,23,0,,,178.1610918000224,178.36121910001384,0.0,178.36121910001384,0,0.0,0,1,1000,num_1,0.6299996000016108,,28,10,2026-03-05_16h21.46.900,2026A_exp2,2022.2.4,59.940610837156555,
1,0,0.0,3.7,0,0,50,50,35,,,,,179.01186580001377,179.66251809999812,179.66251809999812,180.1468859000015,315,45,180.1468859000015,180.1468859000015,180.1468859000015,180.1468859000015,180.1468859000015,180.1468859000015,180.1468859000015,180.1468859000015,180.1468859000015,180.5134416000219,180.5134416000219,180.5134416000219,180.5134416000219,180.5134416000219,180.5134416000219,180.5134416000219,180.5134416000219,180.5134416000219,23,0,,,180.5134416000219,180.71352559997467,0.0,180.71352559997467,1,0.0,0,0,1000,num_4,0.7812201000051573,,28,10,2026-03-05_16h21.46.900,2026A_exp2,2022.2.4,59.940610837156555,
1000,1,6.1,0.0,1,0,51,51,68,,,,,181.51444200001424,182.16500949999318,182.16500949999318,182.64939019997837,315,45,182.64939019997837,182.64939019997837,182.64939019997837,182.64939019997837,182.64939019997837,182.64939019997837,182.64939019997837,182.64939019997837,182.64939019997837,183.01593759999378,183.01593759999378,183.01593759999378,183.01593759999378,183.01593759999378,183.01593759999378,183.01593759999378,183.01593759999378,183.01593759999378,23,0,,,183.01593759999378,183.21760319999885,1000,183.21760319999885,1000,1000,1000,1000,0,num_3,0.724422900006175,,28,10,2026-03-05_16h21.46.900,2026A_exp2,2022.2.4,59.940610837156555,
1000,1,0.0,0.0,0,0,52,52,85,,,,,183.96692789997905,184.61746520001907,184.61746520001907,185.11865459999535,315,315,185.11865459999535,185.11865459999535,185.11865459999535,185.11865459999535,185.11865459999535,185.11865459999535,185.11865459999535,185.11865459999535,185.11865459999535,185.48498539999127,185.48498539999127,185.48498539999127,185.48498539999127,185.48498539999127,185.48498539999127,185.48498539999127,185.48498539999127,185.48498539999127,23,0,,,185.48498539999127,185.68719329999294,1000,185.68719329999294,1000,1000,1000,1000,0,num_3,0.7028565000509843,,28,10,2026-03-05_16h21.46.900,2026A_exp2,2022.2.4,59.940610837156555,
1000,1,0.0,4.9,1,0,53,53,31,,,,,186.41937740001595,187.0698661999777,187.0698661999777,187.57105199998477,45,315,187.57105199998477,187.57105199998477,187.57105199998477,187.57105199998477,187.57105199998477,187.57105199998477,187.57105199998477,187.57105199998477,187.57105199998477,187.93752079998376,187.93752079998376,187.93752079998376,187.93752079998376,187.93752079998376,187.93752079998376,187.93752079998376,187.93752079998376,187.93752079998376,23,0,,,187.93752079998376,188.13980060000904,1000,188.13980060000904,1000,1000,1000,1000,1,num_2,0.8030719999806024,,28,10,2026-03-05_16h21.46.900,2026A_exp2,2022.2.4,59.940610837156555,
1000,1,0.0,0.0,1,0,54,54,23,,,,,188.97190589999082,189.62246699997922,189.62246699997922,190.12357360002352,45,315,190.12357360002352,190.12357360002352,190.12357360002352,190.12357360002352,190.12357360002352,190.12357360002352,190.12357360002352,190.12357360002352,190.12357360002352,190.4900957000209,190.4900957000209,190.4900957000209,190.4900957000209,190.4900957000209,190.4900957000209,190.4900957000209,190.4900957000209,190.4900957000209,23,0,,,190.4900957000209,190.69243060000008,1000,190.69243060000008,1000,1000,1000,1000,0,num_3,0.7704887000145391,,28,10,2026-03-05_16h21.46.900,2026A_exp2,2022.2.4,59.940610837156555,
1,0,0.0,6.1,1,0,55,55,52,,,,,191.49109299998963,192.14164220000384,192.14164220000384,192.64272880001226,45,45,192.64272880001226,192.64272880001226,192.64272880001226,192.64272880001226,192.64272880001226,192.64272880001226,192.64272880001226,192.64272880001226,192.64272880001226,193.00922990002437,193.00922990002437,193.00922990002437,193.00922990002437,193.00922990002437,193.00922990002437,193.00922990002437,193.00922990002437,193.00922990002437,23,0,,,193.00922990002437,193.2094408000121,6.1,193.2094408000121,1,6.1,1,1,1000,num_4,1.0363500000094064,,28,10,2026-03-05_16h21.46.900,2026A_exp2,2022.2.4,59.940610837156555,
1,0,0.0,6.1,1,0,56,56,36,,,,,194.27703860000474,194.92783030000282,194.92783030000282,195.4122875999892,45,45,195.4122875999892,195.4122875999892,195.4122875999892,195.4122875999892,195.4122875999892,195.4122875999892,195.4122875999892,195.4122875999892,195.4122875999892,195.77873610000825,195.77873610000825,195.77873610000825,195.77873610000825,195.77873610000825,195.77873610000825,195.77873610000825,195.77873610000825,195.77873610000825,23,0,,,195.77873610000825,195.97887470002752,6.1,195.97887470002752,1,6.1,1,1,1000,num_4,0.6760932999895886,,28,10,2026-03-05_16h21.46.900,2026A_exp2,2022.2.4,59.940610837156555,
1,0,0.0,6.1,1,0,57,57,40,,,,,196.67960350000067,197.33011709997663,197.33011709997663,197.81445419997908,45,315,197.81445419997908,197.81445419997908,197.81445419997908,197.81445419997908,197.81445419997908,197.81445419997908,197.81445419997908,197.81445419997908,197.81445419997908,198.18109410000034,198.18109410000034,198.18109410000034,198.18109410000034,198.18109410000034,198.18109410000034,198.18109410000034,198.18109410000034,198.18109410000034,23,0,,,198.18109410000034,198.38124030001927,6.1,198.38124030001927,0,6.1,1,0,1000,num_1,0.8175066999974661,,28,10,2026-03-05_16h21.46.900,2026A_exp2,2022.2.4,59.940610837156555,
1,0,0.0,0.0,0,0,58,58,63,,,,,199.2154569000122,199.86610380001366,199.86610380001366,200.36724549997598,315,45,200.36724549997598,200.36724549997598,200.36724549997598,200.36724549997598,200.36724549997598,200.36724549997598,200.36724549997598,200.36724549997598,200.36724549997598,200.71708269999363,200.71708269999363,200.71708269999363,200.71708269999363,200.71708269999363,200.71708269999363,200.71708269999363,200.71708269999363,200.71708269999363,22,0,,,200.71708269999363,200.91694919997826,0.0,200.91694919997826,1,0.0,0,0,1000,num_4,0.5209823999903165,,28,10,2026-03-05_16h21.46.900,2026A_exp2,2022.2.4,59.940610837156555,
1,0,0.0,3.7,1,0,59,59,41,,,,,201.46775040001376,202.11838250001892,202.11838250001892,202.6025453999755,45,315,202.6025453999755,202.6025453999755,202.6025453999755,202.6025453999755,202.6025453999755,202.6025453999755,202.6025453999755,202.6025453999755,202.6025453999755,202.9692025000113,202.9692025000113,202.9692025000113,202.9692025000113,202.9692025000113,202.9692025000113,202.9692025000113,202.9692025000113,202.9692025000113,23,0,,,202.9692025000113,203.1694429999916,3.7,203.1694429999916,1,3.7,1,1,1000,num_4,0.6204750000033528,,28,10,2026-03-05_16h21.46.900,2026A_exp2,2022.2.4,59.940610837156555,
1,0,3.7,0.0,0,0,60,60,3,,,,,203.81997920002323,204.47056049999082,204.47056049999082,204.9566507000127,45,45,204.9566507000127,204.9566507000127,204.9566507000127,204.9566507000127,204.9566507000127,204.9566507000127,204.9566507000127,204.9566507000127,204.9566507000127,205.32166299998062,205.32166299998062,205.32166299998062,205.32166299998062,205.32166299998062,205.32166299998062,205.32166299998062,205.32166299998062,205.32166299998062,23,0,,,205.32166299998062,205.5250302000204,3.7,205.5250302000204,1,3.7,1,1,1000,num_4,1.0334157000179403,,28,10,2026-03-05_16h21.46.900,2026A_exp2,2022.2.4,59.940610837156555,
1000,1,0.0,3.7,1,0,61,61,47,,,,,206.58953629998723,207.24014680000255,207.24014680000255,207.7411473999964,315,315,207.7411473999964,207.7411473999964,207.7411473999964,207.7411473999964,207.7411473999964,207.7411473999964,207.7411473999964,207.7411473999964,207.7411473999964,208.1075527999783,208.1075527999783,208.1075527999783,208.1075527999783,208.1075527999783,208.1075527999783,208.1075527999783,208.1075527999783,208.1075527999783,23,0,,,208.1075527999783,208.31456319999415,1000,208.31456319999415,1000,1000,1000,1000,0,num_3,0.8363971999497153,,28,10,2026-03-05_16h21.46.900,2026A_exp2,2022.2.4,59.940610837156555,
1000,1,4.9,0.0,1,0,62,62,72,,,,,209.17541630001506,209.82609879999654,209.82609879999654,210.32720010000048,315,315,210.32720010000048,210.32720010000048,210.32720010000048,210.32720010000048,210.32720010000048,210.32720010000048,210.32720010000048,210.32720010000048,210.32720010000048,210.69318950001616,210.69318950001616,210.69318950001616,210.69318950001616,210.69318950001616,210.69318950001616,210.69318950001616,210.69318950001616,210.69318950001616,23,0,,,210.69318950001616,210.89577479998115,1000,210.89577479998115,1000,1000,1000,1000,1,num_2,0.43843769998056814,,28,10,2026-03-05_16h21.46.900,2026A_exp2,2022.2.4,59.940610837156555,
0,0,0.0,3.7,1,0,63,63,10,,,,,211.36097849998623,212.0115521000116,212.0115521000116,212.49591619998682,45,315,212.49591619998682,212.49591619998682,212.49591619998682,212.49591619998682,212.49591619998682,212.49591619998682,212.49591619998682,212.49591619998682,212.49591619998682,212.86228900001151,212.86228900001151,212.86228900001151,212.86228900001151,212.86228900001151,212.86228900001151,212.86228900001151,212.86228900001151,212.86228900001151,23,0,,,212.86228900001151,213.06261169997742,0.0,213.06261169997742,0,0.0,0,1,1000,num_1,1.6164026000187732,,28,10,2026-03-05_16h21.46.900,2026A_exp2,2022.2.4,59.940610837156555,
1,0,3.7,0.0,0,0,64,64,65,,,,,214.6975902999984,215.34840339998482,215.34840339998482,215.83269389998168,45,45,215.83269389998168,215.83269389998168,215.83269389998168,215.83269389998168,215.83269389998168,215.83269389998168,215.83269389998168,215.83269389998168,215.83269389998168,216.19905539997853,216.19905539997853,216.19905539997853,216.19905539997853,216.19905539997853,216.19905539997853,216.19905539997853,216.19905539997853,216.19905539997853,23,0,,,216.19905539997853,216.39923789998284,3.7,216.39923789998284,0,3.7,1,0,1000,num_1,1.1507167000090703,,28,10,2026-03-05_16h21.46.900,2026A_exp2,2022.2.4,59.940610837156555,
1000,1,3.7,6.1,0,0,65,65,0,,,,,217.56714140000986,218.21775589999743,218.21775589999743,218.70225430000573,315,315,218.70225430000573,218.70225430000573,218.70225430000573,218.70225430000573,218.70225430000573,218.70225430000573,218.70225430000573,218.70225430000573,218.70225430000573,219.06855540000834,219.06855540000834,219.06855540000834,219.06855540000834,219.06855540000834,219.06855540000834,219.06855540000834,219.06855540000834,219.06855540000834,23,0,,,219.06855540000834,219.26890889997594,1000,219.26890889997594,1000,1000,1000,1000,0,num_3,0.7131591999786906,,28,10,2026-03-05_16h21.46.900,2026A_exp2,2022.2.4,59.940610837156555,
1000,1,6.1,0.0,1,0,66,66,69,,,,,220.00286810001126,220.65345310000703,220.65345310000703,221.15466549998382,45,45,221.15466549998382,221.15466549998382,221.15466549998382,221.15466549998382,221.15466549998382,221.15466549998382,221.15466549998382,221.15466549998382,221.15466549998382,221.52081359998556,221.52081359998556,221.52081359998556,221.52081359998556,221.52081359998556,221.52081359998556,221.52081359998556,221.52081359998556,221.52081359998556,23,0,,,221.52081359998556,221.72340429999167,1000,221.72340429999167,1000,1000,1000,1000,1,num_2,0.371931100031361,,28,10,2026-03-05_16h21.46.900,2026A_exp2,2022.2.4,59.940610837156555,
1000,1,0.0,6.1,1,0,67,67,62,,,,,222.12180000002263,222.7725620000274,222.7725620000274,223.2745477000135,45,315,223.2745477000135,223.2745477000135,223.2745477000135,223.2745477000135,223.2745477000135,223.2745477000135,223.2745477000135,223.2745477000135,223.2745477000135,223.6232451000251,223.6232451000251,223.6232451000251,223.6232451000251,223.6232451000251,223.6232451000251,223.6232451000251,223.6232451000251,223.6232451000251,22,0,,,223.6232451000251,223.8245127000264,1000,223.8401003999752,1000,1000,1000,1000,1,num_2,0.5503981999936514,,28,10,2026-03-05_16h21.46.900,2026A_exp2,2022.2.4,59.940610837156555,
1,0,3.7,0.0,1,0,68,68,50,,,,,224.40729639999336,225.05788450001273,225.05788450001273,225.55894700001227,315,45,225.55894700001227,225.55894700001227,225.55894700001227,225.55894700001227,225.55894700001227,225.55894700001227,225.55894700001227,225.55894700001227,225.55894700001227,225.9256262999843,225.9256262999843,225.9256262999843,225.9256262999843,225.9256262999843,225.9256262999843,225.9256262999843,225.9256262999843,225.9256262999843,23,0,,,225.9256262999843,226.1257226000307,0.0,226.1257226000307,0,0.0,0,1,1000,num_1,0.9288298999890685,,28,10,2026-03-05_16h21.46.900,2026A_exp2,2022.2.4,59.940610837156555,
1,0,0.0,3.7,1,0,69,69,66,,,,,227.07659429998603,227.72727159998612,227.72727159998612,228.21173340000678,45,315,228.21173340000678,228.21173340000678,228.21173340000678,228.21173340000678,228.21173340000678,228.21173340000678,228.21173340000678,228.21173340000678,228.21173340000678,228.57770600001095,228.57770600001095,228.57770600001095,228.57770600001095,228.57770600001095,228.57770600001095,228.57770600001095,228.57770600001095,228.57770600001095,23,0,,,228.57770600001095,228.77854879997903,3.7,228.77854879997903,0,3.7,1,0,1000,num_1,0.5239594000158831,,28,10,2026-03-05_16h21.46.900,2026A_exp2,2022.2.4,59.940610837156555,
1,0,0.0,0.0,1,0,70,70,87,,,,,229.32892390002962,229.97947120002937,229.97947120002937,230.48071279999567,315,45,230.48071279999567,230.48071279999567,230.48071279999567,230.48071279999567,230.48071279999567,230.48071279999567,230.48071279999567,230.48071279999567,230.48071279999567,230.84692189999623,230.84692189999623,230.84692189999623,230.84692189999623,230.84692189999623,230.84692189999623,230.84692189999623,230.84692189999623,230.84692189999623,23,0,,,230.84692189999623,231.04724069999065,0.0,231.04724069999065,0,0.0,0,1,1000,num_1,0.478928399970755,,28,10,2026-03-05_16h21.46.900,2026A_exp2,2022.2.4,59.940610837156555,
1000,1,6.1,6.1,1,0,71,71,77,,,,,231.5478042999748,232.19828309997683,232.19828309997683,232.6828709000256,45,315,232.6828709000256,232.6828709000256,232.6828709000256,232.6828709000256,232.6828709000256,232.6828709000256,232.6828709000256,232.6828709000256,232.6828709000256,233.04931279999437,233.04931279999437,233.04931279999437,233.04931279999437,233.04931279999437,233.04931279999437,233.04931279999437,233.04931279999437,233.04931279999437,8,2,"[0.11679809994529933, 0.16668379999464378]","[0.1500125000020489, 0.3673751999740489]",233.04931279999437,233.2514824999962,1000,233.2514824999962,1000,1000,1000,1000,0,num_3,0.7230798000236973,,28,10,2026-03-05_16h21.46.900,2026A_exp2,2022.2.4,59.940610837156555,
1000,1,4.9,6.1,1,0,72,72,28,,,,,234.0003031999804,234.65071750001516,234.65071750001516,235.13490499998443,315,45,235.13490499998443,235.13490499998443,235.13490499998443,235.13490499998443,235.13490499998443,235.13490499998443,235.13490499998443,235.13490499998443,235.13490499998443,235.50169740000274,235.50169740000274,235.50169740000274,235.50169740000274,235.50169740000274,235.50169740000274,235.50169740000274,235.50169740000274,235.50169740000274,23,0,,,235.50169740000274,235.7038043999928,1000,235.7038043999928,1000,1000,1000,1000,0,num_3,0.6715335000189953,,28,10,2026-03-05_16h21.46.900,2026A_exp2,2022.2.4,59.940610837156555,
1000,1,4.9,3.7,0,0,73,73,32,,,,,236.4026999999769,237.05316250002943,237.05316250002943,237.5544173999806,315,45,237.5544173999806,237.5544173999806,237.5544173999806,237.5544173999806,237.5544173999806,237.5544173999806,237.5544173999806,237.5544173999806,237.5544173999806,237.92073830001755,237.92073830001755,237.92073830001755,237.92073830001755,237.92073830001755,237.92073830001755,237.92073830001755,237.92073830001755,237.92073830001755,23,0,,,237.92073830001755,238.12261060002493,1000,238.12261060002493,1000,1000,1000,1000,0,num_3,0.6596181000350043,,28,10,2026-03-05_16h21.46.900,2026A_exp2,2022.2.4,59.940610837156555,
1,0,0.0,0.0,0,0,74,74,1,,,,,238.805058500031,239.4558309999993,239.4558309999993,239.95673600002192,315,315,239.95673600002192,239.95673600002192,239.95673600002192,239.95673600002192,239.95673600002192,239.95673600002192,239.95673600002192,239.95673600002192,239.95673600002192,240.30645189998904,240.30645189998904,240.30645189998904,240.30645189998904,240.30645189998904,240.30645189998904,240.30645189998904,240.30645189998904,240.30645189998904,22,0,,,240.30645189998904,240.51977820001775,0.0,240.51977820001775,0,0.0,0,1,1000,num_1,0.8142612000228837,,28,10,2026-03-05_16h21.46.900,2026A_exp2,2022.2.4,59.940610837156555,
1,0,4.9,0.0,1,0,75,75,38,,,,,241.35760200000368,241.99156920000678,241.99156920000678,242.49356299999636,315,45,242.49356299999636,242.49356299999636,242.49356299999636,242.49356299999636,242.49356299999636,242.49356299999636,242.49356299999636,242.49356299999636,242.49356299999636,242.85870789998444,242.85870789998444,242.85870789998444,242.85870789998444,242.85870789998444,242.85870789998444,242.85870789998444,242.85870789998444,242.85870789998444,23,0,,,242.85870789998444,243.05943530000513,0.0,243.05943530000513,0,0.0,0,1,1000,num_1,0.7151668000151403,,28,10,2026-03-05_16h21.46.900,2026A_exp2,2022.2.4,59.940610837156555,
1000,1,4.9,0.0,1,0,76,76,22,,,,,243.79356989997905,244.44394299999112,244.44394299999112,244.94498380000005,45,315,244.94498380000005,244.94498380000005,244.94498380000005,244.94498380000005,244.94498380000005,244.94498380000005,244.94498380000005,244.94498380000005,244.94498380000005,245.3115606000065,245.3115606000065,245.3115606000065,245.3115606000065,245.3115606000065,245.3115606000065,245.3115606000065,245.3115606000065,245.3115606000065,23,0,,,245.3115606000065,245.51336649997393,1000,245.51336649997393,1000,1000,1000,1000,0,num_3,0.6132043999969028,,28,10,2026-03-05_16h21.46.900,2026A_exp2,2022.2.4,59.940610837156555,
1000,1,0.0,0.0,0,0,77,77,86,,,,,246.14583489997312,246.79635269998107,246.79635269998107,247.29721970000537,315,45,247.29721970000537,247.29721970000537,247.29721970000537,247.29721970000537,247.29721970000537,247.29721970000537,247.29721970000537,247.29721970000537,247.29721970000537,247.64720349997515,247.64720349997515,247.64720349997515,247.64720349997515,247.64720349997515,247.64720349997515,247.64720349997515,247.64720349997515,247.64720349997515,0,1,[0.0012101000174880028],[0.3504611999960616],247.64720349997515,247.84972330002347,1000,247.86407519999193,1000,1000,1000,1000,0,num_3,0.46229669998865575,,28,10,2026-03-05_16h21.46.900,2026A_exp2,2022.2.4,59.940610837156555,
1000,1,4.9,6.1,0,0,78,78,20,,,,,248.34819450002396,248.99854950001463,248.99854950001463,249.49970330001088,45,45,249.49970330001088,249.49970330001088,249.49970330001088,249.49970330001088,249.49970330001088,249.49970330001088,249.49970330001088,249.49970330001088,249.49970330001088,249.86603909998666,249.86603909998666,249.86603909998666,249.86603909998666,249.86603909998666,249.86603909998666,249.86603909998666,249.86603909998666,249.86603909998666,0,1,[0.001193600008264184],[0.3672594999661669],249.86603909998666,250.0679770000279,1000,250.0679770000279,1000,1000,1000,1000,1,num_2,0.43403089995263144,,28,10,2026-03-05_16h21.46.900,2026A_exp2,2022.2.4,59.940610837156555,
0,0,0.0,0.0,1,0,79,79,89,,,,,250.53348480002023,251.18411620002007,251.18411620002007,251.68523609999102,45,315,251.68523609999102,251.68523609999102,251.68523609999102,251.68523609999102,251.68523609999102,251.68523609999102,251.68523609999102,251.68523609999102,251.68523609999102,252.05163750000065,252.05163750000065,252.05163750000065,252.05163750000065,252.05163750000065,252.05163750000065,252.05163750000065,252.05163750000065,252.05163750000065,11,4,"[0.0011911999899894, 0.08362329995725304, 0.1336872999672778, 0.3172177999513224]","[0.06691679998766631, 0.1168887999956496, 0.16691519995220006, 0.3672000999795273]",252.05163750000065,252.25186890002806,0.0,252.25186890002806,0,0.0,0,1,1000,num_1,0.5948209000052884,,28,10,2026-03-05_16h21.46.900,2026A_exp2,2022.2.4,59.940610837156555,
1000,1,0.0,3.7,0,0,80,80,78,,,,,252.86900669999886,253.51964459999,253.51964459999,254.00411829998484,45,315,254.00411829998484,254.00411829998484,254.00411829998484,254.00411829998484,254.00411829998484,254.00411829998484,254.00411829998484,254.00411829998484,254.00411829998484,254.3704839000129,254.3704839000129,254.3704839000129,254.3704839000129,254.3704839000129,254.3704839000129,254.3704839000129,254.3704839000129,254.3704839000129,0,1,[0.0012620000052265823],[0.36729720002040267],254.3704839000129,254.57243649999145,1000,254.57243649999145,1000,1000,1000,1000,1,num_2,0.43368189997272566,,28,10,2026-03-05_16h21.46.900,2026A_exp2,2022.2.4,59.940610837156555,
0,0,0.0,6.1,0,0,81,81,7,,,,,255.02117510000244,255.6718062,255.6718062,256.1729071000009,45,315,256.1729071000009,256.1729071000009,256.1729071000009,256.1729071000009,256.1729071000009,256.1729071000009,256.1729071000009,256.1729071000009,256.1729071000009,256.539399900008,256.539399900008,256.539399900008,256.539399900008,256.539399900008,256.539399900008,256.539399900008,256.539399900008,256.539399900008,0,1,[0.0013010999537073076],[0.3669971999479458],256.539399900008,256.7395698999753,6.1,256.7395698999753,0,6.1,1,0,1000,num_1,0.7391916000051424,,28,10,2026-03-05_16h21.46.900,2026A_exp2,2022.2.4,59.940610837156555,
1,0,0.0,3.7,0,0,82,82,61,,,,,257.50684629997704,258.1576998999808,258.1576998999808,258.64205899997614,315,45,258.64205899997614,258.64205899997614,258.64205899997614,258.64205899997614,258.64205899997614,258.64205899997614,258.64205899997614,258.64205899997614,258.64205899997614,259.0084948000149,259.0084948000149,259.0084948000149,259.0084948000149,259.0084948000149,259.0084948000149,259.0084948000149,259.0084948000149,259.0084948000149,0,1,[0.0012447999906726182],[0.3669324000366032],259.0084948000149,259.2087060000049,0.0,259.2087060000049,0,0.0,0,1,1000,num_1,0.5586118999635801,,28,10,2026-03-05_16h21.46.900,2026A_exp2,2022.2.4,59.940610837156555,
1000,1,0.0,0.0,0,0,83,83,18,,,,,259.792755100003,260.443423299992,260.443423299992,260.92754609999247,45,45,260.92754609999247,260.92754609999247,260.92754609999247,260.92754609999247,260.92754609999247,260.92754609999247,260.92754609999247,260.92754609999247,260.92754609999247,261.29421329998877,261.29421329998877,261.29421329998877,261.29421329998877,261.29421329998877,261.29421329998877,261.29421329998877,261.29421329998877,261.29421329998877,2,1,[0.0012144999927841127],[0.35047429997939616],261.29421329998877,261.49444679997396,1000,261.49444679997396,1000,1000,1000,1000,1,num_2,0.8319535999908112,,28,10,2026-03-05_16h21.46.900,2026A_exp2,2022.2.4,59.940610837156555,
1,0,0.0,0.0,1,0,84,84,6,,,,,262.34539019997464,262.9958473999868,262.9958473999868,263.4971231999807,45,315,263.4971231999807,263.4971231999807,263.4971231999807,263.4971231999807,263.4971231999807,263.4971231999807,263.4971231999807,263.4971231999807,263.4971231999807,263.8632791999844,263.8632791999844,263.8632791999844,263.8632791999844,263.8632791999844,263.8632791999844,263.8632791999844,263.8632791999844,263.8632791999844,23,0,,,263.8632791999844,264.063589300029,0.0,264.063589300029,0,0.0,0,1,1000,num_1,0.6710545000387356,,28,10,2026-03-05_16h21.46.900,2026A_exp2,2022.2.4,59.940610837156555,
1000,1,4.9,0.0,0,0,85,85,54,,,,,264.7643210000242,265.41483470000094,265.41483470000094,265.91599740000675,45,315,265.91599740000675,265.91599740000675,265.91599740000675,265.91599740000675,265.91599740000675,265.91599740000675,265.91599740000675,265.91599740000675,265.91599740000675,266.2824869999895,266.2824869999895,266.2824869999895,266.2824869999895,266.2824869999895,266.2824869999895,266.2824869999895,266.2824869999895,266.2824869999895,7,3,"[0.05010019999463111, 0.1000911999726668, 0.2169498999719508]","[0.08362930000294, 0.16694339999230579, 0.3671586000127718]",266.2824869999895,266.48447680001846,1000,266.48447680001846,1000,1000,1000,1000,0,num_3,0.6414361000061035,,28,10,2026-03-05_16h21.46.900,2026A_exp2,2022.2.4,59.940610837156555,
1000,1,3.7,6.1,0,0,86,86,84,,,,,267.1500757000176,267.8007231000229,267.8007231000229,268.3018264999846,45,315,268.3018264999846,268.3018264999846,268.3018264999846,268.3018264999846,268.3018264999846,268.3018264999846,268.3018264999846,268.3018264999846,268.3018264999846,268.6682491999818,268.6682491999818,268.6682491999818,268.6682491999818,268.6682491999818,268.6682491999818,268.6682491999818,268.6682491999818,268.6682491999818,3,3,"[0.0012184000224806368, 0.20041740004671738, 0.35043799999402836]","[0.18369900004472584, 0.33389559999341145, 0.36730500002158806]",268.6682491999818,268.8685266000102,1000,268.8685266000102,1000,1000,1000,1000,1,num_2,0.4903061999939382,,28,10,2026-03-05_16h21.46.900,2026A_exp2,2022.2.4,59.940610837156555,
1000,1,0.0,6.1,0,0,87,87,9,,,,,269.38566590001574,270.0362517000176,270.0362517000176,270.5373231000267,315,45,270.5373231000267,270.5373231000267,270.5373231000267,270.5373231000267,270.5373231000267,270.5373231000267,270.5373231000267,270.5373231000267,270.5373231000267,270.9038443000172,270.9038443000172,270.9038443000172,270.9038443000172,270.9038443000172,270.9038443000172,270.9038443000172,270.9038443000172,270.9038443000172,1,2,"[0.0012103000190109015, 0.31726169999456033]","[0.3005062000011094, 0.3673564000055194]",270.9038443000172,271.1047079000273,1000,271.1047079000273,1000,1000,1000,1000,0,num_3,0.5813036000472493,,28,10,2026-03-05_16h21.46.900,2026A_exp2,2022.2.4,59.940610837156555,
1000,1,6.1,0.0,0,0,88,88,82,,,,,271.7047030000249,272.35531419998733,272.35531419998733,272.85629580001114,45,315,272.85629580001114,272.85629580001114,272.85629580001114,272.85629580001114,272.85629580001114,272.85629580001114,272.85629580001114,272.85629580001114,272.85629580001114,273.2228498000186,273.2228498000186,273.2228498000186,273.2228498000186,273.2228498000186,273.2228498000186,273.2228498000186,273.2228498000186,273.2228498000186,20,3,"[0.0836789000313729, 0.2336563999997452, 0.36688929999945685]","[0.10030560003360733, 0.250474700005725, 0.366892000020016]",273.2228498000186,273.4244985000114,1000,273.4244985000114,1000,1000,1000,1000,1,num_2,0.6141830999986269,,28,10,2026-03-05_16h21.46.900,2026A_exp2,2022.2.4,59.940610837156555,
0,0,0.0,0.0,1,0,89,89,71,,,,,274.0568552999757,274.70761350000976,274.70761350000976,275.20884999999544,45,45,275.20884999999544,275.20884999999544,275.20884999999544,275.20884999999544,275.20884999999544,275.20884999999544,275.20884999999544,275.20884999999544,275.20884999999544,275.55836650001584,275.55836650001584,275.55836650001584,275.55836650001584,275.55836650001584,275.55836650001584,275.55836650001584,275.55836650001584,275.55836650001584,22,0,,,275.55836650001584,275.77267670002766,0.0,275.77267670002766,1,0.0,0,0,1000,num_4,0.8821459999890067,,28,10,2026-03-05_16h21.46.900,2026A_exp2,2022.2.4,59.940610837156555,
,,,,,,,,,,,,,,,,,,,,,,,,,,,,,,,,,,,,,,,,,,,,,,,,,,,,276.68594749999465,,,,,,,
