validity,detectorcomp,contrastCW,contrastCCW,precueCWorCCW,block_80trials.thisRepN,block_80trials.thisTrialN,block_80trials.thisN,block_80trials.thisIndex,etRecord.started,etRecord.stopped,text.started,text.stopped,text_4.started,text_4.stopped,text_6.started,text_6.stopped,oriCW,oriCCW,roi_2.started,grating_UR.started,grating_UL.started,grating_LR.started,grating_LL.started,noise_UR.started,noise_UL.started,noise_LR.started,noise_LL.started,roi_2.stopped,grating_UR.stopped,grating_UL.stopped,grating_LR.stopped,grating_LL.stopped,noise_UR.stopped,noise_UL.stopped,noise_LR.stopped,noise_LL.stopped,outframe,roi_2.numLooks,roi_2.timesOn,roi_2.timesOff,text_2.started,text_2.stopped,probedcontrast,key_resp.started,respdetect,relevantContrast,correctDetect,TorFdetect,respCWorCCW,key_resp.keys,key_resp.rt,feedback_display_.started,participantNo,blockNo,date,expName,psychopyVersion,frameRate,
1,0,4.9,0.0,0,0,0,0,48,5.219993181526661e-05,5.219993181526661e-05,47.022947899997234,49.0274297001306,49.0274297001306,49.66056730016135,49.66056730016135,50.1815537000075,315,45,50.1815537000075,50.1815537000075,50.1815537000075,50.1815537000075,50.1815537000075,50.1815537000075,50.1815537000075,50.1815537000075,50.1815537000075,50.52763150003739,50.52763150003739,50.52763150003739,50.52763150003739,50.52763150003739,50.52763150003739,50.52763150003739,50.52763150003739,50.52763150003739,0,1,[0.0010390998795628548],[0.36719490005634725],50.52763150003739,50.727974500041455,4.9,50.727974500041455,0,4.9,1,0,1000,num_1,0.7073971000500023,,31,11,2026-03-12_14h16.56.872,2026A_exp2,2022.2.4,60.01687673450793,
1000,1,3.7,0.0,1,0,1,1,55,,,,,51.461986399954185,52.11495440010913,52.11495440010913,52.61354070017114,315,315,52.61354070017114,52.61354070017114,52.61354070017114,52.61354070017114,52.61354070017114,52.61354070017114,52.61354070017114,52.61354070017114,52.61354070017114,52.9802707999479,52.9802707999479,52.9802707999479,52.9802707999479,52.9802707999479,52.9802707999479,52.9802707999479,52.9802707999479,52.9802707999479,0,1,[0.0012638000771403313],[0.3674017998855561],52.9802707999479,53.18525220011361,1000,53.18525220011361,1000,1000,1000,1000,0,num_3,0.6031051997561008,,31,11,2026-03-12_14h16.56.872,2026A_exp2,2022.2.4,60.01687673450793,
1000,1,4.9,4.9,0,0,2,2,42,,,,,53.814570400165394,54.464969699969515,54.464969699969515,54.96605439996347,315,315,54.96605439996347,54.96605439996347,54.96605439996347,54.96605439996347,54.96605439996347,54.96605439996347,54.96605439996347,54.96605439996347,54.96605439996347,55.332628400065005,55.332628400065005,55.332628400065005,55.332628400065005,55.332628400065005,55.332628400065005,55.332628400065005,55.332628400065005,55.332628400065005,0,1,[0.0012040999718010426],[0.36722999997437],55.332628400065005,55.534546399954706,1000,55.534546399954706,1000,1000,1000,1000,0,num_3,0.6293736000079662,,31,11,2026-03-12_14h16.56.872,2026A_exp2,2022.2.4,60.01687673450793,
1,0,0.0,0.0,0,0,3,3,9,,,,,56.18351150001399,56.83409609994851,56.83409609994851,57.335224700160325,45,45,57.335224700160325,57.335224700160325,57.335224700160325,57.335224700160325,57.335224700160325,57.335224700160325,57.335224700160325,57.335224700160325,57.335224700160325,57.68489859998226,57.68489859998226,57.68489859998226,57.68489859998226,57.68489859998226,57.68489859998226,57.68489859998226,57.68489859998226,57.68489859998226,0,1,[0.0012968999799340963],[0.3504784000106156],57.68489859998226,57.885106600122526,0.0,57.90187459997833,0,0.0,0,1,1000,num_1,3.374414499849081,,31,11,2026-03-12_14h16.56.872,2026A_exp2,2022.2.4,60.01687673450793,
1,0,4.9,6.1,0,0,4,4,15,,,,,61.30527770007029,61.939258800121024,61.939258800121024,62.440398399950936,315,45,62.440398399950936,62.440398399950936,62.440398399950936,62.440398399950936,62.440398399950936,62.440398399950936,62.440398399950936,62.440398399950936,62.440398399950936,62.80669750017114,62.80669750017114,62.80669750017114,62.80669750017114,62.80669750017114,62.80669750017114,62.80669750017114,62.80669750017114,62.80669750017114,0,1,[0.001272799912840128],[0.36694830004125834],62.80669750017114,63.00684650009498,4.9,63.00684650009498,0,4.9,1,0,1000,num_1,0.8849575000349432,,31,11,2026-03-12_14h16.56.872,2026A_exp2,2022.2.4,60.01687673450793,
1,0,3.7,0.0,1,0,5,5,74,,,,,63.907820499967784,64.55849010008387,64.55849010008387,65.05951809999533,315,315,65.05951809999533,65.05951809999533,65.05951809999533,65.05951809999533,65.05951809999533,65.05951809999533,65.05951809999533,65.05951809999533,65.05951809999533,65.40932530001737,65.40932530001737,65.40932530001737,65.40932530001737,65.40932530001737,65.40932530001737,65.40932530001737,65.40932530001737,65.40932530001737,17,2,"[0.11685150000266731, 0.25072250002995133]","[0.1671394999139011, 0.284145699813962]",65.40932530001737,65.60947200004011,0.0,65.60947200004011,0,0.0,0,1,1000,num_1,0.5297301998361945,,31,11,2026-03-12_14h16.56.872,2026A_exp2,2022.2.4,60.01687673450793,
1,0,0.0,0.0,0,0,6,6,81,,,,,66.16008300008252,66.81077330000699,66.81077330000699,67.29528880002908,45,45,67.29528880002908,67.29528880002908,67.29528880002908,67.29528880002908,67.29528880002908,67.29528880002908,67.29528880002908,67.29528880002908,67.29528880002908,67.66151730017737,67.66151730017737,67.66151730017737,67.66151730017737,67.66151730017737,67.66151730017737,67.66151730017737,67.66151730017737,67.66151730017737,0,1,[0.0012262999080121517],[0.367219400126487],67.66151730017737,67.86168560013175,0.0,67.86168560013175,0,0.0,0,1,1000,num_1,0.5747590998653322,,31,11,2026-03-12_14h16.56.872,2026A_exp2,2022.2.4,60.01687673450793,
1,0,0.0,0.0,0,0,7,7,38,,,,,68.46224100003019,69.11305990000255,69.11305990000255,69.59756140015088,315,315,69.59756140015088,69.59756140015088,69.59756140015088,69.59756140015088,69.59756140015088,69.59756140015088,69.59756140015088,69.59756140015088,69.59756140015088,69.96350790001452,69.96350790001452,69.96350790001452,69.96350790001452,69.96350790001452,69.96350790001452,69.96350790001452,69.96350790001452,69.96350790001452,23,0,,,69.96350790001452,70.16416939999908,0.0,70.16416939999908,0,0.0,0,1,1000,num_1,0.3999936997424811,,31,11,2026-03-12_14h16.56.872,2026A_exp2,2022.2.4,60.01687673450793,
1000,1,0.0,0.0,0,0,8,8,61,,,,,70.58102839998901,71.23184920009226,71.23184920009226,71.71619469998404,315,45,71.71619469998404,71.71619469998404,71.71619469998404,71.71619469998404,71.71619469998404,71.71619469998404,71.71619469998404,71.71619469998404,71.71619469998404,72.08271580003202,72.08271580003202,72.08271580003202,72.08271580003202,72.08271580003202,72.08271580003202,72.08271580003202,72.08271580003202,72.08271580003202,0,1,[0.0012570000253617764],[0.36725690006278455],72.08271580003202,72.28482659999281,1000,72.28482659999281,1000,1000,1000,1000,0,num_3,0.7343678998295218,,31,11,2026-03-12_14h16.56.872,2026A_exp2,2022.2.4,60.01687673450793,
1,0,0.0,0.0,0,0,9,9,49,,,,,73.0502403001301,73.70072260010056,73.70072260010056,74.20186180016026,45,45,74.20186180016026,74.20186180016026,74.20186180016026,74.20186180016026,74.20186180016026,74.20186180016026,74.20186180016026,74.20186180016026,74.20186180016026,74.55178890004754,74.55178890004754,74.55178890004754,74.55178890004754,74.55178890004754,74.55178890004754,74.55178890004754,74.55178890004754,74.55178890004754,22,0,,,74.55178890004754,74.75822190009058,0.0,74.75822190009058,0,0.0,0,1,1000,num_1,0.5659293998032808,,31,11,2026-03-12_14h16.56.872,2026A_exp2,2022.2.4,60.01687673450793,
1,0,6.1,0.0,1,0,10,10,13,,,,,75.3524599999655,76.00324450014159,76.00324450014159,76.50428150012158,315,315,76.50428150012158,76.50428150012158,76.50428150012158,76.50428150012158,76.50428150012158,76.50428150012158,76.50428150012158,76.50428150012158,76.50428150012158,76.87082409998402,76.87082409998402,76.87082409998402,76.87082409998402,76.87082409998402,76.87082409998402,76.87082409998402,76.87082409998402,76.87082409998402,23,0,,,76.87082409998402,77.07103650015779,0.0,77.07103650015779,0,0.0,0,1,1000,num_1,0.7255627000704408,,31,11,2026-03-12_14h16.56.872,2026A_exp2,2022.2.4,60.01687673450793,
1,0,0.0,3.7,0,0,11,11,78,,,,,77.82165229995735,78.47242789994925,78.47242789994925,78.97356220008805,45,45,78.97356220008805,78.97356220008805,78.97356220008805,78.97356220008805,78.97356220008805,78.97356220008805,78.97356220008805,78.97356220008805,78.97356220008805,79.32317810016684,79.32317810016684,79.32317810016684,79.32317810016684,79.32317810016684,79.32317810016684,79.32317810016684,79.32317810016684,79.32317810016684,22,0,,,79.32317810016684,79.52347380015999,0.0,79.52347380015999,0,0.0,0,1,1000,num_1,1.1442381998058408,,31,11,2026-03-12_14h16.56.872,2026A_exp2,2022.2.4,60.01687673450793,
1,0,0.0,0.0,1,0,12,12,37,,,,,80.69137370004319,81.3252837001346,81.3252837001346,81.8263948999811,315,45,81.8263948999811,81.8263948999811,81.8263948999811,81.8263948999811,81.8263948999811,81.8263948999811,81.8263948999811,81.8263948999811,81.8263948999811,82.19283189997077,82.19283189997077,82.19283189997077,82.19283189997077,82.19283189997077,82.19283189997077,82.19283189997077,82.19283189997077,82.19283189997077,23,0,,,82.19283189997077,82.39301250013523,0.0,82.39301250013523,1,0.0,0,0,1000,num_4,0.4821662998292595,,31,11,2026-03-12_14h16.56.872,2026A_exp2,2022.2.4,60.01687673450793,
1000,1,0.0,3.7,0,0,13,13,52,,,,,82.89336640015244,83.54409930016845,83.54409930016845,84.0284444000572,45,315,84.0284444000572,84.0284444000572,84.0284444000572,84.0284444000572,84.0284444000572,84.0284444000572,84.0284444000572,84.0284444000572,84.0284444000572,84.39504350000061,84.39504350000061,84.39504350000061,84.39504350000061,84.39504350000061,84.39504350000061,84.39504350000061,84.39504350000061,84.39504350000061,19,1,[0.0012439999263733625],[0.06680430006235838],84.39504350000061,84.59710480016656,1000,84.59710480016656,1000,1000,1000,1000,0,num_3,1.0621461998671293,,31,11,2026-03-12_14h16.56.872,2026A_exp2,2022.2.4,60.01687673450793,
1000,1,3.7,0.0,1,0,14,14,79,,,,,85.67951170005836,86.33028520015068,86.33028520015068,86.8312750000041,45,315,86.8312750000041,86.8312750000041,86.8312750000041,86.8312750000041,86.8312750000041,86.8312750000041,86.8312750000041,86.8312750000041,86.8312750000041,87.19772680010647,87.19772680010647,87.19772680010647,87.19772680010647,87.19772680010647,87.19772680010647,87.19772680010647,87.19772680010647,87.19772680010647,23,0,,,87.19772680010647,87.40007059997879,1000,87.40007059997879,1000,1000,1000,1000,0,num_3,0.5640680000651628,,31,11,2026-03-12_14h16.56.872,2026A_exp2,2022.2.4,60.01687673450793,
1,0,0.0,0.0,1,0,15,15,70,,,,,87.98217840003781,88.6323153001722,88.6323153001722,89.11706369998865,315,315,89.11706369998865,89.11706369998865,89.11706369998865,89.11706369998865,89.11706369998865,89.11706369998865,89.11706369998865,89.11706369998865,89.11706369998865,89.48333600000478,89.48333600000478,89.48333600000478,89.48333600000478,89.48333600000478,89.48333600000478,89.48333600000478,89.48333600000478,89.48333600000478,23,0,,,89.48333600000478,89.68354060011916,0.0,89.68354060011916,1,0.0,0,0,1000,num_4,0.6637189998291433,,31,11,2026-03-12_14h16.56.872,2026A_exp2,2022.2.4,60.01687673450793,
1,0,0.0,0.0,0,0,16,16,59,,,,,90.36739190015942,91.01829640008509,91.01829640008509,91.50244479998946,45,315,91.50244479998946,91.50244479998946,91.50244479998946,91.50244479998946,91.50244479998946,91.50244479998946,91.50244479998946,91.50244479998946,91.50244479998946,91.86914700013585,91.86914700013585,91.86914700013585,91.86914700013585,91.86914700013585,91.86914700013585,91.86914700013585,91.86914700013585,91.86914700013585,23,0,,,91.86914700013585,92.06915970006958,0.0,92.06915970006958,0,0.0,0,1,1000,num_1,0.9591453997418284,,31,11,2026-03-12_14h16.56.872,2026A_exp2,2022.2.4,60.01687673450793,
1000,1,0.0,6.1,0,0,17,17,34,,,,,93.05345560004935,93.70457950001583,93.70457950001583,94.19225240009837,315,315,94.19225240009837,94.19225240009837,94.19225240009837,94.19225240009837,94.19225240009837,94.19225240009837,94.19225240009837,94.19225240009837,94.19225240009837,94.55521370004863,94.55521370004863,94.55521370004863,94.55521370004863,94.55521370004863,94.55521370004863,94.55521370004863,94.55521370004863,94.55521370004863,23,0,,,94.55521370004863,94.75704910000786,1000,94.75704910000786,1000,1000,1000,1000,1,num_2,0.7665328998118639,,31,11,2026-03-12_14h16.56.872,2026A_exp2,2022.2.4,60.01687673450793,
1,0,0.0,3.7,1,0,18,18,57,,,,,95.53946070000529,96.18999870005064,96.18999870005064,96.69129039999098,45,315,96.69129039999098,96.69129039999098,96.69129039999098,96.69129039999098,96.69129039999098,96.69129039999098,96.69129039999098,96.69129039999098,96.69129039999098,97.05766090005636,97.05766090005636,97.05766090005636,97.05766090005636,97.05766090005636,97.05766090005636,97.05766090005636,97.05766090005636,97.05766090005636,7,4,"[0.00129029992967844, 0.26704519987106323, 0.31708479998633265, 0.3503530998714268]","[0.20029990002512932, 0.28352189995348454, 0.3336678999476135, 0.36700590001419187]",97.05766090005636,97.25777420005761,3.7,97.25777420005761,1,3.7,1,1,1000,num_4,0.5216039998922497,,31,11,2026-03-12_14h16.56.872,2026A_exp2,2022.2.4,60.01687673450793,
0,0,0.0,3.7,1,0,19,19,21,,,,,97.80835380009376,98.45912660006434,98.45912660006434,98.9600426000543,315,315,98.9600426000543,98.9600426000543,98.9600426000543,98.9600426000543,98.9600426000543,98.9600426000543,98.9600426000543,98.9600426000543,98.9600426000543,99.30990230012685,99.30990230012685,99.30990230012685,99.30990230012685,99.30990230012685,99.30990230012685,99.30990230012685,99.30990230012685,99.30990230012685,22,0,,,99.30990230012685,99.50993739999831,0.0,99.50993739999831,0,0.0,0,1,1000,num_1,1.1586233999114484,,31,11,2026-03-12_14h16.56.872,2026A_exp2,2022.2.4,60.01687673450793,
1,0,0.0,0.0,1,0,20,20,66,,,,,100.69446110003628,101.34522789996117,101.34522789996117,101.82964210002683,45,315,101.82964210002683,101.82964210002683,101.82964210002683,101.82964210002683,101.82964210002683,101.82964210002683,101.82964210002683,101.82964210002683,101.82964210002683,102.1961773999501,102.1961773999501,102.1961773999501,102.1961773999501,102.1961773999501,102.1961773999501,102.1961773999501,102.1961773999501,102.1961773999501,23,0,,,102.1961773999501,102.39664799999446,0.0,102.39664799999446,0,0.0,0,1,1000,num_1,0.6227038998622447,,31,11,2026-03-12_14h16.56.872,2026A_exp2,2022.2.4,60.01687673450793,
1,0,0.0,4.9,0,0,21,21,71,,,,,103.04686060012318,103.69736120011657,103.69736120011657,104.18169830017723,315,315,104.18169830017723,104.18169830017723,104.18169830017723,104.18169830017723,104.18169830017723,104.18169830017723,104.18169830017723,104.18169830017723,104.18169830017723,104.54837079998106,104.54837079998106,104.54837079998106,104.54837079998106,104.54837079998106,104.54837079998106,104.54837079998106,104.54837079998106,104.54837079998106,0,1,[0.0007388999219983816],[0.36734679993242025],104.54837079998106,104.74868760001846,0.0,104.74868760001846,0,0.0,0,1,1000,num_1,0.7673801998607814,,31,11,2026-03-12_14h16.56.872,2026A_exp2,2022.2.4,60.01687673450793,
1000,1,0.0,0.0,1,0,22,22,23,,,,,105.53254509996623,106.18351600016467,106.18351600016467,106.66774399997666,315,45,106.66774399997666,106.66774399997666,106.66774399997666,106.66774399997666,106.66774399997666,106.66774399997666,106.66774399997666,106.66774399997666,106.66774399997666,107.03424359997734,107.03424359997734,107.03424359997734,107.03424359997734,107.03424359997734,107.03424359997734,107.03424359997734,107.03424359997734,107.03424359997734,18,5,"[0.017315400065854192, 0.06698130001313984, 0.11710490006953478, 0.25074369995854795, 0.2840213000308722]","[0.033601699862629175, 0.08367439988069236, 0.13384360005147755, 0.26722789998166263, 0.30056989984586835]",107.03424359997734,107.23643600009382,1000,107.23643600009382,1000,1000,1000,1000,0,num_3,0.7350734998472035,,31,11,2026-03-12_14h16.56.872,2026A_exp2,2022.2.4,60.01687673450793,
1,0,4.9,4.9,0,0,23,23,63,,,,,108.00185480015352,108.6525086001493,108.6525086001493,109.1536334999837,315,315,109.1536334999837,109.1536334999837,109.1536334999837,109.1536334999837,109.1536334999837,109.1536334999837,109.1536334999837,109.1536334999837,109.1536334999837,109.52011630008928,109.52011630008928,109.52011630008928,109.52011630008928,109.52011630008928,109.52011630008928,109.52011630008928,109.52011630008928,109.52011630008928,23,0,,,109.52011630008928,109.72032029996626,4.9,109.72032029996626,0,4.9,1,0,1000,num_1,0.7394307998474687,,31,11,2026-03-12_14h16.56.872,2026A_exp2,2022.2.4,60.01687673450793,
1,0,4.9,6.1,1,0,24,24,46,,,,,110.48756829998456,111.1382965000812,111.1382965000812,111.62271620007232,45,45,111.62271620007232,111.62271620007232,111.62271620007232,111.62271620007232,111.62271620007232,111.62271620007232,111.62271620007232,111.62271620007232,111.62271620007232,111.98928140010685,111.98928140010685,111.98928140010685,111.98928140010685,111.98928140010685,111.98928140010685,111.98928140010685,111.98928140010685,111.98928140010685,23,0,,,111.98928140010685,112.18950140010566,6.1,112.18950140010566,1,6.1,1,1,1000,num_4,0.8065098999068141,,31,11,2026-03-12_14h16.56.872,2026A_exp2,2022.2.4,60.01687673450793,
1,0,0.0,0.0,1,0,25,25,41,,,,,113.02371080010198,113.67431479995139,113.67431479995139,114.17547180014662,315,45,114.17547180014662,114.17547180014662,114.17547180014662,114.17547180014662,114.17547180014662,114.17547180014662,114.17547180014662,114.17547180014662,114.17547180014662,114.54181920015253,114.54181920015253,114.54181920015253,114.54181920015253,114.54181920015253,114.54181920015253,114.54181920015253,114.54181920015253,114.54181920015253,23,0,,,114.54181920015253,114.74202390015125,0.0,114.74202390015125,0,0.0,0,1,1000,num_1,0.5337716997601092,,31,11,2026-03-12_14h16.56.872,2026A_exp2,2022.2.4,60.01687673450793,
1,0,0.0,4.9,0,0,26,26,85,,,,,115.292486499995,115.94326309999451,115.94326309999451,116.44435769994743,45,45,116.44435769994743,116.44435769994743,116.44435769994743,116.44435769994743,116.44435769994743,116.44435769994743,116.44435769994743,116.44435769994743,116.44435769994743,116.79398570000194,116.79398570000194,116.79398570000194,116.79398570000194,116.79398570000194,116.79398570000194,116.79398570000194,116.79398570000194,116.79398570000194,22,0,,,116.79398570000194,116.99430750007741,0.0,116.99430750007741,0,0.0,0,1,1000,num_1,1.1455270000733435,,31,11,2026-03-12_14h16.56.872,2026A_exp2,2022.2.4,60.01687673450793,
1000,1,0.0,3.7,1,0,27,27,80,,,,,118.1619097001385,118.81277410010807,118.81277410010807,119.29721880005673,315,45,119.29721880005673,119.29721880005673,119.29721880005673,119.29721880005673,119.29721880005673,119.29721880005673,119.29721880005673,119.29721880005673,119.29721880005673,119.66359709994867,119.66359709994867,119.66359709994867,119.66359709994867,119.66359709994867,119.66359709994867,119.66359709994867,119.66359709994867,119.66359709994867,23,0,,,119.66359709994867,119.86563270003535,1000,119.86563270003535,1000,1000,1000,1000,1,num_2,0.6585589998867363,,31,11,2026-03-12_14h16.56.872,2026A_exp2,2022.2.4,60.01687673450793,
1000,1,4.9,3.7,1,0,28,28,32,,,,,120.54776570014656,121.198522800114,121.198522800114,121.69945490011014,45,315,121.69945490011014,121.69945490011014,121.69945490011014,121.69945490011014,121.69945490011014,121.69945490011014,121.69945490011014,121.69945490011014,121.69945490011014,122.04917809995823,122.04917809995823,122.04917809995823,122.04917809995823,122.04917809995823,122.04917809995823,122.04917809995823,122.04917809995823,122.04917809995823,18,1,[0.30048970016650856],[0.35071200015954673],122.04917809995823,122.25140250008553,1000,122.2662192999851,1000,1000,1000,1000,1,num_2,0.585703999735415,,31,11,2026-03-12_14h16.56.872,2026A_exp2,2022.2.4,60.01687673450793,
1000,1,6.1,3.7,0,0,29,29,87,,,,,122.88339480012655,123.53421219997108,123.53421219997108,124.03519190009683,45,315,124.03519190009683,124.03519190009683,124.03519190009683,124.03519190009683,124.03519190009683,124.03519190009683,124.03519190009683,124.03519190009683,124.03519190009683,124.40169590013102,124.40169590013102,124.40169590013102,124.40169590013102,124.40169590013102,124.40169590013102,124.40169590013102,124.40169590013102,124.40169590013102,23,0,,,124.40169590013102,124.60363330016844,1000,124.60363330016844,1000,1000,1000,1000,0,num_3,0.43232570006512105,,31,11,2026-03-12_14h16.56.872,2026A_exp2,2022.2.4,60.01687673450793,
1000,1,0.0,0.0,0,0,30,30,65,,,,,125.0522537000943,125.70294600003399,125.70294600003399,126.18737050006166,45,315,126.18737050006166,126.18737050006166,126.18737050006166,126.18737050006166,126.18737050006166,126.18737050006166,126.18737050006166,126.18737050006166,126.18737050006166,126.55386980017647,126.55386980017647,126.55386980017647,126.55386980017647,126.55386980017647,126.55386980017647,126.55386980017647,126.55386980017647,126.55386980017647,23,0,,,126.55386980017647,126.75618250016123,1000,126.75618250016123,1000,1000,1000,1000,0,num_3,0.7673878998029977,,31,11,2026-03-12_14h16.56.872,2026A_exp2,2022.2.4,60.01687673450793,
1000,1,6.1,0.0,0,0,31,31,33,,,,,127.55471669998951,128.20559080014937,128.20559080014937,128.70661360002123,315,315,128.70661360002123,128.70661360002123,128.70661360002123,128.70661360002123,128.70661360002123,128.70661360002123,128.70661360002123,128.70661360002123,128.70661360002123,129.0561999999918,129.0561999999918,129.0561999999918,129.0561999999918,129.0561999999918,129.0561999999918,129.0561999999918,129.0561999999918,129.0561999999918,22,0,,,129.0561999999918,129.2585551000666,1000,129.27311559999362,1000,1000,1000,1000,0,num_3,0.5779305999167264,,31,11,2026-03-12_14h16.56.872,2026A_exp2,2022.2.4,60.01687673450793,
1000,1,4.9,6.1,1,0,32,32,1,,,,,129.87370820017532,130.5244365001563,130.5244365001563,131.0255009001121,45,315,131.0255009001121,131.0255009001121,131.0255009001121,131.0255009001121,131.0255009001121,131.0255009001121,131.0255009001121,131.0255009001121,131.0255009001121,131.37531640008092,131.37531640008092,131.37531640008092,131.37531640008092,131.37531640008092,131.37531640008092,131.37531640008092,131.37531640008092,131.37531640008092,22,0,,,131.37531640008092,131.57713940017857,1000,131.59232349996455,1000,1000,1000,1000,1,num_2,0.49092060001567006,,31,11,2026-03-12_14h16.56.872,2026A_exp2,2022.2.4,60.01687673450793,
1,0,0.0,0.0,1,0,33,33,18,,,,,132.10932769998908,132.7599069001153,132.7599069001153,133.26117760012858,315,315,133.26117760012858,133.26117760012858,133.26117760012858,133.26117760012858,133.26117760012858,133.26117760012858,133.26117760012858,133.26117760012858,133.26117760012858,133.62755700014532,133.62755700014532,133.62755700014532,133.62755700014532,133.62755700014532,133.62755700014532,133.62755700014532,133.62755700014532,133.62755700014532,23,0,,,133.62755700014532,133.82771180011332,0.0,133.82771180011332,0,0.0,0,1,1000,num_1,0.7683902999851853,,31,11,2026-03-12_14h16.56.872,2026A_exp2,2022.2.4,60.01687673450793,
0,0,4.9,0.0,0,0,34,34,30,,,,,134.6124148000963,135.26262450008653,135.26262450008653,135.76361120003276,315,45,135.76361120003276,135.76361120003276,135.76361120003276,135.76361120003276,135.76361120003276,135.76361120003276,135.76361120003276,135.76361120003276,135.76361120003276,136.13006890006363,136.13006890006363,136.13006890006363,136.13006890006363,136.13006890006363,136.13006890006363,136.13006890006363,136.13006890006363,136.13006890006363,23,0,,,136.13006890006363,136.33021190017462,0.0,136.33021190017462,0,0.0,0,1,1000,num_1,0.6732451999559999,,31,11,2026-03-12_14h16.56.872,2026A_exp2,2022.2.4,60.01687673450793,
1000,1,0.0,0.0,0,0,35,35,20,,,,,137.0308299001772,137.68135430011898,137.68135430011898,138.16589669999667,315,45,138.16589669999667,138.16589669999667,138.16589669999667,138.16589669999667,138.16589669999667,138.16589669999667,138.16589669999667,138.16589669999667,138.16589669999667,138.5322606000118,138.5322606000118,138.5322606000118,138.5322606000118,138.5322606000118,138.5322606000118,138.5322606000118,138.5322606000118,138.5322606000118,23,0,,,138.5322606000118,138.73429829999804,1000,138.73429829999804,1000,1000,1000,1000,0,num_3,0.5729682999663055,,31,11,2026-03-12_14h16.56.872,2026A_exp2,2022.2.4,60.01687673450793,
1000,1,0.0,4.9,1,0,36,36,51,,,,,139.3331715001259,139.9841962000355,139.9841962000355,140.48497600015253,315,315,140.48497600015253,140.48497600015253,140.48497600015253,140.48497600015253,140.48497600015253,140.48497600015253,140.48497600015253,140.48497600015253,140.48497600015253,140.85126819997095,140.85126819997095,140.85126819997095,140.85126819997095,140.85126819997095,140.85126819997095,140.85126819997095,140.85126819997095,140.85126819997095,23,0,,,140.85126819997095,141.05182130006142,1000,141.05182130006142,1000,1000,1000,1000,1,num_2,0.4473399999551475,,31,11,2026-03-12_14h16.56.872,2026A_exp2,2022.2.4,60.01687673450793,
1000,1,4.9,0.0,0,0,37,37,58,,,,,141.5186700001359,142.1694700999651,142.1694700999651,142.6702026000712,45,315,142.6702026000712,142.6702026000712,142.6702026000712,142.6702026000712,142.6702026000712,142.6702026000712,142.6702026000712,142.6702026000712,142.6702026000712,143.03696279996075,143.03696279996075,143.03696279996075,143.03696279996075,143.03696279996075,143.03696279996075,143.03696279996075,143.03696279996075,143.03696279996075,21,2,"[0.30048019997775555, 0.3504884000867605]","[0.31703860010020435, 0.36706820013932884]",143.03696279996075,143.2390691000037,1000,143.2390691000037,1000,1000,1000,1000,0,num_3,0.3248864999040961,,31,11,2026-03-12_14h16.56.872,2026A_exp2,2022.2.4,60.01687673450793,
0,0,3.7,0.0,1,0,38,38,83,,,,,143.58744390006177,144.23803460015915,144.23803460015915,144.73914239997976,45,45,144.73914239997976,144.73914239997976,144.73914239997976,144.73914239997976,144.73914239997976,144.73914239997976,144.73914239997976,144.73914239997976,144.73914239997976,145.10568880010396,145.10568880010396,145.10568880010396,145.10568880010396,145.10568880010396,145.10568880010396,145.10568880010396,145.10568880010396,145.10568880010396,23,0,,,145.10568880010396,145.30575300008059,3.7,145.30575300008059,0,3.7,1,0,1000,num_1,0.7228819997981191,,31,11,2026-03-12_14h16.56.872,2026A_exp2,2022.2.4,60.01687673450793,
1,0,6.1,0.0,0,0,39,39,50,,,,,146.0567064001225,146.69069720013067,146.69069720013067,147.19174659997225,45,315,147.19174659997225,147.19174659997225,147.19174659997225,147.19174659997225,147.19174659997225,147.19174659997225,147.19174659997225,147.19174659997225,147.19174659997225,147.5581682000775,147.5581682000775,147.5581682000775,147.5581682000775,147.5581682000775,147.5581682000775,147.5581682000775,147.5581682000775,147.5581682000775,22,1,[0.21685510012321174],[0.23357800021767616],147.5581682000775,147.75818740017712,6.1,147.75818740017712,0,6.1,1,0,1000,num_1,0.5495474999770522,,31,11,2026-03-12_14h16.56.872,2026A_exp2,2022.2.4,60.01687673450793,
1,0,0.0,0.0,1,0,40,40,43,,,,,148.32549650012515,148.97631209995598,148.97631209995598,149.4606998001691,45,315,149.4606998001691,149.4606998001691,149.4606998001691,149.4606998001691,149.4606998001691,149.4606998001691,149.4606998001691,149.4606998001691,149.4606998001691,149.8270935001783,149.8270935001783,149.8270935001783,149.8270935001783,149.8270935001783,149.8270935001783,149.8270935001783,149.8270935001783,149.8270935001783,21,1,[0.16695560002699494],[0.2002756001893431],149.8270935001783,150.02714559994638,0.0,150.02714559994638,0,0.0,0,1,1000,num_1,0.7050392997916788,,31,11,2026-03-12_14h16.56.872,2026A_exp2,2022.2.4,60.01687673450793,
1,0,3.7,4.9,1,0,41,41,39,,,,,150.76108320010826,151.4119494999759,151.4119494999759,151.91301140002906,315,45,151.91301140002906,151.91301140002906,151.91301140002906,151.91301140002906,151.91301140002906,151.91301140002906,151.91301140002906,151.91301140002906,151.91301140002906,152.2794264999684,152.2794264999684,152.2794264999684,152.2794264999684,152.2794264999684,152.2794264999684,152.2794264999684,152.2794264999684,152.2794264999684,23,0,,,152.2794264999684,152.47958869999275,4.9,152.47958869999275,1,4.9,1,1,1000,num_4,0.7089247000403702,,31,11,2026-03-12_14h16.56.872,2026A_exp2,2022.2.4,60.01687673450793,
1000,1,4.9,0.0,1,0,42,42,72,,,,,153.21356900013052,153.86433210014366,153.86433210014366,154.3487957001198,45,45,154.3487957001198,154.3487957001198,154.3487957001198,154.3487957001198,154.3487957001198,154.3487957001198,154.3487957001198,154.3487957001198,154.3487957001198,154.71534480014816,154.71534480014816,154.71534480014816,154.71534480014816,154.71534480014816,154.71534480014816,154.71534480014816,154.71534480014816,154.71534480014816,23,0,,,154.71534480014816,154.91803970001638,1000,154.91803970001638,1000,1000,1000,1000,0,num_3,0.5017103997524828,,31,11,2026-03-12_14h16.56.872,2026A_exp2,2022.2.4,60.01687673450793,
1000,1,4.9,4.9,0,0,43,43,31,,,,,155.44931900012307,156.09995470009744,156.09995470009744,156.60119840013795,315,45,156.60119840013795,156.60119840013795,156.60119840013795,156.60119840013795,156.60119840013795,156.60119840013795,156.60119840013795,156.60119840013795,156.60119840013795,156.96741360006854,156.96741360006854,156.96741360006854,156.96741360006854,156.96741360006854,156.96741360006854,156.96741360006854,156.96741360006854,156.96741360006854,23,0,,,156.96741360006854,157.1698223000858,1000,157.1698223000858,1000,1000,1000,1000,0,num_3,0.47473819996230304,,31,11,2026-03-12_14h16.56.872,2026A_exp2,2022.2.4,60.01687673450793,
0,0,0.0,4.9,0,0,44,44,54,,,,,157.66811790014617,158.3188334000297,158.3188334000297,158.8200085000135,45,315,158.8200085000135,158.8200085000135,158.8200085000135,158.8200085000135,158.8200085000135,158.8200085000135,158.8200085000135,158.8200085000135,158.8200085000135,159.1863470999524,159.1863470999524,159.1863470999524,159.1863470999524,159.1863470999524,159.1863470999524,159.1863470999524,159.1863470999524,159.1863470999524,23,0,,,159.1863470999524,159.3865088999737,4.9,159.3865088999737,1,4.9,1,1,1000,num_4,0.6260493998415768,,31,11,2026-03-12_14h16.56.872,2026A_exp2,2022.2.4,60.01687673450793,
1000,1,6.1,4.9,1,0,45,45,16,,,,,160.03716569999233,160.6880087000318,160.6880087000318,161.17226220015436,315,315,161.17226220015436,161.17226220015436,161.17226220015436,161.17226220015436,161.17226220015436,161.17226220015436,161.17226220015436,161.17226220015436,161.17226220015436,161.53872160008177,161.53872160008177,161.53872160008177,161.53872160008177,161.53872160008177,161.53872160008177,161.53872160008177,161.53872160008177,161.53872160008177,23,0,,,161.53872160008177,161.74092170014046,1000,161.74092170014046,1000,1000,1000,1000,0,num_3,0.8076920998282731,,31,11,2026-03-12_14h16.56.872,2026A_exp2,2022.2.4,60.01687673450793,
1,0,6.1,4.9,1,0,46,46,35,,,,,162.57303450000472,163.22382319997996,163.22382319997996,163.72473130002618,45,315,163.72473130002618,163.72473130002618,163.72473130002618,163.72473130002618,163.72473130002618,163.72473130002618,163.72473130002618,163.72473130002618,163.72473130002618,164.07467770017684,164.07467770017684,164.07467770017684,164.07467770017684,164.07467770017684,164.07467770017684,164.07467770017684,164.07467770017684,164.07467770017684,22,0,,,164.07467770017684,164.2747723001521,4.9,164.2747723001521,1,4.9,1,1,1000,num_4,0.7851668999064714,,31,11,2026-03-12_14h16.56.872,2026A_exp2,2022.2.4,60.01687673450793,
1000,1,0.0,0.0,1,0,47,47,7,,,,,165.07587640010752,165.72628529998474,165.72628529998474,166.21110810013488,315,315,166.21110810013488,166.21110810013488,166.21110810013488,166.21110810013488,166.21110810013488,166.21110810013488,166.21110810013488,166.21110810013488,166.21110810013488,166.57711750012822,166.57711750012822,166.57711750012822,166.57711750012822,166.57711750012822,166.57711750012822,166.57711750012822,166.57711750012822,166.57711750012822,23,0,,,166.57711750012822,166.7788770000916,1000,166.7788770000916,1000,1000,1000,1000,0,num_3,0.5682427999563515,,31,11,2026-03-12_14h16.56.872,2026A_exp2,2022.2.4,60.01687673450793,
1000,1,0.0,4.9,1,0,48,48,27,,,,,167.37796550011262,168.0285885001067,168.0285885001067,168.52967690001242,45,45,168.52967690001242,168.52967690001242,168.52967690001242,168.52967690001242,168.52967690001242,168.52967690001242,168.52967690001242,168.52967690001242,168.52967690001242,168.89613740006462,168.89613740006462,168.89613740006462,168.89613740006462,168.89613740006462,168.89613740006462,168.89613740006462,168.89613740006462,168.89613740006462,23,0,,,168.89613740006462,169.09861390013248,1000,169.09861390013248,1000,1000,1000,1000,1,num_2,0.5372836999595165,,31,11,2026-03-12_14h16.56.872,2026A_exp2,2022.2.4,60.01687673450793,
1,0,4.9,0.0,1,0,49,49,6,,,,,169.6636932999827,170.31414899998344,170.31414899998344,170.8153689999599,315,45,170.8153689999599,170.8153689999599,170.8153689999599,170.8153689999599,170.8153689999599,170.8153689999599,170.8153689999599,170.8153689999599,170.8153689999599,171.165029700147,171.165029700147,171.165029700147,171.165029700147,171.165029700147,171.165029700147,171.165029700147,171.165029700147,171.165029700147,22,0,,,171.165029700147,171.365354700014,0.0,171.365354700014,0,0.0,0,1,1000,num_1,1.175103799905628,,31,11,2026-03-12_14h16.56.872,2026A_exp2,2022.2.4,60.01687673450793,
1000,1,3.7,3.7,1,0,50,50,40,,,,,172.5665134000592,173.21702330000699,173.21702330000699,173.70161840016954,315,315,173.70161840016954,173.70161840016954,173.70161840016954,173.70161840016954,173.70161840016954,173.70161840016954,173.70161840016954,173.70161840016954,173.70161840016954,174.06792429997586,174.06792429997586,174.06792429997586,174.06792429997586,174.06792429997586,174.06792429997586,174.06792429997586,174.06792429997586,174.06792429997586,23,0,,,174.06792429997586,174.2701887001749,1000,174.2701887001749,1000,1000,1000,1000,0,num_3,0.6450491999275982,,31,11,2026-03-12_14h16.56.872,2026A_exp2,2022.2.4,60.01687673450793,
1000,1,6.1,0.0,1,0,51,51,60,,,,,174.9353684000671,175.58619150007144,175.58619150007144,176.08734040008858,45,45,176.08734040008858,176.08734040008858,176.08734040008858,176.08734040008858,176.08734040008858,176.08734040008858,176.08734040008858,176.08734040008858,176.08734040008858,176.45359520008788,176.45359520008788,176.45359520008788,176.45359520008788,176.45359520008788,176.45359520008788,176.45359520008788,176.45359520008788,176.45359520008788,23,0,,,176.45359520008788,176.65638160007074,1000,176.65638160007074,1000,1000,1000,1000,0,num_3,0.4271939001046121,,31,11,2026-03-12_14h16.56.872,2026A_exp2,2022.2.4,60.01687673450793,
0,0,0.0,4.9,1,0,52,52,56,,,,,177.1042298001703,177.75503340014257,177.75503340014257,178.2559573999606,45,45,178.2559573999606,178.2559573999606,178.2559573999606,178.2559573999606,178.2559573999606,178.2559573999606,178.2559573999606,178.2559573999606,178.2559573999606,178.62253030017018,178.62253030017018,178.62253030017018,178.62253030017018,178.62253030017018,178.62253030017018,178.62253030017018,178.62253030017018,178.62253030017018,23,0,,,178.62253030017018,178.82266289996915,0.0,178.82266289996915,0,0.0,0,1,1000,num_1,0.8456194000318646,,31,11,2026-03-12_14h16.56.872,2026A_exp2,2022.2.4,60.01687673450793,
1000,1,0.0,0.0,1,0,53,53,14,,,,,179.69010829995386,180.340801600134,180.340801600134,180.8419763999991,45,315,180.8419763999991,180.8419763999991,180.8419763999991,180.8419763999991,180.8419763999991,180.8419763999991,180.8419763999991,180.8419763999991,180.8419763999991,181.1917362001259,181.1917362001259,181.1917362001259,181.1917362001259,181.1917362001259,181.1917362001259,181.1917362001259,181.1917362001259,181.1917362001259,22,0,,,181.1917362001259,181.39226660015993,1000,181.39226660015993,1000,1000,1000,1000,0,num_3,1.3074589997995645,,31,11,2026-03-12_14h16.56.872,2026A_exp2,2022.2.4,60.01687673450793,
1000,1,4.9,3.7,1,0,54,54,67,,,,,182.7267267999705,183.3770075000357,183.3770075000357,183.87828029994853,315,315,183.87828029994853,183.87828029994853,183.87828029994853,183.87828029994853,183.87828029994853,183.87828029994853,183.87828029994853,183.87828029994853,183.87828029994853,184.24480490013957,184.24480490013957,184.24480490013957,184.24480490013957,184.24480490013957,184.24480490013957,184.24480490013957,184.24480490013957,184.24480490013957,23,0,,,184.24480490013957,184.44721030001529,1000,184.44721030001529,1000,1000,1000,1000,0,num_3,0.4611798997502774,,31,11,2026-03-12_14h16.56.872,2026A_exp2,2022.2.4,60.01687673450793,
1,0,0.0,0.0,1,0,55,55,73,,,,,184.92882900009863,185.57952410005964,185.57952410005964,186.0804070001468,45,45,186.0804070001468,186.0804070001468,186.0804070001468,186.0804070001468,186.0804070001468,186.0804070001468,186.0804070001468,186.0804070001468,186.0804070001468,186.4302638999652,186.4302638999652,186.4302638999652,186.4302638999652,186.4302638999652,186.4302638999652,186.4302638999652,186.4302638999652,186.4302638999652,22,0,,,186.4302638999652,186.63057909999043,0.0,186.64725770009682,0,0.0,0,1,1000,num_1,0.6287791999056935,,31,11,2026-03-12_14h16.56.872,2026A_exp2,2022.2.4,60.01687673450793,
0,0,3.7,4.9,1,0,56,56,3,,,,,187.2978626000695,187.94855140009895,187.94855140009895,188.43302160012536,315,45,188.43302160012536,188.43302160012536,188.43302160012536,188.43302160012536,188.43302160012536,188.43302160012536,188.43302160012536,188.43302160012536,188.43302160012536,188.79926480003633,188.79926480003633,188.79926480003633,188.79926480003633,188.79926480003633,188.79926480003633,188.79926480003633,188.79926480003633,188.79926480003633,23,0,,,188.79926480003633,188.99953679996543,3.7,188.99953679996543,1,3.7,1,1,1000,num_4,0.7717568997759372,,31,11,2026-03-12_14h16.56.872,2026A_exp2,2022.2.4,60.01687673450793,
1000,1,6.1,4.9,1,0,57,57,53,,,,,189.80019800015725,190.4511794000864,190.4511794000864,190.93543209997006,45,315,190.93543209997006,190.93543209997006,190.93543209997006,190.93543209997006,190.93543209997006,190.93543209997006,190.93543209997006,190.93543209997006,190.93543209997006,191.3017947000917,191.3017947000917,191.3017947000917,191.3017947000917,191.3017947000917,191.3017947000917,191.3017947000917,191.3017947000917,191.3017947000917,23,0,,,191.3017947000917,191.50375550007448,1000,191.50375550007448,1000,1000,1000,1000,0,num_3,0.6034510999452323,,31,11,2026-03-12_14h16.56.872,2026A_exp2,2022.2.4,60.01687673450793,
1000,1,4.9,0.0,1,0,58,58,25,,,,,192.1360448000487,192.78675540001132,192.78675540001132,193.28784899995662,315,45,193.28784899995662,193.28784899995662,193.28784899995662,193.28784899995662,193.28784899995662,193.28784899995662,193.28784899995662,193.28784899995662,193.28784899995662,193.65418630000204,193.65418630000204,193.65418630000204,193.65418630000204,193.65418630000204,193.65418630000204,193.65418630000204,193.65418630000204,193.65418630000204,23,0,,,193.65418630000204,193.85444879997522,1000,193.85444879997522,1000,1000,1000,1000,0,num_3,0.46143010002560914,,31,11,2026-03-12_14h16.56.872,2026A_exp2,2022.2.4,60.01687673450793,
1,0,0.0,4.9,1,0,59,59,45,,,,,194.33810389996506,194.99819159996696,194.99819159996696,195.47744950000197,45,45,195.47744950000197,195.47744950000197,195.47744950000197,195.47744950000197,195.47744950000197,195.47744950000197,195.47744950000197,195.47744950000197,195.47744950000197,195.83968940004706,195.83968940004706,195.83968940004706,195.83968940004706,195.83968940004706,195.83968940004706,195.83968940004706,195.83968940004706,195.83968940004706,23,0,,,195.83968940004706,196.05470810015686,4.9,196.05470810015686,1,4.9,1,1,1000,num_4,0.558526299893856,,31,11,2026-03-12_14h16.56.872,2026A_exp2,2022.2.4,60.01687673450793,
1,0,0.0,0.0,0,0,60,60,2,,,,,196.6420532001648,197.2970537999645,197.2970537999645,197.79240570007823,45,315,197.79240570007823,197.79240570007823,197.79240570007823,197.79240570007823,197.79240570007823,197.79240570007823,197.79240570007823,197.79240570007823,197.79240570007823,198.15879909996875,198.15879909996875,198.15879909996875,198.15879909996875,198.15879909996875,198.15879909996875,198.15879909996875,198.15879909996875,198.15879909996875,23,0,,,198.15879909996875,198.35886360006407,0.0,198.35886360006407,0,0.0,0,1,1000,num_1,0.9483761999290437,,31,11,2026-03-12_14h16.56.872,2026A_exp2,2022.2.4,60.01687673450793,
1,0,0.0,3.7,0,0,61,61,12,,,,,199.32654789998196,199.9771651001647,199.9771651001647,200.46169649995863,45,45,200.46169649995863,200.46169649995863,200.46169649995863,200.46169649995863,200.46169649995863,200.46169649995863,200.46169649995863,200.46169649995863,200.46169649995863,200.8280420000665,200.8280420000665,200.8280420000665,200.8280420000665,200.8280420000665,200.8280420000665,200.8280420000665,200.8280420000665,200.8280420000665,23,0,,,200.8280420000665,201.0281337001361,0.0,201.0281337001361,0,0.0,0,1,1000,num_1,0.8239461998455226,,31,11,2026-03-12_14h16.56.872,2026A_exp2,2022.2.4,60.01687673450793,
1,0,4.9,4.9,1,0,62,62,89,,,,,201.87918259995058,202.529639699962,202.529639699962,203.01418479997665,45,45,203.01418479997665,203.01418479997665,203.01418479997665,203.01418479997665,203.01418479997665,203.01418479997665,203.01418479997665,203.01418479997665,203.01418479997665,203.38067980017513,203.38067980017513,203.38067980017513,203.38067980017513,203.38067980017513,203.38067980017513,203.38067980017513,203.38067980017513,203.38067980017513,23,0,,,203.38067980017513,203.58077830006368,4.9,203.58077830006368,1,4.9,1,1,1000,num_4,0.8553701997734606,,31,11,2026-03-12_14h16.56.872,2026A_exp2,2022.2.4,60.01687673450793,
1000,1,6.1,3.7,1,0,63,63,0,,,,,204.46491680014879,205.11563020013273,205.11563020013273,205.60007050004788,315,45,205.60007050004788,205.60007050004788,205.60007050004788,205.60007050004788,205.60007050004788,205.60007050004788,205.60007050004788,205.60007050004788,205.60007050004788,205.9665964001324,205.9665964001324,205.9665964001324,205.9665964001324,205.9665964001324,205.9665964001324,205.9665964001324,205.9665964001324,205.9665964001324,22,1,[0.21703050006181002],[0.2336643000598997],205.9665964001324,206.16682690009475,1000,206.16682690009475,1000,1000,1000,1000,0,num_3,0.5654452999588102,,31,11,2026-03-12_14h16.56.872,2026A_exp2,2022.2.4,60.01687673450793,
1,0,4.9,0.0,1,0,64,64,4,,,,,206.75052040000446,207.40118249994703,207.40118249994703,207.90234260004945,315,45,207.90234260004945,207.90234260004945,207.90234260004945,207.90234260004945,207.90234260004945,207.90234260004945,207.90234260004945,207.90234260004945,207.90234260004945,208.26878160005435,208.26878160005435,208.26878160005435,208.26878160005435,208.26878160005435,208.26878160005435,208.26878160005435,208.26878160005435,208.26878160005435,23,0,,,208.26878160005435,208.46874910010956,0.0,208.46874910010956,0,0.0,0,1,1000,num_1,0.6945159998722374,,31,11,2026-03-12_14h16.56.872,2026A_exp2,2022.2.4,60.01687673450793,
1000,1,6.1,3.7,1,0,65,65,24,,,,,209.18626240012236,209.83717590011656,209.83717590011656,210.33831549994648,45,315,210.33831549994648,210.33831549994648,210.33831549994648,210.33831549994648,210.33831549994648,210.33831549994648,210.33831549994648,210.33831549994648,210.33831549994648,210.70456010010093,210.70456010010093,210.70456010010093,210.70456010010093,210.70456010010093,210.70456010010093,210.70456010010093,210.70456010010093,210.70456010010093,23,0,,,210.70456010010093,210.9069217001088,1000,210.9069217001088,1000,1000,1000,1000,0,num_3,0.4323398999404162,,31,11,2026-03-12_14h16.56.872,2026A_exp2,2022.2.4,60.01687673450793,
1000,1,0.0,3.7,0,0,66,66,44,,,,,211.35526240011677,212.00588870001957,212.00588870001957,212.50698049995117,45,45,212.50698049995117,212.50698049995117,212.50698049995117,212.50698049995117,212.50698049995117,212.50698049995117,212.50698049995117,212.50698049995117,212.50698049995117,212.8734914001543,212.8734914001543,212.8734914001543,212.8734914001543,212.8734914001543,212.8734914001543,212.8734914001543,212.8734914001543,212.8734914001543,23,0,,,212.8734914001543,213.07573040015996,1000,213.07573040015996,1000,1000,1000,1000,1,num_2,1.2729202997870743,,31,11,2026-03-12_14h16.56.872,2026A_exp2,2022.2.4,60.01687673450793,
1,0,6.1,3.7,0,0,67,67,26,,,,,214.3750156001188,215.02566150017083,215.02566150017083,215.52667000005022,45,45,215.52667000005022,215.52667000005022,215.52667000005022,215.52667000005022,215.52667000005022,215.52667000005022,215.52667000005022,215.52667000005022,215.52667000005022,215.89319400000386,215.89319400000386,215.89319400000386,215.89319400000386,215.89319400000386,215.89319400000386,215.89319400000386,215.89319400000386,215.89319400000386,23,0,,,215.89319400000386,216.09325850009918,6.1,216.09325850009918,1,6.1,1,1,1000,num_4,0.7899997998028994,,31,11,2026-03-12_14h16.56.872,2026A_exp2,2022.2.4,60.01687673450793,
1000,1,4.9,0.0,0,0,68,68,36,,,,,216.91070779995061,217.56150620011613,217.56150620011613,218.04592770012096,315,45,218.04592770012096,218.04592770012096,218.04592770012096,218.04592770012096,218.04592770012096,218.04592770012096,218.04592770012096,218.04592770012096,218.04592770012096,218.4122214000672,218.4122214000672,218.4122214000672,218.4122214000672,218.4122214000672,218.4122214000672,218.4122214000672,218.4122214000672,218.4122214000672,22,1,[0.0012064001057296991],[0.017434600042179227],218.4122214000672,218.61254020011984,1000,218.61254020011984,1000,1000,1000,1000,0,num_3,0.5994262997992337,,31,11,2026-03-12_14h16.56.872,2026A_exp2,2022.2.4,60.01687673450793,
1,0,0.0,4.9,0,0,69,69,17,,,,,219.22965800017118,219.88031770009547,219.88031770009547,220.38147070002742,315,315,220.38147070002742,220.38147070002742,220.38147070002742,220.38147070002742,220.38147070002742,220.38147070002742,220.38147070002742,220.38147070002742,220.38147070002742,220.7480258999858,220.7480258999858,220.7480258999858,220.7480258999858,220.7480258999858,220.7480258999858,220.7480258999858,220.7480258999858,220.7480258999858,22,1,[0.29992449982091784],[0.31713089998811483],220.7480258999858,220.94815840013325,0.0,220.94815840013325,0,0.0,0,1,1000,num_1,0.7592285997234285,,31,11,2026-03-12_14h16.56.872,2026A_exp2,2022.2.4,60.01687673450793,
1000,1,4.9,0.0,0,0,70,70,22,,,,,221.73210559994914,222.38300639996305,222.38300639996305,222.88413530006073,315,45,222.88413530006073,222.88413530006073,222.88413530006073,222.88413530006073,222.88413530006073,222.88413530006073,222.88413530006073,222.88413530006073,222.88413530006073,223.2504360000603,223.2504360000603,223.2504360000603,223.2504360000603,223.2504360000603,223.2504360000603,223.2504360000603,223.2504360000603,223.2504360000603,23,0,,,223.2504360000603,223.45318459998816,1000,223.45318459998816,1000,1000,1000,1000,0,num_3,0.4946447997353971,,31,11,2026-03-12_14h16.56.872,2026A_exp2,2022.2.4,60.01687673450793,
1000,1,0.0,0.0,0,0,71,71,69,,,,,223.96792660001665,224.6185192000121,224.6185192000121,225.10296849999577,315,45,225.10296849999577,225.10296849999577,225.10296849999577,225.10296849999577,225.10296849999577,225.10296849999577,225.10296849999577,225.10296849999577,225.10296849999577,225.4693879999686,225.4693879999686,225.4693879999686,225.4693879999686,225.4693879999686,225.4693879999686,225.4693879999686,225.4693879999686,225.4693879999686,10,2,"[0.0014420000370591879, 0.26699559995904565]","[0.20029549999162555, 0.28374919993802905]",225.4693879999686,225.67172870016657,1000,225.67172870016657,1000,1000,1000,1000,0,num_3,0.7726411998737603,,31,11,2026-03-12_14h16.56.872,2026A_exp2,2022.2.4,60.01687673450793,
1000,1,0.0,0.0,1,0,72,72,29,,,,,226.47032600012608,227.12105150008574,227.12105150008574,227.62209830014035,45,315,227.62209830014035,227.62209830014035,227.62209830014035,227.62209830014035,227.62209830014035,227.62209830014035,227.62209830014035,227.62209830014035,227.62209830014035,227.98857140005566,227.98857140005566,227.98857140005566,227.98857140005566,227.98857140005566,227.98857140005566,227.98857140005566,227.98857140005566,227.98857140005566,18,3,"[0.03344229981303215, 0.06686050002463162, 0.3336636999156326]","[0.049985399935394526, 0.08345359982922673, 0.3671320998109877]",227.98857140005566,228.19074740004726,1000,228.19074740004726,1000,1000,1000,1000,0,num_3,0.5097950997296721,,31,11,2026-03-12_14h16.56.872,2026A_exp2,2022.2.4,60.01687673450793,
0,0,0.0,0.0,1,0,73,73,62,,,,,228.72245480003767,229.37320720008574,229.37320720008574,229.87446000007913,45,45,229.87446000007913,229.87446000007913,229.87446000007913,229.87446000007913,229.87446000007913,229.87446000007913,229.87446000007913,229.87446000007913,229.87446000007913,230.24083060002886,230.24083060002886,230.24083060002886,230.24083060002886,230.24083060002886,230.24083060002886,230.24083060002886,230.24083060002886,230.24083060002886,22,1,[0.36724029993638396],[0.36724519985727966],230.24083060002886,230.4412208001595,0.0,230.4412208001595,1,0.0,0,0,1000,num_4,0.8506185999140143,,31,11,2026-03-12_14h16.56.872,2026A_exp2,2022.2.4,60.01687673450793,
1,0,4.9,0.0,1,0,74,74,84,,,,,231.30837070010602,231.9424399000127,231.9424399000127,232.44331600004807,45,315,232.44331600004807,232.44331600004807,232.44331600004807,232.44331600004807,232.44331600004807,232.44331600004807,232.44331600004807,232.44331600004807,232.44331600004807,232.80958690005355,232.80958690005355,232.80958690005355,232.80958690005355,232.80958690005355,232.80958690005355,232.80958690005355,232.80958690005355,232.80958690005355,23,0,,,232.80958690005355,233.0098691000603,0.0,233.0098691000603,0,0.0,0,1,1000,num_1,0.7293589999899268,,31,11,2026-03-12_14h16.56.872,2026A_exp2,2022.2.4,60.01687673450793,
1,0,0.0,6.1,0,0,75,75,5,,,,,233.76057930011302,234.39480000012554,234.39480000012554,234.89631240000017,45,315,234.89631240000017,234.89631240000017,234.89631240000017,234.89631240000017,234.89631240000017,234.89631240000017,234.89631240000017,234.89631240000017,234.89631240000017,235.26224160008132,235.26224160008132,235.26224160008132,235.26224160008132,235.26224160008132,235.26224160008132,235.26224160008132,235.26224160008132,235.26224160008132,23,0,,,235.26224160008132,235.46397350006737,0.0,235.46397350006737,0,0.0,0,1,1000,num_1,0.8279538997448981,,31,11,2026-03-12_14h16.56.872,2026A_exp2,2022.2.4,60.01687673450793,
1000,1,0.0,4.9,0,0,76,76,77,,,,,236.3137763000559,236.94863100000657,236.94863100000657,237.44864550000057,315,45,237.44864550000057,237.44864550000057,237.44864550000057,237.44864550000057,237.44864550000057,237.44864550000057,237.44864550000057,237.44864550000057,237.44864550000057,237.81502480013296,237.81502480013296,237.81502480013296,237.81502480013296,237.81502480013296,237.81502480013296,237.81502480013296,237.81502480013296,237.81502480013296,21,2,"[0.20038679987192154, 0.26713890000246465]","[0.21705390000715852, 0.2837641998194158]",237.81502480013296,238.01737860008143,1000,238.01737860008143,1000,1000,1000,1000,1,num_2,0.7138737000059336,,31,11,2026-03-12_14h16.56.872,2026A_exp2,2022.2.4,60.01687673450793,
1,0,0.0,0.0,0,0,77,77,64,,,,,238.7492643999867,239.4000707999803,239.4000707999803,239.90096490015276,315,45,239.90096490015276,239.90096490015276,239.90096490015276,239.90096490015276,239.90096490015276,239.90096490015276,239.90096490015276,239.90096490015276,239.90096490015276,240.26747500011697,240.26747500011697,240.26747500011697,240.26747500011697,240.26747500011697,240.26747500011697,240.26747500011697,240.26747500011697,240.26747500011697,23,0,,,240.26747500011697,240.4677291000262,0.0,240.4677291000262,0,0.0,0,1,1000,num_1,0.8802955998107791,,31,11,2026-03-12_14h16.56.872,2026A_exp2,2022.2.4,60.01687673450793,
1000,1,0.0,0.0,0,0,78,78,75,,,,,241.36861900007352,242.0192617001012,242.0192617001012,242.52042930014431,45,45,242.52042930014431,242.52042930014431,242.52042930014431,242.52042930014431,242.52042930014431,242.52042930014431,242.52042930014431,242.52042930014431,242.52042930014431,242.8699696001131,242.8699696001131,242.8699696001131,242.8699696001131,242.8699696001131,242.8699696001131,242.8699696001131,242.8699696001131,242.8699696001131,22,0,,,242.8699696001131,243.07186400005594,1000,243.07186400005594,1000,1000,1000,1000,0,num_3,1.1638992000371218,,31,11,2026-03-12_14h16.56.872,2026A_exp2,2022.2.4,60.01687673450793,
1000,1,3.7,6.1,0,0,79,79,28,,,,,244.25475129997358,244.9055230000522,244.9055230000522,245.40642580017447,45,45,245.40642580017447,245.40642580017447,245.40642580017447,245.40642580017447,245.40642580017447,245.40642580017447,245.40642580017447,245.40642580017447,245.40642580017447,245.77304130000994,245.77304130000994,245.77304130000994,245.77304130000994,245.77304130000994,245.77304130000994,245.77304130000994,245.77304130000994,245.77304130000994,23,0,,,245.77304130000994,245.9748565000482,1000,245.9748565000482,1000,1000,1000,1000,1,num_2,0.48529379977844656,,31,11,2026-03-12_14h16.56.872,2026A_exp2,2022.2.4,60.01687673450793,
0,0,0.0,6.1,1,0,80,80,76,,,,,246.4903776999563,247.141062800074,247.141062800074,247.64223959995434,45,315,247.64223959995434,247.64223959995434,247.64223959995434,247.64223959995434,247.64223959995434,247.64223959995434,247.64223959995434,247.64223959995434,247.64223959995434,248.00841430015862,248.00841430015862,248.00841430015862,248.00841430015862,248.00841430015862,248.00841430015862,248.00841430015862,248.00841430015862,248.00841430015862,0,1,[0.001086000120267272],[0.367480400018394],248.00841430015862,248.2087880000472,0.0,248.2087880000472,0,0.0,0,1,1000,num_1,0.7311729998327792,,31,11,2026-03-12_14h16.56.872,2026A_exp2,2022.2.4,60.01687673450793,
1000,1,6.1,0.0,0,0,81,81,19,,,,,248.95951070007868,249.6100053000264,249.6100053000264,250.09444250003435,45,315,250.09444250003435,250.09444250003435,250.09444250003435,250.09444250003435,250.09444250003435,250.09444250003435,250.09444250003435,250.09444250003435,250.09444250003435,250.4611065001227,250.4611065001227,250.4611065001227,250.4611065001227,250.4611065001227,250.4611065001227,250.4611065001227,250.4611065001227,250.4611065001227,23,0,,,250.4611065001227,250.66306319995783,1000,250.66306319995783,1000,1000,1000,1000,0,num_3,0.5723055999260396,,31,11,2026-03-12_14h16.56.872,2026A_exp2,2022.2.4,60.01687673450793,
1,0,4.9,6.1,1,0,82,82,86,,,,,251.26174119999632,251.9125860000495,251.9125860000495,252.39697290002368,315,315,252.39697290002368,252.39697290002368,252.39697290002368,252.39697290002368,252.39697290002368,252.39697290002368,252.39697290002368,252.39697290002368,252.39697290002368,252.76326040015556,252.76326040015556,252.76326040015556,252.76326040015556,252.76326040015556,252.76326040015556,252.76326040015556,252.76326040015556,252.76326040015556,2,3,"[0.0011962999124079943, 0.2503301000688225, 0.33380159991793334]","[0.2336029999423772, 0.3171214999165386, 0.3672770999837667]",252.76326040015556,252.9635002000723,6.1,252.9635002000723,1,6.1,1,1,1000,num_4,0.7923635998740792,,31,11,2026-03-12_14h16.56.872,2026A_exp2,2022.2.4,60.01687673450793,
1,0,4.9,0.0,1,0,83,83,82,,,,,253.78098160005175,254.41490630013868,254.41490630013868,254.9161026000511,45,45,254.9161026000511,254.9161026000511,254.9161026000511,254.9161026000511,254.9161026000511,254.9161026000511,254.9161026000511,254.9161026000511,254.9161026000511,255.28244460001588,255.28244460001588,255.28244460001588,255.28244460001588,255.28244460001588,255.28244460001588,255.28244460001588,255.28244460001588,255.28244460001588,23,0,,,255.28244460001588,255.4827246000059,0.0,255.4827246000059,0,0.0,0,1,1000,num_1,0.9373560997191817,,31,11,2026-03-12_14h16.56.872,2026A_exp2,2022.2.4,60.01687673450793,
1000,1,0.0,4.9,0,0,84,84,11,,,,,256.4502061000094,257.10095880017616,257.10095880017616,257.58546680002473,315,45,257.58546680002473,257.58546680002473,257.58546680002473,257.58546680002473,257.58546680002473,257.58546680002473,257.58546680002473,257.58546680002473,257.58546680002473,257.9518627000507,257.9518627000507,257.9518627000507,257.9518627000507,257.9518627000507,257.9518627000507,257.9518627000507,257.9518627000507,257.9518627000507,23,0,,,257.9518627000507,258.1812489000149,1000,258.1812489000149,1000,1000,1000,1000,1,num_2,0.5348192998208106,,31,11,2026-03-12_14h16.56.872,2026A_exp2,2022.2.4,60.01687673450793,
0,0,0.0,0.0,1,0,85,85,8,,,,,258.73599419998936,259.3867230999749,259.3867230999749,259.88775310013443,315,315,259.88775310013443,259.88775310013443,259.88775310013443,259.88775310013443,259.88775310013443,259.88775310013443,259.88775310013443,259.88775310013443,259.88775310013443,260.25419620005414,260.25419620005414,260.25419620005414,260.25419620005414,260.25419620005414,260.25419620005414,260.25419620005414,260.25419620005414,260.25419620005414,16,4,"[0.20048379991203547, 0.2502911000046879, 0.3005709000863135, 0.3504800999071449]","[0.21706050005741417, 0.28391609992831945, 0.33382049994543195, 0.36709879990667105]",260.25419620005414,260.45448910002597,0.0,260.45448910002597,0,0.0,0,1,1000,num_1,0.7491965000517666,,31,11,2026-03-12_14h16.56.872,2026A_exp2,2022.2.4,60.01687673450793,
1,0,0.0,6.1,0,0,86,86,68,,,,,261.22152390005067,261.87251770007424,261.87251770007424,262.3735786001198,45,315,262.3735786001198,262.3735786001198,262.3735786001198,262.3735786001198,262.3735786001198,262.3735786001198,262.3735786001198,262.3735786001198,262.3735786001198,262.7233219000045,262.7233219000045,262.7233219000045,262.7233219000045,262.7233219000045,262.7233219000045,262.7233219000045,262.7233219000045,262.7233219000045,22,0,,,262.7233219000045,262.9234246001579,0.0,262.94018959999084,0,0.0,0,1,1000,num_1,0.7602402998600155,,31,11,2026-03-12_14h16.56.872,2026A_exp2,2022.2.4,60.01687673450793,
1000,1,6.1,3.7,1,0,87,87,10,,,,,263.72410690016113,264.37520100013353,264.37520100013353,264.85928920004517,315,45,264.85928920004517,264.85928920004517,264.85928920004517,264.85928920004517,264.85928920004517,264.85928920004517,264.85928920004517,264.85928920004517,264.85928920004517,265.2256146001164,265.2256146001164,265.2256146001164,265.2256146001164,265.2256146001164,265.2256146001164,265.2256146001164,265.2256146001164,265.2256146001164,5,1,[0.06678900006227195],[0.35040140012279153],265.2256146001164,265.4275399001781,1000,265.4275399001781,1000,1000,1000,1000,0,num_3,0.5282465000636876,,31,11,2026-03-12_14h16.56.872,2026A_exp2,2022.2.4,60.01687673450793,
1000,1,0.0,6.1,1,0,88,88,88,,,,,265.97632230003364,266.62719410005957,266.62719410005957,267.12827050010674,45,315,267.12827050010674,267.12827050010674,267.12827050010674,267.12827050010674,267.12827050010674,267.12827050010674,267.12827050010674,267.12827050010674,267.12827050010674,267.4947947000619,267.4947947000619,267.4947947000619,267.4947947000619,267.4947947000619,267.4947947000619,267.4947947000619,267.4947947000619,267.4947947000619,15,1,[0.25060580018907785],[0.36685720016248524],267.4947947000619,267.69674600008875,1000,267.69674600008875,1000,1000,1000,1000,1,num_2,0.5950389998033643,,31,11,2026-03-12_14h16.56.872,2026A_exp2,2022.2.4,60.01687673450793,
1000,1,0.0,0.0,1,0,89,89,47,,,,,268.31208000006154,268.9629007000476,268.9629007000476,269.4639382001478,45,45,269.4639382001478,269.4639382001478,269.4639382001478,269.4639382001478,269.4639382001478,269.4639382001478,269.4639382001478,269.4639382001478,269.4639382001478,269.83039110014215,269.83039110014215,269.83039110014215,269.83039110014215,269.83039110014215,269.83039110014215,269.83039110014215,269.83039110014215,269.83039110014215,3,2,"[0.0012000000569969416, 0.35061449999921024]","[0.3171989999245852, 0.36724149994552135]",269.83039110014215,270.03235980006866,1000,270.03235980006866,1000,1000,1000,1000,0,num_3,0.5952004999853671,,31,11,2026-03-12_14h16.56.872,2026A_exp2,2022.2.4,60.01687673450793,
,,,,,,,,,,,,,,,,,,,,,,,,,,,,,,,,,,,,,,,,,,,,,,,,,,,,270.65653240005486,,,,,,,
