validity,detectorcomp,contrastCW,contrastCCW,precueCWorCCW,block_80trials.thisRepN,block_80trials.thisTrialN,block_80trials.thisN,block_80trials.thisIndex,etRecord.started,etRecord.stopped,text.started,text.stopped,text_4.started,text_4.stopped,text_6.started,text_6.stopped,oriCW,oriCCW,roi_2.started,grating_UR.started,grating_UL.started,grating_LR.started,grating_LL.started,noise_UR.started,noise_UL.started,noise_LR.started,noise_LL.started,roi_2.stopped,grating_UR.stopped,grating_UL.stopped,grating_LR.stopped,grating_LL.stopped,noise_UR.stopped,noise_UL.stopped,noise_LR.stopped,noise_LL.stopped,outframe,roi_2.numLooks,roi_2.timesOn,roi_2.timesOff,text_2.started,text_2.stopped,probedcontrast,key_resp.started,respdetect,relevantContrast,correctDetect,TorFdetect,respCWorCCW,key_resp.keys,key_resp.rt,feedback_display_.started,participantNo,blockNo,date,expName,psychopyVersion,frameRate,
1000,1,6.1,3.7,1,0,0,0,45,6.469991058111191e-05,6.469991058111191e-05,53.34441199991852,55.347977000055835,55.347977000055835,55.98018330009654,55.98018330009654,56.50474989996292,45,45,56.50474989996292,56.50474989996292,56.50474989996292,56.50474989996292,56.50474989996292,56.50474989996292,56.50474989996292,56.50474989996292,56.50474989996292,56.84790900000371,56.84790900000371,56.84790900000371,56.84790900000371,56.84790900000371,56.84790900000371,56.84790900000371,56.84790900000371,56.84790900000371,3,3,"[0.001178500009700656, 0.15068249986506999, 0.1839880000334233]","[0.13379029999487102, 0.16731190006248653, 0.36726249987259507]",56.84790900000371,57.054996100021526,1000,57.054996100021526,1000,1000,1000,1000,0,num_3,0.755689499899745,,37,8,2026-03-13_18h07.54.085,2026A_exp2,2022.2.4,59.817806942974386,
1000,1,0.0,0.0,1,0,1,1,62,,,,,57.83225369988941,58.482761200051755,58.482761200051755,58.98397579998709,315,45,58.98397579998709,58.98397579998709,58.98397579998709,58.98397579998709,58.98397579998709,58.98397579998709,58.98397579998709,58.98397579998709,58.98397579998709,59.35031479992904,59.35031479992904,59.35031479992904,59.35031479992904,59.35031479992904,59.35031479992904,59.35031479992904,59.35031479992904,59.35031479992904,0,1,[0.0012175999581813812],[0.36737829982303083],59.35031479992904,59.55248360009864,1000,59.55248360009864,1000,1000,1000,1000,1,num_2,1.0820982998702675,,37,8,2026-03-13_18h07.54.085,2026A_exp2,2022.2.4,59.817806942974386,
1000,1,6.1,4.9,1,0,2,2,76,,,,,60.65185960009694,61.30238760006614,61.30238760006614,61.80351800005883,45,315,61.80351800005883,61.80351800005883,61.80351800005883,61.80351800005883,61.80351800005883,61.80351800005883,61.80351800005883,61.80351800005883,61.80351800005883,62.1697519000154,62.1697519000154,62.1697519000154,62.1697519000154,62.1697519000154,62.1697519000154,62.1697519000154,62.1697519000154,62.1697519000154,0,1,[0.0012978001032024622],[0.3676932000089437],62.1697519000154,62.39058730006218,1000,62.39058730006218,1000,1000,1000,1000,0,num_3,0.7004265000578016,,37,8,2026-03-13_18h07.54.085,2026A_exp2,2022.2.4,59.817806942974386,
1,0,3.7,3.7,1,0,3,3,64,,,,,63.12069100001827,63.77149849990383,63.77149849990383,64.27256099996157,315,45,64.27256099996157,64.27256099996157,64.27256099996157,64.27256099996157,64.27256099996157,64.27256099996157,64.27256099996157,64.27256099996157,64.27256099996157,64.63908130000345,64.63908130000345,64.63908130000345,64.63908130000345,64.63908130000345,64.63908130000345,64.63908130000345,64.63908130000345,64.63908130000345,0,1,[0.0012019001878798008],[0.36714790016412735],64.63908130000345,64.8392272000201,3.7,64.8392272000201,1,3.7,1,1,1000,num_4,1.0838518999516964,,37,8,2026-03-13_18h07.54.085,2026A_exp2,2022.2.4,59.817806942974386,
1,0,0.0,4.9,1,0,4,4,65,,,,,65.94033890007995,66.59091560007073,66.59091560007073,67.0753101001028,315,315,67.0753101001028,67.0753101001028,67.0753101001028,67.0753101001028,67.0753101001028,67.0753101001028,67.0753101001028,67.0753101001028,67.0753101001028,67.44182389997877,67.44182389997877,67.44182389997877,67.44182389997877,67.44182389997877,67.44182389997877,67.44182389997877,67.44182389997877,67.44182389997877,0,1,[0.001249799970537424],[0.36709189997054636],67.44182389997877,67.64191300002858,4.9,67.64191300002858,1,4.9,1,1,1000,num_4,0.5925282000098377,,37,8,2026-03-13_18h07.54.085,2026A_exp2,2022.2.4,59.817806942974386,
1000,1,0.0,3.7,0,0,5,5,32,,,,,68.25931810005568,68.90988090005703,68.90988090005703,69.39445409993641,45,45,69.39445409993641,69.39445409993641,69.39445409993641,69.39445409993641,69.39445409993641,69.39445409993641,69.39445409993641,69.39445409993641,69.39445409993641,69.76066070003435,69.76066070003435,69.76066070003435,69.76066070003435,69.76066070003435,69.76066070003435,69.76066070003435,69.76066070003435,69.76066070003435,0,1,[0.001308700069785118],[0.36712089995853603],69.76066070003435,69.96291349991225,1000,69.96291349991225,1000,1000,1000,1000,1,num_2,0.6245382998604327,,37,8,2026-03-13_18h07.54.085,2026A_exp2,2022.2.4,59.817806942974386,
1,0,0.0,0.0,0,0,6,6,0,,,,,70.61192560009658,71.26226369990036,71.26226369990036,71.74687839997932,45,45,71.74687839997932,71.74687839997932,71.74687839997932,71.74687839997932,71.74687839997932,71.74687839997932,71.74687839997932,71.74687839997932,71.74687839997932,72.11322050006129,72.11322050006129,72.11322050006129,72.11322050006129,72.11322050006129,72.11322050006129,72.11322050006129,72.11322050006129,72.11322050006129,0,1,[0.0010202000848948956],[0.36726139998063445],72.11322050006129,72.31994269997813,0.0,72.31994269997813,1,0.0,0,0,1000,num_4,1.2025597000028938,,37,8,2026-03-13_18h07.54.085,2026A_exp2,2022.2.4,59.817806942974386,
1,0,0.0,0.0,1,0,7,7,53,,,,,73.54794459999539,74.18171150004491,74.18171150004491,74.68312019994482,45,45,74.68312019994482,74.68312019994482,74.68312019994482,74.68312019994482,74.68312019994482,74.68312019994482,74.68312019994482,74.68312019994482,74.68312019994482,75.04942329996265,75.04942329996265,75.04942329996265,75.04942329996265,75.04942329996265,75.04942329996265,75.04942329996265,75.04942329996265,75.04942329996265,22,1,[0.3674049999099225],[0.36741019994951785],75.04942329996265,75.24962899996899,0.0,75.24962899996899,0,0.0,0,1,1000,num_1,1.0965670000296086,,37,8,2026-03-13_18h07.54.085,2026A_exp2,2022.2.4,59.817806942974386,
1000,1,0.0,3.7,1,0,8,8,43,,,,,76.3672416000627,77.01799859991297,77.01799859991297,77.50241359998472,45,315,77.50241359998472,77.50241359998472,77.50241359998472,77.50241359998472,77.50241359998472,77.50241359998472,77.50241359998472,77.50241359998472,77.50241359998472,77.86896610003896,77.86896610003896,77.86896610003896,77.86896610003896,77.86896610003896,77.86896610003896,77.86896610003896,77.86896610003896,77.86896610003896,3,4,"[0.0012125000357627869, 0.06693030009046197, 0.09995670011267066, 0.13374820002354681]","[0.0503050999250263, 0.08353450009599328, 0.11689630011096597, 0.3671830000821501]",77.86896610003896,78.09112669993192,1000,78.09112669993192,1000,1000,1000,1000,1,num_2,0.9912127000279725,,37,8,2026-03-13_18h07.54.085,2026A_exp2,2022.2.4,59.817806942974386,
1,0,0.0,6.1,0,0,9,9,72,,,,,79.10343970009126,79.75410060002469,79.75410060002469,80.25530349998735,45,315,80.25530349998735,80.25530349998735,80.25530349998735,80.25530349998735,80.25530349998735,80.25530349998735,80.25530349998735,80.25530349998735,80.25530349998735,80.6215393000748,80.6215393000748,80.6215393000748,80.6215393000748,80.6215393000748,80.6215393000748,80.6215393000748,80.6215393000748,80.6215393000748,19,3,"[0.0835740000475198, 0.11693969997577369, 0.1501323999837041]","[0.1002942998893559, 0.1335292998701334, 0.183610700070858]",80.6215393000748,80.82192789996043,0.0,80.82192789996043,0,0.0,0,1,1000,num_1,0.7413258000742644,,37,8,2026-03-13_18h07.54.085,2026A_exp2,2022.2.4,59.817806942974386,
1,0,0.0,0.0,0,0,10,10,66,,,,,81.58909619995393,82.24004040006548,82.24004040006548,82.72432129993103,315,315,82.72432129993103,82.72432129993103,82.72432129993103,82.72432129993103,82.72432129993103,82.72432129993103,82.72432129993103,82.72432129993103,82.72432129993103,83.09082629997283,83.09082629997283,83.09082629997283,83.09082629997283,83.09082629997283,83.09082629997283,83.09082629997283,83.09082629997283,83.09082629997283,19,1,[0.3170908000320196],[0.3671230999752879],83.09082629997283,83.29106330010109,0.0,83.29106330010109,1,0.0,0,0,1000,num_4,0.6073054000735283,,37,8,2026-03-13_18h07.54.085,2026A_exp2,2022.2.4,59.817806942974386,
1000,1,6.1,0.0,0,0,11,11,68,,,,,83.9249893000815,84.55910579999909,84.55910579999909,85.06007690005936,315,315,85.06007690005936,85.06007690005936,85.06007690005936,85.06007690005936,85.06007690005936,85.06007690005936,85.06007690005936,85.06007690005936,85.06007690005936,85.42634880007245,85.42634880007245,85.42634880007245,85.42634880007245,85.42634880007245,85.42634880007245,85.42634880007245,85.42634880007245,85.42634880007245,23,0,,,85.42634880007245,85.62864620005712,1000,85.62864620005712,1000,1000,1000,1000,0,num_3,0.6057110000401735,,37,8,2026-03-13_18h07.54.085,2026A_exp2,2022.2.4,59.817806942974386,
0,0,3.7,3.7,0,0,12,12,63,,,,,86.26053470000625,86.91123529989272,86.91123529989272,87.41222609998658,45,315,87.41222609998658,87.41222609998658,87.41222609998658,87.41222609998658,87.41222609998658,87.41222609998658,87.41222609998658,87.41222609998658,87.41222609998658,87.7788819000125,87.7788819000125,87.7788819000125,87.7788819000125,87.7788819000125,87.7788819000125,87.7788819000125,87.7788819000125,87.7788819000125,0,1,[0.0011984999291598797],[0.36678289994597435],87.7788819000125,87.97902949992567,3.7,87.97902949992567,0,3.7,1,0,1000,num_1,1.3919957000762224,,37,8,2026-03-13_18h07.54.085,2026A_exp2,2022.2.4,59.817806942974386,
1000,1,3.7,3.7,0,0,13,13,16,,,,,89.39696769998409,90.04773229989223,90.04773229989223,90.53208769997582,45,315,90.53208769997582,90.53208769997582,90.53208769997582,90.53208769997582,90.53208769997582,90.53208769997582,90.53208769997582,90.53208769997582,90.53208769997582,90.89860439999029,90.89860439999029,90.89860439999029,90.89860439999029,90.89860439999029,90.89860439999029,90.89860439999029,90.89860439999029,90.89860439999029,21,2,"[0.033399000065401196, 0.2669050002004951]","[0.04995000013150275, 0.28361740009859204]",90.89860439999029,91.10042949998751,1000,91.10042949998751,1000,1000,1000,1000,0,num_3,0.7018989000935107,,37,8,2026-03-13_18h07.54.085,2026A_exp2,2022.2.4,59.817806942974386,
1,0,6.1,6.1,1,0,14,14,89,,,,,91.83280449989252,92.48353930003941,92.48353930003941,92.98456429992802,45,315,92.98456429992802,92.98456429992802,92.98456429992802,92.98456429992802,92.98456429992802,92.98456429992802,92.98456429992802,92.98456429992802,92.98456429992802,93.35108519997448,93.35108519997448,93.35108519997448,93.35108519997448,93.35108519997448,93.35108519997448,93.35108519997448,93.35108519997448,93.35108519997448,7,3,"[0.05019870004616678, 0.13362169987522066, 0.1670317999087274]","[0.0835549000184983, 0.1505090999417007, 0.36707969987764955]",93.35108519997448,93.55134280002676,6.1,93.55134280002676,1,6.1,1,1,1000,num_4,1.044219700153917,,37,8,2026-03-13_18h07.54.085,2026A_exp2,2022.2.4,59.817806942974386,
1,0,6.1,0.0,1,0,15,15,38,,,,,94.61889100004919,95.26965030003339,95.26965030003339,95.75397620000876,45,315,95.75397620000876,95.75397620000876,95.75397620000876,95.75397620000876,95.75397620000876,95.75397620000876,95.75397620000876,95.75397620000876,95.75397620000876,96.12056010006927,96.12056010006927,96.12056010006927,96.12056010006927,96.12056010006927,96.12056010006927,96.12056010006927,96.12056010006927,96.12056010006927,0,1,[0.0012771999463438988],[0.36704930011183023],96.12056010006927,96.32056999998167,0.0,96.32056999998167,0,0.0,0,1,1000,num_1,0.7540899999439716,,37,8,2026-03-13_18h07.54.085,2026A_exp2,2022.2.4,59.817806942974386,
1000,1,4.9,0.0,0,0,16,16,20,,,,,97.10462690005079,97.75547259999439,97.75547259999439,98.23979489994235,45,315,98.23979489994235,98.23979489994235,98.23979489994235,98.23979489994235,98.23979489994235,98.23979489994235,98.23979489994235,98.23979489994235,98.23979489994235,98.60634370008484,98.60634370008484,98.60634370008484,98.60634370008484,98.60634370008484,98.60634370008484,98.60634370008484,98.60634370008484,98.60634370008484,23,0,,,98.60634370008484,98.80813700007275,1000,98.80813700007275,1000,1000,1000,1000,0,num_3,0.6591381998732686,,37,8,2026-03-13_18h07.54.085,2026A_exp2,2022.2.4,59.817806942974386,
1,0,0.0,0.0,0,0,17,17,29,,,,,99.49053029995412,100.14197240001522,100.14197240001522,100.64226439991035,315,315,100.64226439991035,100.64226439991035,100.64226439991035,100.64226439991035,100.64226439991035,100.64226439991035,100.64226439991035,100.64226439991035,100.64226439991035,101.00872549996711,101.00872549996711,101.00872549996711,101.00872549996711,101.00872549996711,101.00872549996711,101.00872549996711,101.00872549996711,101.00872549996711,11,4,"[0.10017849993892014, 0.20035509997978806, 0.26690819999203086, 0.3169756999704987]","[0.18362500006332994, 0.2335602999664843, 0.2836917999666184, 0.3670568000525236]",101.00872549996711,101.20896889991127,0.0,101.20896889991127,1,0.0,0,0,1000,num_4,0.9613600999582559,,37,8,2026-03-13_18h07.54.085,2026A_exp2,2022.2.4,59.817806942974386,
1,0,3.7,0.0,1,0,18,18,59,,,,,102.19314710004255,102.84401119989343,102.84401119989343,103.32826310000382,45,315,103.32826310000382,103.32826310000382,103.32826310000382,103.32826310000382,103.32826310000382,103.32826310000382,103.32826310000382,103.32826310000382,103.32826310000382,103.69477419997565,103.69477419997565,103.69477419997565,103.69477419997565,103.69477419997565,103.69477419997565,103.69477419997565,103.69477419997565,103.69477419997565,22,1,[0.3172430999111384],[0.33384869992733],103.69477419997565,103.89482369995676,0.0,103.89482369995676,0,0.0,0,1,1000,num_1,2.331761699868366,,37,8,2026-03-13_18h07.54.085,2026A_exp2,2022.2.4,59.817806942974386,
1000,1,6.1,3.7,0,0,19,19,61,,,,,106.24733750009909,106.89797990000807,106.89797990000807,107.39906720002182,315,315,107.39906720002182,107.39906720002182,107.39906720002182,107.39906720002182,107.39906720002182,107.39906720002182,107.39906720002182,107.39906720002182,107.39906720002182,107.74882530001923,107.74882530001923,107.74882530001923,107.74882530001923,107.74882530001923,107.74882530001923,107.74882530001923,107.74882530001923,107.74882530001923,12,4,"[0.0011973001528531313, 0.0669501000083983, 0.16702080005779862, 0.2671934999525547]","[0.05031710001640022, 0.13382280012592673, 0.2004698000382632, 0.2838972001336515]",107.74882530001923,107.95109859993681,1000,107.95109859993681,1000,1000,1000,1000,0,num_3,0.4680220999289304,,37,8,2026-03-13_18h07.54.085,2026A_exp2,2022.2.4,59.817806942974386,
1,0,0.0,3.7,0,0,20,20,22,,,,,108.44937380007468,109.10020920005627,109.10020920005627,109.60118449991569,315,315,109.60118449991569,109.60118449991569,109.60118449991569,109.60118449991569,109.60118449991569,109.60118449991569,109.60118449991569,109.60118449991569,109.60118449991569,109.96774500003085,109.96774500003085,109.96774500003085,109.96774500003085,109.96774500003085,109.96774500003085,109.96774500003085,109.96774500003085,109.96774500003085,23,0,,,109.96774500003085,110.16844230005518,0.0,110.16844230005518,1,0.0,0,0,1000,num_4,1.066029200097546,,37,8,2026-03-13_18h07.54.085,2026A_exp2,2022.2.4,59.817806942974386,
1,0,0.0,3.7,1,0,21,21,10,,,,,111.25206990004517,111.90297050005756,111.90297050005756,112.38754740008153,315,315,112.38754740008153,112.38754740008153,112.38754740008153,112.38754740008153,112.38754740008153,112.38754740008153,112.38754740008153,112.38754740008153,112.38754740008153,112.75384899997152,112.75384899997152,112.75384899997152,112.75384899997152,112.75384899997152,112.75384899997152,112.75384899997152,112.75384899997152,112.75384899997152,13,1,[0.2166532000992447],[0.3671452000271529],112.75384899997152,112.95424379990436,3.7,112.95424379990436,1,3.7,1,1,1000,num_4,1.0007652998901904,,37,8,2026-03-13_18h07.54.085,2026A_exp2,2022.2.4,59.817806942974386,
1000,1,4.9,0.0,0,0,22,22,78,,,,,113.97159689990804,114.62236790009774,114.62236790009774,115.123477099929,315,45,115.123477099929,115.123477099929,115.123477099929,115.123477099929,115.123477099929,115.123477099929,115.123477099929,115.123477099929,115.123477099929,115.47325949999504,115.47325949999504,115.47325949999504,115.47325949999504,115.47325949999504,115.47325949999504,115.47325949999504,115.47325949999504,115.47325949999504,0,1,[0.0012135999277234077],[0.35054020001553],115.47325949999504,115.67535190004855,1000,115.67535190004855,1000,1000,1000,1000,0,num_3,0.6390270998235792,,37,8,2026-03-13_18h07.54.085,2026A_exp2,2022.2.4,59.817806942974386,
1000,1,6.1,6.1,0,0,23,23,56,,,,,116.34068130003288,116.9913760998752,116.9913760998752,117.49230829998851,315,315,117.49230829998851,117.49230829998851,117.49230829998851,117.49230829998851,117.49230829998851,117.49230829998851,117.49230829998851,117.49230829998851,117.49230829998851,117.85891689988784,117.85891689988784,117.85891689988784,117.85891689988784,117.85891689988784,117.85891689988784,117.85891689988784,117.85891689988784,117.85891689988784,3,3,"[0.00121779995970428, 0.11640610010363162, 0.20001880009658635]","[0.08357560005970299, 0.16679199994541705, 0.3668502999935299]",117.85891689988784,118.05904749990441,1000,118.05904749990441,1000,1000,1000,1000,1,num_2,0.5440028000157326,,37,8,2026-03-13_18h07.54.085,2026A_exp2,2022.2.4,59.817806942974386,
1000,1,6.1,0.0,0,0,24,24,8,,,,,118.62626280006953,119.27702119993046,119.27702119993046,119.77815010002814,315,315,119.77815010002814,119.77815010002814,119.77815010002814,119.77815010002814,119.77815010002814,119.77815010002814,119.77815010002814,119.77815010002814,119.77815010002814,120.1278834999539,120.1278834999539,120.1278834999539,120.1278834999539,120.1278834999539,120.1278834999539,120.1278834999539,120.1278834999539,120.1278834999539,22,0,,,120.1278834999539,120.32979370001704,1000,120.34480619989336,1000,1000,1000,1000,0,num_3,0.5458027999848127,,37,8,2026-03-13_18h07.54.085,2026A_exp2,2022.2.4,59.817806942974386,
1000,1,4.9,3.7,1,0,25,25,14,,,,,120.91185120004229,121.56269769999199,121.56269769999199,122.06376009993255,45,315,122.06376009993255,122.06376009993255,122.06376009993255,122.06376009993255,122.06376009993255,122.06376009993255,122.06376009993255,122.06376009993255,122.06376009993255,122.43000390008092,122.43000390008092,122.43000390008092,122.43000390008092,122.43000390008092,122.43000390008092,122.43000390008092,122.43000390008092,122.43000390008092,15,6,"[0.0012152001727372408, 0.03352800011634827, 0.06684119999408722, 0.18374560005031526, 0.28410120005719364, 0.3505647999700159]","[0.017393700079992414, 0.050088100135326385, 0.08354869997128844, 0.20034070010297, 0.30041999998502433, 0.36713250004686415]",122.43000390008092,122.6321908000391,1000,122.6321908000391,1000,1000,1000,1000,0,num_3,0.45831390004605055,,37,8,2026-03-13_18h07.54.085,2026A_exp2,2022.2.4,59.817806942974386,
1000,1,3.7,0.0,1,0,26,26,44,,,,,123.1140445000492,123.76478890003636,123.76478890003636,124.26596280001104,315,315,124.26596280001104,124.26596280001104,124.26596280001104,124.26596280001104,124.26596280001104,124.26596280001104,124.26596280001104,124.26596280001104,124.26596280001104,124.63234689994715,124.63234689994715,124.63234689994715,124.63234689994715,124.63234689994715,124.63234689994715,124.63234689994715,124.63234689994715,124.63234689994715,23,0,,,124.63234689994715,124.83444590005092,1000,124.83444590005092,1000,1000,1000,1000,0,num_3,0.4001533000264317,,37,8,2026-03-13_18h07.54.085,2026A_exp2,2022.2.4,59.817806942974386,
1,0,0.0,6.1,0,0,27,27,57,,,,,125.24958799988963,125.90022559999488,125.90022559999488,126.401316100033,315,45,126.401316100033,126.401316100033,126.401316100033,126.401316100033,126.401316100033,126.401316100033,126.401316100033,126.401316100033,126.401316100033,126.767834499944,126.767834499944,126.767834499944,126.767834499944,126.767834499944,126.767834499944,126.767834499944,126.767834499944,126.767834499944,23,0,,,126.767834499944,126.96809530002065,0.0,126.96809530002065,0,0.0,0,1,1000,num_1,2.0101375998929143,,37,8,2026-03-13_18h07.54.085,2026A_exp2,2022.2.4,59.817806942974386,
1000,1,6.1,0.0,1,0,28,28,79,,,,,129.00316180009395,129.6457716000732,129.6457716000732,130.13840529997833,315,315,130.13840529997833,130.13840529997833,130.13840529997833,130.13840529997833,130.13840529997833,130.13840529997833,130.13840529997833,130.13840529997833,130.13840529997833,130.50480580003932,130.50480580003932,130.50480580003932,130.50480580003932,130.50480580003932,130.50480580003932,130.50480580003932,130.50480580003932,130.50480580003932,22,1,[0.2503457001876086],[0.2672329000197351],130.50480580003932,130.70899170008488,1000,130.70899170008488,1000,1000,1000,1000,0,num_3,0.5259021001402289,,37,8,2026-03-13_18h07.54.085,2026A_exp2,2022.2.4,59.817806942974386,
1000,1,0.0,6.1,1,0,29,29,3,,,,,131.25546790007502,131.9081331999041,131.9081331999041,132.40773959993385,315,315,132.40773959993385,132.40773959993385,132.40773959993385,132.40773959993385,132.40773959993385,132.40773959993385,132.40773959993385,132.40773959993385,132.40773959993385,132.77388109988533,132.77388109988533,132.77388109988533,132.77388109988533,132.77388109988533,132.77388109988533,132.77388109988533,132.77388109988533,132.77388109988533,23,0,,,132.77388109988533,132.97592959995382,1000,132.97592959995382,1000,1000,1000,1000,1,num_2,2.2666587999556214,,37,8,2026-03-13_18h07.54.085,2026A_exp2,2022.2.4,59.817806942974386,
1,0,3.7,4.9,0,0,30,30,31,,,,,135.25953759998083,135.91032480006106,135.91032480006106,136.41142389993183,45,315,136.41142389993183,136.41142389993183,136.41142389993183,136.41142389993183,136.41142389993183,136.41142389993183,136.41142389993183,136.41142389993183,136.41142389993183,136.777702299878,136.777702299878,136.777702299878,136.777702299878,136.777702299878,136.777702299878,136.777702299878,136.777702299878,136.777702299878,0,1,[0.0012014999520033598],[0.36714610015042126],136.777702299878,136.97798740002327,3.7,136.97798740002327,0,3.7,1,0,1000,num_1,1.457135000033304,,37,8,2026-03-13_18h07.54.085,2026A_exp2,2022.2.4,59.817806942974386,
1000,1,0.0,0.0,1,0,31,31,71,,,,,138.462722199969,139.11357939988375,139.11357939988375,139.5979331000708,315,45,139.5979331000708,139.5979331000708,139.5979331000708,139.5979331000708,139.5979331000708,139.5979331000708,139.5979331000708,139.5979331000708,139.5979331000708,139.9643826999236,139.9643826999236,139.9643826999236,139.9643826999236,139.9643826999236,139.9643826999236,139.9643826999236,139.9643826999236,139.9643826999236,23,0,,,139.9643826999236,140.16611089999788,1000,140.16611089999788,1000,1000,1000,1000,0,num_3,0.4207669000606984,,37,8,2026-03-13_18h07.54.085,2026A_exp2,2022.2.4,59.817806942974386,
1000,1,4.9,4.9,1,0,32,32,60,,,,,140.61490779998712,141.2762275999412,141.2762275999412,141.766672299942,315,45,141.766672299942,141.766672299942,141.766672299942,141.766672299942,141.766672299942,141.766672299942,141.766672299942,141.766672299942,141.766672299942,142.1330649999436,142.1330649999436,142.1330649999436,142.1330649999436,142.1330649999436,142.1330649999436,142.1330649999436,142.1330649999436,142.1330649999436,23,0,,,142.1330649999436,142.3351612999104,1000,142.3351612999104,1000,1000,1000,1000,1,num_2,0.7161020000930876,,37,8,2026-03-13_18h07.54.085,2026A_exp2,2022.2.4,59.817806942974386,
1000,1,3.7,6.1,0,0,33,33,81,,,,,143.0673338000197,143.71822750009596,143.71822750009596,144.21927849994972,315,45,144.21927849994972,144.21927849994972,144.21927849994972,144.21927849994972,144.21927849994972,144.21927849994972,144.21927849994972,144.21927849994972,144.21927849994972,144.5856079000514,144.5856079000514,144.5856079000514,144.5856079000514,144.5856079000514,144.5856079000514,144.5856079000514,144.5856079000514,144.5856079000514,21,2,"[0.05032740021124482, 0.10056470008566976]","[0.06719860015437007, 0.11712790001183748]",144.5856079000514,144.78779800003394,1000,144.78779800003394,1000,1000,1000,1000,1,num_2,0.5030706999823451,,37,8,2026-03-13_18h07.54.085,2026A_exp2,2022.2.4,59.817806942974386,
1,0,0.0,0.0,0,0,34,34,49,,,,,145.3195795000065,145.97034169989638,145.97034169989638,146.47144129988737,45,315,146.47144129988737,146.47144129988737,146.47144129988737,146.47144129988737,146.47144129988737,146.47144129988737,146.47144129988737,146.47144129988737,146.47144129988737,146.8378971000202,146.8378971000202,146.8378971000202,146.8378971000202,146.8378971000202,146.8378971000202,146.8378971000202,146.8378971000202,146.8378971000202,23,0,,,146.8378971000202,147.03795009991154,0.0,147.03795009991154,0,0.0,0,1,1000,num_1,2.1249241000041366,,37,8,2026-03-13_18h07.54.085,2026A_exp2,2022.2.4,59.817806942974386,
1000,1,0.0,3.7,1,0,35,35,75,,,,,149.1901481000241,149.8408876999747,149.8408876999747,150.3251948999241,315,315,150.3251948999241,150.3251948999241,150.3251948999241,150.3251948999241,150.3251948999241,150.3251948999241,150.3251948999241,150.3251948999241,150.3251948999241,150.69183970009908,150.69183970009908,150.69183970009908,150.69183970009908,150.69183970009908,150.69183970009908,150.69183970009908,150.69183970009908,150.69183970009908,3,3,"[0.001056700013577938, 0.10047089983709157, 0.3340110999997705]","[0.08370239986106753, 0.3008294999599457, 0.36732099996879697]",150.69183970009908,150.89405329991132,1000,150.89405329991132,1000,1000,1000,1000,1,num_2,0.540250999853015,,37,8,2026-03-13_18h07.54.085,2026A_exp2,2022.2.4,59.817806942974386,
1,0,6.1,4.9,0,0,36,36,30,,,,,151.45903889997862,152.10985559993424,152.10985559993424,152.61084980005398,315,45,152.61084980005398,152.61084980005398,152.61084980005398,152.61084980005398,152.61084980005398,152.61084980005398,152.61084980005398,152.61084980005398,152.61084980005398,152.9771811000537,152.9771811000537,152.9771811000537,152.9771811000537,152.9771811000537,152.9771811000537,152.9771811000537,152.9771811000537,152.9771811000537,16,1,[0.1837021999526769],[0.30038019991479814],152.9771811000537,153.17760870000347,6.1,153.17760870000347,0,6.1,1,0,1000,num_1,1.4169127000495791,,37,8,2026-03-13_18h07.54.085,2026A_exp2,2022.2.4,59.817806942974386,
1,0,4.9,0.0,0,0,37,37,87,,,,,154.61217779992148,155.26281449990347,155.26281449990347,155.74745499994606,45,315,155.74745499994606,155.74745499994606,155.74745499994606,155.74745499994606,155.74745499994606,155.74745499994606,155.74745499994606,155.74745499994606,155.74745499994606,156.11385599989444,156.11385599989444,156.11385599989444,156.11385599989444,156.11385599989444,156.11385599989444,156.11385599989444,156.11385599989444,156.11385599989444,8,6,"[0.0012184998486191034, 0.10018930002115667, 0.20031889993697405, 0.23373949993401766, 0.30050609982572496, 0.35055359988473356]","[0.08357919985428452, 0.18369370000436902, 0.21709869988262653, 0.2838001998607069, 0.3171891998499632, 0.3671428000088781]",156.11385599989444,156.31395049998537,4.9,156.31395049998537,1,4.9,1,1,1000,num_4,0.7614621000830084,,37,8,2026-03-13_18h07.54.085,2026A_exp2,2022.2.4,59.817806942974386,
1000,1,4.9,0.0,1,0,38,38,28,,,,,157.09798519988544,157.7487528999336,157.7487528999336,158.2331630999688,45,45,158.2331630999688,158.2331630999688,158.2331630999688,158.2331630999688,158.2331630999688,158.2331630999688,158.2331630999688,158.2331630999688,158.2331630999688,158.59948690002784,158.59948690002784,158.59948690002784,158.59948690002784,158.59948690002784,158.59948690002784,158.59948690002784,158.59948690002784,158.59948690002784,23,0,,,158.59948690002784,158.8057289000135,1000,158.8057289000135,1000,1000,1000,1000,0,num_3,0.5333753998856992,,37,8,2026-03-13_18h07.54.085,2026A_exp2,2022.2.4,59.817806942974386,
1000,1,4.9,6.1,1,0,39,39,18,,,,,159.36669910000637,160.01775199989788,160.01775199989788,160.51875589997508,45,315,160.51875589997508,160.51875589997508,160.51875589997508,160.51875589997508,160.51875589997508,160.51875589997508,160.51875589997508,160.51875589997508,160.51875589997508,160.86859719990753,160.86859719990753,160.86859719990753,160.86859719990753,160.86859719990753,160.86859719990753,160.86859719990753,160.86859719990753,160.86859719990753,22,0,,,160.86859719990753,161.07031359989196,1000,161.0855270999018,1000,1000,1000,1000,1,num_2,0.7740563000552356,,37,8,2026-03-13_18h07.54.085,2026A_exp2,2022.2.4,59.817806942974386,
1000,1,0.0,0.0,0,0,40,40,41,,,,,161.88624699995853,162.53696800000034,162.53696800000034,163.03809679998085,315,315,163.03809679998085,163.03809679998085,163.03809679998085,163.03809679998085,163.03809679998085,163.03809679998085,163.03809679998085,163.03809679998085,163.03809679998085,163.40427560009994,163.40427560009994,163.40427560009994,163.40427560009994,163.40427560009994,163.40427560009994,163.40427560009994,163.40427560009994,163.40427560009994,23,0,,,163.40427560009994,163.60640630009584,1000,163.60640630009584,1000,1000,1000,1000,0,num_3,0.47684550005942583,,37,8,2026-03-13_18h07.54.085,2026A_exp2,2022.2.4,59.817806942974386,
1000,1,3.7,4.9,0,0,41,41,13,,,,,164.10489100008272,164.75582120008767,164.75582120008767,165.25686209998094,45,45,165.25686209998094,165.25686209998094,165.25686209998094,165.25686209998094,165.25686209998094,165.25686209998094,165.25686209998094,165.25686209998094,165.25686209998094,165.62329380004667,165.62329380004667,165.62329380004667,165.62329380004667,165.62329380004667,165.62329380004667,165.62329380004667,165.62329380004667,165.62329380004667,23,0,,,165.62329380004667,165.82541560009122,1000,165.82541560009122,1000,1000,1000,1000,0,num_3,0.5372915999032557,,37,8,2026-03-13_18h07.54.085,2026A_exp2,2022.2.4,59.817806942974386,
1000,1,0.0,0.0,1,0,42,42,40,,,,,166.39078740007244,167.04145070002414,167.04145070002414,167.54250219999813,315,315,167.54250219999813,167.54250219999813,167.54250219999813,167.54250219999813,167.54250219999813,167.54250219999813,167.54250219999813,167.54250219999813,167.54250219999813,167.90891420003027,167.90891420003027,167.90891420003027,167.90891420003027,167.90891420003027,167.90891420003027,167.90891420003027,167.90891420003027,167.90891420003027,21,1,[0.0012024999596178532],[0.03367379982955754],167.90891420003027,168.11105399997905,1000,168.11105399997905,1000,1000,1000,1000,1,num_2,0.8035563000012189,,37,8,2026-03-13_18h07.54.085,2026A_exp2,2022.2.4,59.817806942974386,
1000,1,0.0,0.0,1,0,43,43,39,,,,,168.94344759988599,169.59393900004216,169.59393900004216,170.08600650005974,45,315,170.08600650005974,170.08600650005974,170.08600650005974,170.08600650005974,170.08600650005974,170.08600650005974,170.08600650005974,170.08600650005974,170.08600650005974,170.4448239998892,170.4448239998892,170.4448239998892,170.4448239998892,170.4448239998892,170.4448239998892,170.4448239998892,170.4448239998892,170.4448239998892,23,0,,,170.4448239998892,170.64690500008874,1000,170.64690500008874,1000,1000,1000,1000,0,num_3,0.41168859996832907,,37,8,2026-03-13_18h07.54.085,2026A_exp2,2022.2.4,59.817806942974386,
1000,1,3.7,0.0,1,0,44,44,33,,,,,171.078670399962,171.72954960004427,171.72954960004427,172.23049209988676,315,315,172.23049209988676,172.23049209988676,172.23049209988676,172.23049209988676,172.23049209988676,172.23049209988676,172.23049209988676,172.23049209988676,172.23049209988676,172.59707659995183,172.59707659995183,172.59707659995183,172.59707659995183,172.59707659995183,172.59707659995183,172.59707659995183,172.59707659995183,172.59707659995183,23,0,,,172.59707659995183,172.79882990010083,1000,172.79882990010083,1000,1000,1000,1000,0,num_3,0.3562823999673128,,37,8,2026-03-13_18h07.54.085,2026A_exp2,2022.2.4,59.817806942974386,
1,0,0.0,0.0,0,0,45,45,19,,,,,173.1809038000647,173.83160739997402,173.83160739997402,174.31599789997563,315,45,174.31599789997563,174.31599789997563,174.31599789997563,174.31599789997563,174.31599789997563,174.31599789997563,174.31599789997563,174.31599789997563,174.31599789997563,174.6823313999921,174.6823313999921,174.6823313999921,174.6823313999921,174.6823313999921,174.6823313999921,174.6823313999921,174.6823313999921,174.6823313999921,23,0,,,174.6823313999921,174.8826615998987,0.0,174.8826615998987,0,0.0,0,1,1000,num_1,1.3845625999383628,,37,8,2026-03-13_18h07.54.085,2026A_exp2,2022.2.4,59.817806942974386,
1,0,0.0,3.7,0,0,46,46,1,,,,,176.2838445000816,176.93467719992623,176.93467719992623,177.41906400001608,45,315,177.41906400001608,177.41906400001608,177.41906400001608,177.41906400001608,177.41906400001608,177.41906400001608,177.41906400001608,177.41906400001608,177.41906400001608,177.78555690008216,177.78555690008216,177.78555690008216,177.78555690008216,177.78555690008216,177.78555690008216,177.78555690008216,177.78555690008216,177.78555690008216,6,5,"[0.0012565001379698515, 0.10005730018019676, 0.23369819996878505, 0.28319890005514026, 0.3338191001676023]","[0.0835746000520885, 0.21694179996848106, 0.2668365000281483, 0.30042960005812347, 0.36715890001505613]",177.78555690008216,177.98578209988773,0.0,177.98578209988773,0,0.0,0,1,1000,num_1,0.800400499952957,,37,8,2026-03-13_18h07.54.085,2026A_exp2,2022.2.4,59.817806942974386,
1000,1,3.7,0.0,0,0,47,47,37,,,,,178.8030544000212,179.45387959992513,179.45387959992513,179.93799200002104,45,45,179.93799200002104,179.93799200002104,179.93799200002104,179.93799200002104,179.93799200002104,179.93799200002104,179.93799200002104,179.93799200002104,179.93799200002104,180.30469879996963,180.30469879996963,180.30469879996963,180.30469879996963,180.30469879996963,180.30469879996963,180.30469879996963,180.30469879996963,180.30469879996963,22,1,[0.06682830001227558],[0.08362180017866194],180.30469879996963,180.50677999993786,1000,180.50677999993786,1000,1000,1000,1000,0,num_3,0.5603412000928074,,37,8,2026-03-13_18h07.54.085,2026A_exp2,2022.2.4,59.817806942974386,
1000,1,6.1,6.1,0,0,48,48,74,,,,,181.08861700003035,181.74045750009827,181.74045750009827,182.24065000005066,315,45,182.24065000005066,182.24065000005066,182.24065000005066,182.24065000005066,182.24065000005066,182.24065000005066,182.24065000005066,182.24065000005066,182.24065000005066,182.60703569999896,182.60703569999896,182.60703569999896,182.60703569999896,182.60703569999896,182.60703569999896,182.60703569999896,182.60703569999896,182.60703569999896,17,3,"[0.13356780004687607, 0.2836852001491934, 0.31718650017865]","[0.15026949997991323, 0.30023990012705326, 0.36713839997537434]",182.60703569999896,182.80919390008785,1000,182.80919390008785,1000,1000,1000,1000,1,num_2,0.5691915000788867,,37,8,2026-03-13_18h07.54.085,2026A_exp2,2022.2.4,59.817806942974386,
1000,1,4.9,0.0,1,0,49,49,7,,,,,183.40769309992902,184.05860690004192,184.05860690004192,184.55948440008797,45,45,184.55948440008797,184.55948440008797,184.55948440008797,184.55948440008797,184.55948440008797,184.55948440008797,184.55948440008797,184.55948440008797,184.55948440008797,184.92592089995742,184.92592089995742,184.92592089995742,184.92592089995742,184.92592089995742,184.92592089995742,184.92592089995742,184.92592089995742,184.92592089995742,23,0,,,184.92592089995742,185.12789190001786,1000,185.12789190001786,1000,1000,1000,1000,0,num_3,0.4034108999185264,,37,8,2026-03-13_18h07.54.085,2026A_exp2,2022.2.4,59.817806942974386,
1000,1,4.9,4.9,1,0,50,50,26,,,,,185.55984409991652,186.20089199999347,186.20089199999347,186.69507639994845,315,45,186.69507639994845,186.69507639994845,186.69507639994845,186.69507639994845,186.69507639994845,186.69507639994845,186.69507639994845,186.69507639994845,186.69507639994845,187.06146709993482,187.06146709993482,187.06146709993482,187.06146709993482,187.06146709993482,187.06146709993482,187.06146709993482,187.06146709993482,187.06146709993482,23,0,,,187.06146709993482,187.26347479992546,1000,187.26347479992546,1000,1000,1000,1000,1,num_2,0.46684070001356304,,37,8,2026-03-13_18h07.54.085,2026A_exp2,2022.2.4,59.817806942974386,
1000,1,6.1,0.0,0,0,51,51,58,,,,,187.74536280008033,188.396113099996,188.396113099996,188.89727209997363,45,315,188.89727209997363,188.89727209997363,188.89727209997363,188.89727209997363,188.89727209997363,188.89727209997363,188.89727209997363,188.89727209997363,188.89727209997363,189.26326850010082,189.26326850010082,189.26326850010082,189.26326850010082,189.26326850010082,189.26326850010082,189.26326850010082,189.26326850010082,189.26326850010082,23,0,,,189.26326850010082,189.4657813999802,1000,189.4657813999802,1000,1000,1000,1000,0,num_3,0.6565513999667019,,37,8,2026-03-13_18h07.54.085,2026A_exp2,2022.2.4,59.817806942974386,
1000,1,0.0,0.0,1,0,52,52,42,,,,,190.14778889995068,190.79859540006146,190.79859540006146,191.29968559998088,45,315,191.29968559998088,191.29968559998088,191.29968559998088,191.29968559998088,191.29968559998088,191.29968559998088,191.29968559998088,191.29968559998088,191.29968559998088,191.66569900000468,191.66569900000468,191.66569900000468,191.66569900000468,191.66569900000468,191.66569900000468,191.66569900000468,191.66569900000468,191.66569900000468,19,2,"[0.21705559990368783, 0.2503366998862475]","[0.23372589983046055, 0.30039709992706776]",191.66569900000468,191.86796669987962,1000,191.86796669987962,1000,1000,1000,1000,0,num_3,0.8468985001090914,,37,8,2026-03-13_18h07.54.085,2026A_exp2,2022.2.4,59.817806942974386,
1000,1,3.7,3.7,1,0,53,53,46,,,,,192.7343146998901,193.38447729987092,193.38447729987092,193.88543540006503,315,315,193.88543540006503,193.88543540006503,193.88543540006503,193.88543540006503,193.88543540006503,193.88543540006503,193.88543540006503,193.88543540006503,193.88543540006503,194.2520101000555,194.2520101000555,194.2520101000555,194.2520101000555,194.2520101000555,194.2520101000555,194.2520101000555,194.2520101000555,194.2520101000555,16,2,"[0.01715270010754466, 0.09968950017355382]","[0.06675909995101392, 0.1669431000482291]",194.2520101000555,194.45405240007676,1000,194.45405240007676,1000,1000,1000,1000,0,num_3,0.6533665999304503,,37,8,2026-03-13_18h07.54.085,2026A_exp2,2022.2.4,59.817806942974386,
1,0,6.1,3.7,0,0,54,54,86,,,,,195.13606219994836,195.78692430001684,195.78692430001684,196.2879200000316,45,45,196.2879200000316,196.2879200000316,196.2879200000316,196.2879200000316,196.2879200000316,196.2879200000316,196.2879200000316,196.2879200000316,196.2879200000316,196.65431390004233,196.65431390004233,196.65431390004233,196.65431390004233,196.65431390004233,196.65431390004233,196.65431390004233,196.65431390004233,196.65431390004233,23,0,,,196.65431390004233,196.8546164999716,6.1,196.8546164999716,1,6.1,1,1,1000,num_4,0.7717170999385417,,37,8,2026-03-13_18h07.54.085,2026A_exp2,2022.2.4,59.817806942974386,
1,0,4.9,0.0,1,0,55,55,48,,,,,197.6554062999785,198.30604010005482,198.30604010005482,198.79034649999812,315,315,198.79034649999812,198.79034649999812,198.79034649999812,198.79034649999812,198.79034649999812,198.79034649999812,198.79034649999812,198.79034649999812,198.79034649999812,199.156886999961,199.156886999961,199.156886999961,199.156886999961,199.156886999961,199.156886999961,199.156886999961,199.156886999961,199.156886999961,23,0,,,199.156886999961,199.36729520000517,0.0,199.36729520000517,0,0.0,0,1,1000,num_1,0.6674436000175774,,37,8,2026-03-13_18h07.54.085,2026A_exp2,2022.2.4,59.817806942974386,
1,0,0.0,0.0,1,0,56,56,82,,,,,200.0578640999738,200.69167299987748,200.69167299987748,201.192819399992,315,315,201.192819399992,201.192819399992,201.192819399992,201.192819399992,201.192819399992,201.192819399992,201.192819399992,201.192819399992,201.192819399992,201.5592042999342,201.5592042999342,201.5592042999342,201.5592042999342,201.5592042999342,201.5592042999342,201.5592042999342,201.5592042999342,201.5592042999342,22,1,[0.15036690002307296],[0.16704259999096394],201.5592042999342,201.75947719998658,0.0,201.75947719998658,0,0.0,0,1,1000,num_1,0.6829997000750154,,37,8,2026-03-13_18h07.54.085,2026A_exp2,2022.2.4,59.817806942974386,
1,0,6.1,0.0,1,0,57,57,54,,,,,202.46010620007291,203.11090860003605,203.11090860003605,203.61195209994912,45,315,203.61195209994912,203.61195209994912,203.61195209994912,203.61195209994912,203.61195209994912,203.61195209994912,203.61195209994912,203.61195209994912,203.61195209994912,203.97840510006063,203.97840510006063,203.97840510006063,203.97840510006063,203.97840510006063,203.97840510006063,203.97840510006063,203.97840510006063,203.97840510006063,3,3,"[0.0011944000143557787, 0.11686219996772707, 0.30051630013622344]","[0.10019050003029406, 0.28363470011390746, 0.36713579995557666]",203.97840510006063,204.17869259999134,0.0,204.17869259999134,0,0.0,0,1,1000,num_1,0.872510900022462,,37,8,2026-03-13_18h07.54.085,2026A_exp2,2022.2.4,59.817806942974386,
1,0,0.0,3.7,1,0,58,58,25,,,,,205.07931559998542,205.7299812999554,205.7299812999554,206.21415879996493,45,45,206.21415879996493,206.21415879996493,206.21415879996493,206.21415879996493,206.21415879996493,206.21415879996493,206.21415879996493,206.21415879996493,206.21415879996493,206.58098229998723,206.58098229998723,206.58098229998723,206.58098229998723,206.58098229998723,206.58098229998723,206.58098229998723,206.58098229998723,206.58098229998723,23,0,,,206.58098229998723,206.78123229998164,3.7,206.78123229998164,1,3.7,1,1,1000,num_4,0.5095788000617176,,37,8,2026-03-13_18h07.54.085,2026A_exp2,2022.2.4,59.817806942974386,
0,0,0.0,0.0,0,0,59,59,67,,,,,207.31487790006213,207.94902270007879,207.94902270007879,208.45860880007967,45,315,208.45860880007967,208.45860880007967,208.45860880007967,208.45860880007967,208.45860880007967,208.45860880007967,208.45860880007967,208.45860880007967,208.45860880007967,208.81662510009483,208.81662510009483,208.81662510009483,208.81662510009483,208.81662510009483,208.81662510009483,208.81662510009483,208.81662510009483,208.81662510009483,23,0,,,208.81662510009483,209.01644859998487,0.0,209.01644859998487,0,0.0,0,1,1000,num_1,1.4105552001856267,,37,8,2026-03-13_18h07.54.085,2026A_exp2,2022.2.4,59.817806942974386,
0,0,0.0,0.0,0,0,60,60,4,,,,,210.45134559995495,211.1021811000537,211.1021811000537,211.58657909999602,315,45,211.58657909999602,211.58657909999602,211.58657909999602,211.58657909999602,211.58657909999602,211.58657909999602,211.58657909999602,211.58657909999602,211.58657909999602,211.95290929987095,211.95290929987095,211.95290929987095,211.95290929987095,211.95290929987095,211.95290929987095,211.95290929987095,211.95290929987095,211.95290929987095,23,0,,,211.95290929987095,212.1533536000643,0.0,212.1533536000643,0,0.0,0,1,1000,num_1,0.8738565999083221,,37,8,2026-03-13_18h07.54.085,2026A_exp2,2022.2.4,59.817806942974386,
1000,1,4.9,4.9,1,0,61,61,85,,,,,213.05568480002694,213.71060410002246,213.71060410002246,214.21056809998117,45,45,214.21056809998117,214.21056809998117,214.21056809998117,214.21056809998117,214.21056809998117,214.21056809998117,214.21056809998117,214.21056809998117,214.21056809998117,214.57233819994144,214.57233819994144,214.57233819994144,214.57233819994144,214.57233819994144,214.57233819994144,214.57233819994144,214.57233819994144,214.57233819994144,23,0,,,214.57233819994144,214.77409840002656,1000,214.77409840002656,1000,1000,1000,1000,0,num_3,0.6210010000504553,,37,8,2026-03-13_18h07.54.085,2026A_exp2,2022.2.4,59.817806942974386,
1,0,6.1,0.0,0,0,62,62,24,,,,,215.42302310001105,216.07378129987046,216.07378129987046,216.57491949992254,45,315,216.57491949992254,216.57491949992254,216.57491949992254,216.57491949992254,216.57491949992254,216.57491949992254,216.57491949992254,216.57491949992254,216.57491949992254,216.94111920008436,216.94111920008436,216.94111920008436,216.94111920008436,216.94111920008436,216.94111920008436,216.94111920008436,216.94111920008436,216.94111920008436,23,0,,,216.94111920008436,217.14141110004857,6.1,217.14141110004857,1,6.1,1,1,1000,num_4,0.6459513998124748,,37,8,2026-03-13_18h07.54.085,2026A_exp2,2022.2.4,59.817806942974386,
1,0,6.1,6.1,0,0,63,63,51,,,,,217.80862909997813,218.459629900055,218.459629900055,218.94395029987209,45,45,218.94395029987209,218.94395029987209,218.94395029987209,218.94395029987209,218.94395029987209,218.94395029987209,218.94395029987209,218.94395029987209,218.94395029987209,219.3103606000077,219.3103606000077,219.3103606000077,219.3103606000077,219.3103606000077,219.3103606000077,219.3103606000077,219.3103606000077,219.3103606000077,5,2,"[0.0011953001376241446, 0.2669048001989722]","[0.18322280002757907, 0.36724040005356073]",219.3103606000077,219.5106267000083,6.1,219.5106267000083,1,6.1,1,1,1000,num_4,1.0768053999636322,,37,8,2026-03-13_18h07.54.085,2026A_exp2,2022.2.4,59.817806942974386,
1000,1,6.1,0.0,0,0,64,64,80,,,,,220.6116289999336,221.2456022000406,221.2456022000406,221.74674269999377,315,45,221.74674269999377,221.74674269999377,221.74674269999377,221.74674269999377,221.74674269999377,221.74674269999377,221.74674269999377,221.74674269999377,221.74674269999377,222.11313099996187,222.11313099996187,222.11313099996187,222.11313099996187,222.11313099996187,222.11313099996187,222.11313099996187,222.11313099996187,222.11313099996187,23,0,,,222.11313099996187,222.31505269999616,1000,222.31505269999616,1000,1000,1000,1000,0,num_3,0.6397815998643637,,37,8,2026-03-13_18h07.54.085,2026A_exp2,2022.2.4,59.817806942974386,
1,0,0.0,3.7,1,0,65,65,12,,,,,222.98058239999227,223.6312229000032,223.6312229000032,224.13248070003465,315,315,224.13248070003465,224.13248070003465,224.13248070003465,224.13248070003465,224.13248070003465,224.13248070003465,224.13248070003465,224.13248070003465,224.13248070003465,224.4989135998767,224.4989135998767,224.4989135998767,224.4989135998767,224.4989135998767,224.4989135998767,224.4989135998767,224.4989135998767,224.4989135998767,19,4,"[0.10038940003141761, 0.15033060009591281, 0.2836441001854837, 0.36710200016386807]","[0.11689720000140369, 0.1670057000592351, 0.3002715001348406, 0.36710630008019507]",224.4989135998767,224.69903929997236,3.7,224.69903929997236,1,3.7,1,1,1000,num_4,0.6725053999107331,,37,8,2026-03-13_18h07.54.085,2026A_exp2,2022.2.4,59.817806942974386,
1,0,3.7,6.1,1,0,66,66,6,,,,,225.39972939994186,226.0504675998818,226.0504675998818,226.53481530002318,45,45,226.53481530002318,226.53481530002318,226.53481530002318,226.53481530002318,226.53481530002318,226.53481530002318,226.53481530002318,226.53481530002318,226.53481530002318,226.90129559999332,226.90129559999332,226.90129559999332,226.90129559999332,226.90129559999332,226.90129559999332,226.90129559999332,226.90129559999332,226.90129559999332,0,1,[0.0012739000376313925],[0.36711949994787574],226.90129559999332,227.1014004999306,6.1,227.1014004999306,1,6.1,1,1,1000,num_4,0.621826299931854,,37,8,2026-03-13_18h07.54.085,2026A_exp2,2022.2.4,59.817806942974386,
1000,1,6.1,6.1,0,0,67,67,50,,,,,227.75210650009103,228.40284190000966,228.40284190000966,228.9037868999876,315,315,228.9037868999876,228.9037868999876,228.9037868999876,228.9037868999876,228.9037868999876,228.9037868999876,228.9037868999876,228.9037868999876,228.9037868999876,229.25357190007344,229.25357190007344,229.25357190007344,229.25357190007344,229.25357190007344,229.25357190007344,229.25357190007344,229.25357190007344,229.25357190007344,22,0,,,229.25357190007344,229.45637960010208,1000,229.45637960010208,1000,1000,1000,1000,1,num_2,0.9219291000626981,,37,8,2026-03-13_18h07.54.085,2026A_exp2,2022.2.4,59.817806942974386,
1,0,3.7,4.9,0,0,68,68,84,,,,,230.40461129997857,231.055173400091,231.055173400091,231.5564629000146,45,45,231.5564629000146,231.5564629000146,231.5564629000146,231.5564629000146,231.5564629000146,231.5564629000146,231.5564629000146,231.5564629000146,231.5564629000146,231.92288319999352,231.92288319999352,231.92288319999352,231.92288319999352,231.92288319999352,231.92288319999352,231.92288319999352,231.92288319999352,231.92288319999352,16,5,"[0.0012044000905007124, 0.11692240019328892, 0.21700150007382035, 0.25033690012060106, 0.3004650000948459]","[0.01717770006507635, 0.1503295002039522, 0.23375430004671216, 0.26690980000421405, 0.33373690000735223]",231.92288319999352,232.12325669988059,3.7,232.12325669988059,1,3.7,1,1,1000,num_4,1.119672100059688,,37,8,2026-03-13_18h07.54.085,2026A_exp2,2022.2.4,59.817806942974386,
1000,1,6.1,4.9,0,0,69,69,77,,,,,233.27418439998291,233.92505520000122,233.92505520000122,234.40924669988453,45,315,234.40924669988453,234.40924669988453,234.40924669988453,234.40924669988453,234.40924669988453,234.40924669988453,234.40924669988453,234.40924669988453,234.40924669988453,234.77579750004224,234.77579750004224,234.77579750004224,234.77579750004224,234.77579750004224,234.77579750004224,234.77579750004224,234.77579750004224,234.77579750004224,23,0,,,234.77579750004224,234.9777510999702,1000,234.9777510999702,1000,1000,1000,1000,0,num_3,0.7212537999730557,,37,8,2026-03-13_18h07.54.085,2026A_exp2,2022.2.4,59.817806942974386,
1000,1,3.7,0.0,1,0,70,70,21,,,,,235.72673049988225,236.3774574000854,236.3774574000854,236.87849740008824,45,315,236.87849740008824,236.87849740008824,236.87849740008824,236.87849740008824,236.87849740008824,236.87849740008824,236.87849740008824,236.87849740008824,236.87849740008824,237.24481719988398,237.24481719988398,237.24481719988398,237.24481719988398,237.24481719988398,237.24481719988398,237.24481719988398,237.24481719988398,237.24481719988398,23,0,,,237.24481719988398,237.46095480001532,1000,237.46095480001532,1000,1000,1000,1000,0,num_3,0.7182682999409735,,37,8,2026-03-13_18h07.54.085,2026A_exp2,2022.2.4,59.817806942974386,
1,0,6.1,6.1,0,0,71,71,11,,,,,238.195779300062,238.84660540008917,238.84660540008917,239.35668560001068,45,315,239.35668560001068,239.35668560001068,239.35668560001068,239.35668560001068,239.35668560001068,239.35668560001068,239.35668560001068,239.35668560001068,239.35668560001068,239.71413800003938,239.71413800003938,239.71413800003938,239.71413800003938,239.71413800003938,239.71413800003938,239.71413800003938,239.71413800003938,239.71413800003938,19,4,"[0.0036720000207424164, 0.03337620012462139, 0.11532009998336434, 0.23172860010527074]","[0.024314500158652663, 0.04833559994585812, 0.13188969995826483, 0.24836189998313785]",239.71413800003938,239.91433229995891,6.1,239.91433229995891,1,6.1,1,1,1000,num_4,1.1443967998493463,,37,8,2026-03-13_18h07.54.085,2026A_exp2,2022.2.4,59.817806942974386,
0,0,3.7,6.1,1,0,72,72,17,,,,,241.08199690002948,241.73270169994794,241.73270169994794,242.2171525999438,315,45,242.2171525999438,242.2171525999438,242.2171525999438,242.2171525999438,242.2171525999438,242.2171525999438,242.2171525999438,242.2171525999438,242.2171525999438,242.5835708999075,242.5835708999075,242.5835708999075,242.5835708999075,242.5835708999075,242.5835708999075,242.5835708999075,242.5835708999075,242.5835708999075,23,0,,,242.5835708999075,242.78380579990335,3.7,242.78380579990335,0,3.7,1,0,1000,num_1,0.9703635999467224,,37,8,2026-03-13_18h07.54.085,2026A_exp2,2022.2.4,59.817806942974386,
1,0,3.7,6.1,0,0,73,73,55,,,,,243.7849550000392,244.43540320009924,244.43540320009924,244.91979989991523,315,315,244.91979989991523,244.91979989991523,244.91979989991523,244.91979989991523,244.91979989991523,244.91979989991523,244.91979989991523,244.91979989991523,244.91979989991523,245.2864477999974,245.2864477999974,245.2864477999974,245.2864477999974,245.2864477999974,245.2864477999974,245.2864477999974,245.2864477999974,245.2864477999974,1,2,"[0.001262800069525838, 0.3337695000227541]","[0.3169675001408905, 0.36702010012231767]",245.2864477999974,245.48627500003204,3.7,245.48627500003204,0,3.7,1,0,1000,num_1,0.5562122999690473,,37,8,2026-03-13_18h07.54.085,2026A_exp2,2022.2.4,59.817806942974386,
1,0,0.0,3.7,0,0,74,74,2,,,,,246.0719858999364,246.7211223000195,246.7211223000195,247.22222639992833,315,315,247.22222639992833,247.22222639992833,247.22222639992833,247.22222639992833,247.22222639992833,247.22222639992833,247.22222639992833,247.22222639992833,247.22222639992833,247.5886874999851,247.5886874999851,247.5886874999851,247.5886874999851,247.5886874999851,247.5886874999851,247.5886874999851,247.5886874999851,247.5886874999851,23,0,,,247.5886874999851,247.78880780003965,0.0,247.78880780003965,0,0.0,0,1,1000,num_1,0.6459091999568045,,37,8,2026-03-13_18h07.54.085,2026A_exp2,2022.2.4,59.817806942974386,
1,0,0.0,4.9,1,0,75,75,36,,,,,248.45600629993714,249.08987329993397,249.08987329993397,249.59127940004691,315,315,249.59127940004691,249.59127940004691,249.59127940004691,249.59127940004691,249.59127940004691,249.59127940004691,249.59127940004691,249.59127940004691,249.59127940004691,249.95769629999995,249.95769629999995,249.95769629999995,249.95769629999995,249.95769629999995,249.95769629999995,249.95769629999995,249.95769629999995,249.95769629999995,23,0,,,249.95769629999995,250.157826700015,4.9,250.157826700015,1,4.9,1,1,1000,num_4,0.8686466000508517,,37,8,2026-03-13_18h07.54.085,2026A_exp2,2022.2.4,59.817806942974386,
1000,1,0.0,0.0,0,0,76,76,5,,,,,251.05862680007704,251.692742299987,251.692742299987,252.19389149989001,45,45,252.19389149989001,252.19389149989001,252.19389149989001,252.19389149989001,252.19389149989001,252.19389149989001,252.19389149989001,252.19389149989001,252.19389149989001,252.56023450009525,252.56023450009525,252.56023450009525,252.56023450009525,252.56023450009525,252.56023450009525,252.56023450009525,252.56023450009525,252.56023450009525,23,0,,,252.56023450009525,252.76212239987217,1000,252.76212239987217,1000,1000,1000,1000,0,num_3,0.8646015000995249,,37,8,2026-03-13_18h07.54.085,2026A_exp2,2022.2.4,59.817806942974386,
1000,1,0.0,0.0,0,0,77,77,47,,,,,253.64455819991417,254.3025843000505,254.3025843000505,254.80499550001696,45,315,254.80499550001696,254.80499550001696,254.80499550001696,254.80499550001696,254.80499550001696,254.80499550001696,254.80499550001696,254.80499550001696,254.80499550001696,255.16295449994504,255.16295449994504,255.16295449994504,255.16295449994504,255.16295449994504,255.16295449994504,255.16295449994504,255.16295449994504,255.16295449994504,23,0,,,255.16295449994504,255.3649573000148,1000,255.3649573000148,1000,1000,1000,1000,0,num_3,0.7263871999457479,,37,8,2026-03-13_18h07.54.085,2026A_exp2,2022.2.4,59.817806942974386,
0,0,0.0,0.0,0,0,78,78,69,,,,,256.11375949997455,256.7644084999338,256.7644084999338,257.2656064000912,45,315,257.2656064000912,257.2656064000912,257.2656064000912,257.2656064000912,257.2656064000912,257.2656064000912,257.2656064000912,257.2656064000912,257.2656064000912,257.6319875998888,257.6319875998888,257.6319875998888,257.6319875998888,257.6319875998888,257.6319875998888,257.6319875998888,257.6319875998888,257.6319875998888,22,1,[0.0011974999215453863],[0.017428999999538064],257.6319875998888,257.83228329988196,0.0,257.83228329988196,1,0.0,0,0,1000,num_4,0.7950966998469085,,37,8,2026-03-13_18h07.54.085,2026A_exp2,2022.2.4,59.817806942974386,
1,0,0.0,4.9,0,0,79,79,35,,,,,258.65079719992355,259.3003183999099,259.3003183999099,259.8013365000952,45,315,259.8013365000952,259.8013365000952,259.8013365000952,259.8013365000952,259.8013365000952,259.8013365000952,259.8013365000952,259.8013365000952,259.8013365000952,260.1678333999589,260.1678333999589,260.1678333999589,260.1678333999589,260.1678333999589,260.1678333999589,260.1678333999589,260.1678333999589,260.1678333999589,23,0,,,260.1678333999589,260.3680819000583,0.0,260.3680819000583,0,0.0,0,1,1000,num_1,0.7466924998443574,,37,8,2026-03-13_18h07.54.085,2026A_exp2,2022.2.4,59.817806942974386,
1000,1,4.9,4.9,0,0,80,80,34,,,,,261.1353529000189,261.7862100000493,261.7862100000493,262.2706237998791,45,45,262.2706237998791,262.2706237998791,262.2706237998791,262.2706237998791,262.2706237998791,262.2706237998791,262.2706237998791,262.2706237998791,262.2706237998791,262.6370031000115,262.6370031000115,262.6370031000115,262.6370031000115,262.6370031000115,262.6370031000115,262.6370031000115,262.6370031000115,262.6370031000115,23,0,,,262.6370031000115,262.83885319996625,1000,262.83885319996625,1000,1000,1000,1000,0,num_3,0.9797171999234706,,37,8,2026-03-13_18h07.54.085,2026A_exp2,2022.2.4,59.817806942974386,
1000,1,0.0,4.9,0,0,81,81,27,,,,,263.83812429988757,264.4888124000281,264.4888124000281,264.9899265000131,45,45,264.9899265000131,264.9899265000131,264.9899265000131,264.9899265000131,264.9899265000131,264.9899265000131,264.9899265000131,264.9899265000131,264.9899265000131,265.35642819991335,265.35642819991335,265.35642819991335,265.35642819991335,265.35642819991335,265.35642819991335,265.35642819991335,265.35642819991335,265.35642819991335,23,0,,,265.35642819991335,265.55829759989865,1000,265.55829759989865,1000,1000,1000,1000,1,num_2,0.4599961000494659,,37,8,2026-03-13_18h07.54.085,2026A_exp2,2022.2.4,59.817806942974386,
1000,1,0.0,0.0,1,0,82,82,70,,,,,266.04023359995335,266.69125530007295,266.69125530007295,267.1923491000198,45,315,267.1923491000198,267.1923491000198,267.1923491000198,267.1923491000198,267.1923491000198,267.1923491000198,267.1923491000198,267.1923491000198,267.1923491000198,267.5421207998879,267.5421207998879,267.5421207998879,267.5421207998879,267.5421207998879,267.5421207998879,267.5421207998879,267.5421207998879,267.5421207998879,22,0,,,267.5421207998879,267.7436935000587,1000,267.75871119997464,1000,1000,1000,1000,1,num_2,0.48401369992643595,,37,8,2026-03-13_18h07.54.085,2026A_exp2,2022.2.4,59.817806942974386,
1000,1,0.0,4.9,1,0,83,83,73,,,,,268.25920529989526,268.909909900045,268.909909900045,269.41112599987537,45,315,269.41112599987537,269.41112599987537,269.41112599987537,269.41112599987537,269.41112599987537,269.41112599987537,269.41112599987537,269.41112599987537,269.41112599987537,269.7775415000506,269.7775415000506,269.7775415000506,269.7775415000506,269.7775415000506,269.7775415000506,269.7775415000506,269.7775415000506,269.7775415000506,23,0,,,269.7775415000506,269.97932090004906,1000,269.97932090004906,1000,1000,1000,1000,1,num_2,0.5516918001230806,,37,8,2026-03-13_18h07.54.085,2026A_exp2,2022.2.4,59.817806942974386,
1000,1,0.0,4.9,0,0,84,84,9,,,,,270.56158549990505,271.195593399927,271.195593399927,271.69666470005177,45,45,271.69666470005177,271.69666470005177,271.69666470005177,271.69666470005177,271.69666470005177,271.69666470005177,271.69666470005177,271.69666470005177,271.69666470005177,272.06304239993915,272.06304239993915,272.06304239993915,272.06304239993915,272.06304239993915,272.06304239993915,272.06304239993915,272.06304239993915,272.06304239993915,23,0,,,272.06304239993915,272.2648004000075,1000,272.2648004000075,1000,1000,1000,1000,1,num_2,0.5140286001842469,,37,8,2026-03-13_18h07.54.085,2026A_exp2,2022.2.4,59.817806942974386,
1000,1,6.1,0.0,1,0,85,85,52,,,,,272.7970247999765,273.4478251999244,273.4478251999244,273.94907169998623,315,315,273.94907169998623,273.94907169998623,273.94907169998623,273.94907169998623,273.94907169998623,273.94907169998623,273.94907169998623,273.94907169998623,273.94907169998623,274.315192299895,274.315192299895,274.315192299895,274.315192299895,274.315192299895,274.315192299895,274.315192299895,274.315192299895,274.315192299895,23,0,,,274.315192299895,274.5175511999987,1000,274.5175511999987,1000,1000,1000,1000,0,num_3,0.4206409000325948,,37,8,2026-03-13_18h07.54.085,2026A_exp2,2022.2.4,59.817806942974386,
1,0,4.9,0.0,1,0,86,86,15,,,,,274.96596079994924,275.6166189000942,275.6166189000942,276.1177226,45,315,276.1177226,276.1177226,276.1177226,276.1177226,276.1177226,276.1177226,276.1177226,276.1177226,276.1177226,276.4842560000252,276.4842560000252,276.4842560000252,276.4842560000252,276.4842560000252,276.4842560000252,276.4842560000252,276.4842560000252,276.4842560000252,23,0,,,276.4842560000252,276.6842771999072,0.0,276.6842771999072,0,0.0,0,1,1000,num_1,1.3347891001030803,,37,8,2026-03-13_18h07.54.085,2026A_exp2,2022.2.4,59.817806942974386,
1000,1,3.7,3.7,1,0,87,87,88,,,,,278.0356073998846,278.6862586000934,278.6862586000934,279.18754670000635,315,45,279.18754670000635,279.18754670000635,279.18754670000635,279.18754670000635,279.18754670000635,279.18754670000635,279.18754670000635,279.18754670000635,279.18754670000635,279.5540185000282,279.5540185000282,279.5540185000282,279.5540185000282,279.5540185000282,279.5540185000282,279.5540185000282,279.5540185000282,279.5540185000282,21,2,"[0.14976219995878637, 0.18340449989773333]","[0.166296900017187, 0.20031580002978444]",279.5540185000282,279.75573040009476,1000,279.75573040009476,1000,1000,1000,1000,1,num_2,0.679618300171569,,37,8,2026-03-13_18h07.54.085,2026A_exp2,2022.2.4,59.817806942974386,
1000,1,0.0,6.1,0,0,88,88,83,,,,,280.4546982999891,281.105571199907,281.105571199907,281.60662949993275,45,315,281.60662949993275,281.60662949993275,281.60662949993275,281.60662949993275,281.60662949993275,281.60662949993275,281.60662949993275,281.60662949993275,281.60662949993275,281.9730710000731,281.9730710000731,281.9730710000731,281.9730710000731,281.9730710000731,281.9730710000731,281.9730710000731,281.9730710000731,281.9730710000731,21,1,[0.0014295000582933426],[0.0331264000851661],281.9730710000731,282.1748820000794,1000,282.1748820000794,1000,1000,1000,1000,1,num_2,0.5081118999514729,,37,8,2026-03-13_18h07.54.085,2026A_exp2,2022.2.4,59.817806942974386,
1,0,4.9,0.0,0,0,89,89,23,,,,,282.70757419988513,283.35796920000575,283.35796920000575,283.85878010001034,45,45,283.85878010001034,283.85878010001034,283.85878010001034,283.85878010001034,283.85878010001034,283.85878010001034,283.85878010001034,283.85878010001034,283.85878010001034,284.22520249988884,284.22520249988884,284.22520249988884,284.22520249988884,284.22520249988884,284.22520249988884,284.22520249988884,284.22520249988884,284.22520249988884,23,0,,,284.22520249988884,284.42549699987285,4.9,284.42549699987285,1,4.9,1,1,1000,num_4,1.0101910000666976,,37,8,2026-03-13_18h07.54.085,2026A_exp2,2022.2.4,59.817806942974386,
,,,,,,,,,,,,,,,,,,,,,,,,,,,,,,,,,,,,,,,,,,,,,,,,,,,,285.49513399996795,,,,,,,
