validity,detectorcomp,contrastCW,contrastCCW,precueCWorCCW,block_80trials.thisRepN,block_80trials.thisTrialN,block_80trials.thisN,block_80trials.thisIndex,etRecord.started,etRecord.stopped,text.started,text.stopped,text_4.started,text_4.stopped,text_6.started,text_6.stopped,oriCW,oriCCW,roi_2.started,grating_UR.started,grating_UL.started,grating_LR.started,grating_LL.started,noise_UR.started,noise_UL.started,noise_LR.started,noise_LL.started,roi_2.stopped,grating_UR.stopped,grating_UL.stopped,grating_LR.stopped,grating_LL.stopped,noise_UR.stopped,noise_UL.stopped,noise_LR.stopped,noise_LL.stopped,outframe,roi_2.numLooks,roi_2.timesOn,roi_2.timesOff,text_2.started,text_2.stopped,probedcontrast,key_resp.started,respdetect,relevantContrast,correctDetect,TorFdetect,respCWorCCW,key_resp.keys,key_resp.rt,feedback_display_.started,participantNo,blockNo,date,expName,psychopyVersion,frameRate,
1000,1,0.0,4.9,0,0,0,0,50,3.3499905839562416e-05,3.3499905839562416e-05,50.78982160007581,52.79484390001744,52.79484390001744,53.42744069988839,53.42744069988839,53.9534642000217,315,315,53.9534642000217,53.9534642000217,53.9534642000217,53.9534642000217,53.9534642000217,53.9534642000217,53.9534642000217,53.9534642000217,53.9534642000217,54.294833600055426,54.294833600055426,54.294833600055426,54.294833600055426,54.294833600055426,54.294833600055426,54.294833600055426,54.294833600055426,54.294833600055426,8,3,"[0.0013125999830663204, 0.23378569982014596, 0.28356279991567135]","[0.1338248997926712, 0.2503183998633176, 0.3669409998692572]",54.294833600055426,54.50212670001201,1000,54.50212670001201,1000,1000,1000,1000,0,num_3,0.5257623000070453,,35,14,2026-03-13_14h33.45.006,2026A_exp2,2022.2.4,59.928972171566855,
1,0,3.7,0.0,1,0,1,1,55,,,,,55.04574090009555,55.6964161999058,55.6964161999058,56.19742770004086,45,315,56.19742770004086,56.19742770004086,56.19742770004086,56.19742770004086,56.19742770004086,56.19742770004086,56.19742770004086,56.19742770004086,56.19742770004086,56.54745600000024,56.54745600000024,56.54745600000024,56.54745600000024,56.54745600000024,56.54745600000024,56.54745600000024,56.54745600000024,56.54745600000024,11,4,"[0.04990270012058318, 0.13298709993250668, 0.19974500010721385, 0.2864276000764221]","[0.06668479996733367, 0.16658179997466505, 0.25034520006738603, 0.3518316999543458]",56.54745600000024,56.75131239998154,0.0,56.75131239998154,0,0.0,0,1,1000,num_1,0.5320917998906225,,35,14,2026-03-13_14h33.45.006,2026A_exp2,2022.2.4,59.928972171566855,
1,0,6.1,3.7,0,0,2,2,79,,,,,57.314793300116435,57.96522990008816,57.96522990008816,58.466516399988905,45,45,58.466516399988905,58.466516399988905,58.466516399988905,58.466516399988905,58.466516399988905,58.466516399988905,58.466516399988905,58.466516399988905,58.466516399988905,58.81617509992793,58.81617509992793,58.81617509992793,58.81617509992793,58.81617509992793,58.81617509992793,58.81617509992793,58.81617509992793,58.81617509992793,3,3,"[0.0012074001133441925, 0.2171618000138551, 0.28375710011459887]","[0.20037190010771155, 0.2504372999537736, 0.35055249999277294]",58.81617509992793,59.01634959992953,6.1,59.01634959992953,1,6.1,1,1,1000,num_4,0.8033753000199795,,35,14,2026-03-13_14h33.45.006,2026A_exp2,2022.2.4,59.928972171566855,
1000,1,4.9,6.1,0,0,3,3,49,,,,,59.85059710009955,60.50124179990962,60.50124179990962,60.985584900015965,45,315,60.985584900015965,60.985584900015965,60.985584900015965,60.985584900015965,60.985584900015965,60.985584900015965,60.985584900015965,60.985584900015965,60.985584900015965,61.352064799983054,61.352064799983054,61.352064799983054,61.352064799983054,61.352064799983054,61.352064799983054,61.352064799983054,61.352064799983054,61.352064799983054,0,1,[0.0012485000770539045],[0.3671669999603182],61.352064799983054,61.55414490005933,1000,61.55414490005933,1000,1000,1000,1000,0,num_3,0.44941859995014966,,35,14,2026-03-13_14h33.45.006,2026A_exp2,2022.2.4,59.928972171566855,
1,0,6.1,0.0,1,0,4,4,29,,,,,62.01950059994124,62.67008320009336,62.67008320009336,63.17113639996387,45,45,63.17113639996387,63.17113639996387,63.17113639996387,63.17113639996387,63.17113639996387,63.17113639996387,63.17113639996387,63.17113639996387,63.17113639996387,63.52096199989319,63.52096199989319,63.52096199989319,63.52096199989319,63.52096199989319,63.52096199989319,63.52096199989319,63.52096199989319,63.52096199989319,1,1,[0.0013399000745266676],[0.35060660005547106],63.52096199989319,63.72116640000604,0.0,63.72116640000604,0,0.0,0,1,1000,num_1,0.5387530999723822,,35,14,2026-03-13_14h33.45.006,2026A_exp2,2022.2.4,59.928972171566855,
1000,1,3.7,0.0,0,0,5,5,28,,,,,64.28805519989692,64.92234860011376,64.92234860011376,65.42354330001399,315,315,65.42354330001399,65.42354330001399,65.42354330001399,65.42354330001399,65.42354330001399,65.42354330001399,65.42354330001399,65.42354330001399,65.42354330001399,65.78968139993958,65.78968139993958,65.78968139993958,65.78968139993958,65.78968139993958,65.78968139993958,65.78968139993958,65.78968139993958,65.78968139993958,0,1,[0.001238000113517046],[0.36723570013418794],65.78968139993958,65.99226580001414,1000,65.99226580001414,1000,1000,1000,1000,0,num_3,0.3634864999912679,,35,14,2026-03-13_14h33.45.006,2026A_exp2,2022.2.4,59.928972171566855,
1000,1,0.0,0.0,1,0,6,6,27,,,,,66.3735827000346,67.02447700011544,67.02447700011544,67.52543450007215,45,45,67.52543450007215,67.52543450007215,67.52543450007215,67.52543450007215,67.52543450007215,67.52543450007215,67.52543450007215,67.52543450007215,67.52543450007215,67.89188860007562,67.89188860007562,67.89188860007562,67.89188860007562,67.89188860007562,67.89188860007562,67.89188860007562,67.89188860007562,67.89188860007562,10,3,"[0.00120419985614717, 0.18371839984320104, 0.3671663999557495]","[0.13363389996811748, 0.25049100001342595, 0.3671712998766452]",67.89188860007562,68.09400040004402,1000,68.09400040004402,1000,1000,1000,1000,0,num_3,0.38176639983430505,,35,14,2026-03-13_14h33.45.006,2026A_exp2,2022.2.4,59.928972171566855,
1,0,0.0,6.1,0,0,7,7,3,,,,,68.49292759993114,69.14310200000182,69.14310200000182,69.64418580010533,315,315,69.64418580010533,69.64418580010533,69.64418580010533,69.64418580010533,69.64418580010533,69.64418580010533,69.64418580010533,69.64418580010533,69.64418580010533,70.01093390001915,70.01093390001915,70.01093390001915,70.01093390001915,70.01093390001915,70.01093390001915,70.01093390001915,70.01093390001915,70.01093390001915,0,1,[0.0012101999018341303],[0.3671738998964429],70.01093390001915,70.21083380002528,0.0,70.21083380002528,0,0.0,0,1,1000,num_1,0.5846408999059349,,35,14,2026-03-13_14h33.45.006,2026A_exp2,2022.2.4,59.928972171566855,
1,0,4.9,0.0,0,0,8,8,14,,,,,70.8114893999882,71.46220769989304,71.46220769989304,71.94682070007548,315,45,71.94682070007548,71.94682070007548,71.94682070007548,71.94682070007548,71.94682070007548,71.94682070007548,71.94682070007548,71.94682070007548,71.94682070007548,72.31287969998084,72.31287969998084,72.31287969998084,72.31287969998084,72.31287969998084,72.31287969998084,72.31287969998084,72.31287969998084,72.31287969998084,12,3,"[0.0017643000464886427, 0.03339520003646612, 0.23302100016735494]","[0.017493100138381124, 0.18301040004007518, 0.2497853001113981]",72.31287969998084,72.51326630008407,4.9,72.51326630008407,1,4.9,1,1,1000,num_4,0.6591742001473904,,35,14,2026-03-13_14h33.45.006,2026A_exp2,2022.2.4,59.928972171566855,
1000,1,0.0,0.0,1,0,9,9,8,,,,,73.19708349998109,73.84785740007646,73.84785740007646,74.33222789992578,315,45,74.33222789992578,74.33222789992578,74.33222789992578,74.33222789992578,74.33222789992578,74.33222789992578,74.33222789992578,74.33222789992578,74.33222789992578,74.6987972999923,74.6987972999923,74.6987972999923,74.6987972999923,74.6987972999923,74.6987972999923,74.6987972999923,74.6987972999923,74.6987972999923,23,0,,,74.6987972999923,74.9003767000977,1000,74.9003767000977,1000,1000,1000,1000,0,num_3,0.36734130000695586,,35,14,2026-03-13_14h33.45.006,2026A_exp2,2022.2.4,59.928972171566855,
1,0,0.0,0.0,0,0,10,10,64,,,,,75.29938420001417,75.94982420001179,75.94982420001179,76.45104290009476,45,45,76.45104290009476,76.45104290009476,76.45104290009476,76.45104290009476,76.45104290009476,76.45104290009476,76.45104290009476,76.45104290009476,76.45104290009476,76.80086209997535,76.80086209997535,76.80086209997535,76.80086209997535,76.80086209997535,76.80086209997535,76.80086209997535,76.80086209997535,76.80086209997535,22,0,,,76.80086209997535,77.00121579994448,0.0,77.01784109999426,0,0.0,0,1,1000,num_1,0.5296511999331415,,35,14,2026-03-13_14h33.45.006,2026A_exp2,2022.2.4,59.928972171566855,
1,0,0.0,0.0,1,0,11,11,42,,,,,77.56814190000296,78.21893219999038,78.21893219999038,78.70338819990866,315,315,78.70338819990866,78.70338819990866,78.70338819990866,78.70338819990866,78.70338819990866,78.70338819990866,78.70338819990866,78.70338819990866,78.70338819990866,79.06949790008366,79.06949790008366,79.06949790008366,79.06949790008366,79.06949790008366,79.06949790008366,79.06949790008366,79.06949790008366,79.06949790008366,17,3,"[0.23367159999907017, 0.2671856000088155, 0.3170932000502944]","[0.25034560007043183, 0.30049320007674396, 0.36702800006605685]",79.06949790008366,79.26986039988697,0.0,79.26986039988697,1,0.0,0,0,1000,num_4,0.23824590002186596,,35,14,2026-03-13_14h33.45.006,2026A_exp2,2022.2.4,59.928972171566855,
1000,1,4.9,0.0,0,0,12,12,82,,,,,79.53680239990354,80.18753629992716,80.18753629992716,80.6719543999061,315,45,80.6719543999061,80.6719543999061,80.6719543999061,80.6719543999061,80.6719543999061,80.6719543999061,80.6719543999061,80.6719543999061,80.6719543999061,81.03836419992149,81.03836419992149,81.03836419992149,81.03836419992149,81.03836419992149,81.03836419992149,81.03836419992149,81.03836419992149,81.03836419992149,23,0,,,81.03836419992149,81.2405244000256,1000,81.2405244000256,1000,1000,1000,1000,0,num_3,0.25156970019452274,,35,14,2026-03-13_14h33.45.006,2026A_exp2,2022.2.4,59.928972171566855,
0,0,0.0,6.1,0,0,13,13,30,,,,,81.5221202999819,82.17431190004572,82.17431190004572,82.66289909998886,315,315,82.66289909998886,82.66289909998886,82.66289909998886,82.66289909998886,82.66289909998886,82.66289909998886,82.66289909998886,82.66289909998886,82.66289909998886,83.02373849996366,83.02373849996366,83.02373849996366,83.02373849996366,83.02373849996366,83.02373849996366,83.02373849996366,83.02373849996366,83.02373849996366,23,0,,,83.02373849996366,83.22370400000364,6.1,83.22370400000364,0,6.1,1,0,1000,num_1,0.7570780001115054,,35,14,2026-03-13_14h33.45.006,2026A_exp2,2022.2.4,59.928972171566855,
1,0,6.1,0.0,1,0,14,14,41,,,,,84.00831969990395,84.65870380005799,84.65870380005799,85.1430709999986,45,315,85.1430709999986,85.1430709999986,85.1430709999986,85.1430709999986,85.1430709999986,85.1430709999986,85.1430709999986,85.1430709999986,85.1430709999986,85.50962950009853,85.50962950009853,85.50962950009853,85.50962950009853,85.50962950009853,85.50962950009853,85.50962950009853,85.50962950009853,85.50962950009853,23,0,,,85.50962950009853,85.70980719989166,0.0,85.70980719989166,0,0.0,0,1,1000,num_1,1.0776124000549316,,35,14,2026-03-13_14h33.45.006,2026A_exp2,2022.2.4,59.928972171566855,
1000,1,4.9,3.7,1,0,15,15,46,,,,,86.81079180003144,87.46144620003179,87.46144620003179,87.9625494000502,315,315,87.9625494000502,87.9625494000502,87.9625494000502,87.9625494000502,87.9625494000502,87.9625494000502,87.9625494000502,87.9625494000502,87.9625494000502,88.31227350002155,88.31227350002155,88.31227350002155,88.31227350002155,88.31227350002155,88.31227350002155,88.31227350002155,88.31227350002155,88.31227350002155,3,3,"[0.00135709997266531, 0.05029910011216998, 0.3172611999325454]","[0.017570100026205182, 0.30046820011921227, 0.35062950011342764]",88.31227350002155,88.51487799989991,1000,88.51487799989991,1000,1000,1000,1000,0,num_3,0.43280790001153946,,35,14,2026-03-13_14h33.45.006,2026A_exp2,2022.2.4,59.928972171566855,
1000,1,0.0,4.9,1,0,16,16,51,,,,,88.9631417999044,89.61349539994262,89.61349539994262,90.11468439991586,45,45,90.11468439991586,90.11468439991586,90.11468439991586,90.11468439991586,90.11468439991586,90.11468439991586,90.11468439991586,90.11468439991586,90.11468439991586,90.48124519991688,90.48124519991688,90.48124519991688,90.48124519991688,90.48124519991688,90.48124519991688,90.48124519991688,90.48124519991688,90.48124519991688,23,0,,,90.48124519991688,90.68328309990466,1000,90.68328309990466,1000,1000,1000,1000,1,num_2,0.7131283001508564,,35,14,2026-03-13_14h33.45.006,2026A_exp2,2022.2.4,59.928972171566855,
1000,1,0.0,0.0,1,0,17,17,78,,,,,91.41549100005068,92.06613619998097,92.06613619998097,92.56725879991427,45,315,92.56725879991427,92.56725879991427,92.56725879991427,92.56725879991427,92.56725879991427,92.56725879991427,92.56725879991427,92.56725879991427,92.56725879991427,92.93358119996265,92.93358119996265,92.93358119996265,92.93358119996265,92.93358119996265,92.93358119996265,92.93358119996265,92.93358119996265,92.93358119996265,23,0,,,92.93358119996265,93.13560359994881,1000,93.13560359994881,1000,1000,1000,1000,0,num_3,0.5166718999389559,,35,14,2026-03-13_14h33.45.006,2026A_exp2,2022.2.4,59.928972171566855,
1,0,4.9,4.9,1,0,18,18,32,,,,,93.66757420008071,94.31832089996897,94.31832089996897,94.81953179999255,45,45,94.81953179999255,94.81953179999255,94.81953179999255,94.81953179999255,94.81953179999255,94.81953179999255,94.81953179999255,94.81953179999255,94.81953179999255,95.18594840005971,95.18594840005971,95.18594840005971,95.18594840005971,95.18594840005971,95.18594840005971,95.18594840005971,95.18594840005971,95.18594840005971,23,0,,,95.18594840005971,95.3860233000014,4.9,95.3860233000014,0,4.9,1,0,1000,num_1,0.7693056999705732,,35,14,2026-03-13_14h33.45.006,2026A_exp2,2022.2.4,59.928972171566855,
1,0,6.1,0.0,1,0,19,19,53,,,,,96.18672879994847,96.83741970011033,96.83741970011033,97.3218831999693,45,315,97.3218831999693,97.3218831999693,97.3218831999693,97.3218831999693,97.3218831999693,97.3218831999693,97.3218831999693,97.3218831999693,97.3218831999693,97.6883026000578,97.6883026000578,97.6883026000578,97.6883026000578,97.6883026000578,97.6883026000578,97.6883026000578,97.6883026000578,97.6883026000578,0,1,[0.0012533001136034727],[0.3675550001207739],97.6883026000578,97.88858180004172,0.0,97.88858180004172,0,0.0,0,1,1000,num_1,0.4835096998140216,,35,14,2026-03-13_14h33.45.006,2026A_exp2,2022.2.4,59.928972171566855,
1000,1,0.0,0.0,1,0,20,20,37,,,,,98.3889222999569,99.03976639988832,99.03976639988832,99.54080529999919,45,45,99.54080529999919,99.54080529999919,99.54080529999919,99.54080529999919,99.54080529999919,99.54080529999919,99.54080529999919,99.54080529999919,99.54080529999919,99.89057689998299,99.89057689998299,99.89057689998299,99.89057689998299,99.89057689998299,99.89057689998299,99.89057689998299,99.89057689998299,99.89057689998299,0,1,[0.0012367998715490103],[0.3502060000319034],99.89057689998299,100.09292920003645,1000,100.09292920003645,1000,1000,1000,1000,0,num_3,0.5430735999252647,,35,14,2026-03-13_14h33.45.006,2026A_exp2,2022.2.4,59.928972171566855,
0,0,4.9,3.7,1,0,21,21,13,,,,,100.65786319994368,101.30864740000106,101.30864740000106,101.80972680007108,315,45,101.80972680007108,101.80972680007108,101.80972680007108,101.80972680007108,101.80972680007108,101.80972680007108,101.80972680007108,101.80972680007108,101.80972680007108,102.17627559998073,102.17627559998073,102.17627559998073,102.17627559998073,102.17627559998073,102.17627559998073,102.17627559998073,102.17627559998073,102.17627559998073,0,1,[0.0012207000982016325],[0.3672851000446826],102.17627559998073,102.37641140003689,4.9,102.37641140003689,1,4.9,1,1,1000,num_4,0.6354602000210434,,35,14,2026-03-13_14h33.45.006,2026A_exp2,2022.2.4,59.928972171566855,
1,0,4.9,6.1,1,0,22,22,62,,,,,103.04381989990361,103.67771479999647,103.67771479999647,104.17877659993246,45,315,104.17877659993246,104.17877659993246,104.17877659993246,104.17877659993246,104.17877659993246,104.17877659993246,104.17877659993246,104.17877659993246,104.17877659993246,104.54528549988754,104.54528549988754,104.54528549988754,104.54528549988754,104.54528549988754,104.54528549988754,104.54528549988754,104.54528549988754,104.54528549988754,21,1,[0.0012371998745948076],[0.03361380007117987],104.54528549988754,104.74531070003286,6.1,104.74531070003286,0,6.1,1,0,1000,num_1,0.4746129000559449,,35,14,2026-03-13_14h33.45.006,2026A_exp2,2022.2.4,59.928972171566855,
1000,1,4.9,6.1,0,0,23,23,59,,,,,105.24586079991423,105.89650049991906,105.89650049991906,106.38096789992414,315,45,106.38096789992414,106.38096789992414,106.38096789992414,106.38096789992414,106.38096789992414,106.38096789992414,106.38096789992414,106.38096789992414,106.38096789992414,106.747505400097,106.747505400097,106.747505400097,106.747505400097,106.747505400097,106.747505400097,106.747505400097,106.747505400097,106.747505400097,23,0,,,106.747505400097,106.94978139991872,1000,106.94978139991872,1000,1000,1000,1000,0,num_3,0.365856199990958,,35,14,2026-03-13_14h33.45.006,2026A_exp2,2022.2.4,59.928972171566855,
1000,1,4.9,6.1,1,0,24,24,4,,,,,107.34776589996181,107.98188999993727,107.98188999993727,108.48294909996912,315,45,108.48294909996912,108.48294909996912,108.48294909996912,108.48294909996912,108.48294909996912,108.48294909996912,108.48294909996912,108.48294909996912,108.48294909996912,108.84915790008381,108.84915790008381,108.84915790008381,108.84915790008381,108.84915790008381,108.84915790008381,108.84915790008381,108.84915790008381,108.84915790008381,23,0,,,108.84915790008381,109.04947330011055,1000,109.04947330011055,1000,1000,1000,1000,1,num_2,0.5458564998116344,,35,14,2026-03-13_14h33.45.006,2026A_exp2,2022.2.4,59.928972171566855,
1000,1,4.9,4.9,0,0,25,25,36,,,,,109.61669320007786,110.26759309996851,110.26759309996851,110.75186669989489,45,45,110.75186669989489,110.75186669989489,110.75186669989489,110.75186669989489,110.75186669989489,110.75186669989489,110.75186669989489,110.75186669989489,110.75186669989489,111.1180968999397,111.1180968999397,111.1180968999397,111.1180968999397,111.1180968999397,111.1180968999397,111.1180968999397,111.1180968999397,111.1180968999397,23,0,,,111.1180968999397,111.31866410002112,1000,111.31866410002112,1000,1000,1000,1000,0,num_3,0.3886926001869142,,35,14,2026-03-13_14h33.45.006,2026A_exp2,2022.2.4,59.928972171566855,
1000,1,6.1,0.0,1,0,26,26,71,,,,,111.73562550009228,112.38610909995623,112.38610909995623,112.88717660005204,45,315,112.88717660005204,112.88717660005204,112.88717660005204,112.88717660005204,112.88717660005204,112.88717660005204,112.88717660005204,112.88717660005204,112.88717660005204,113.23696899996139,113.23696899996139,113.23696899996139,113.23696899996139,113.23696899996139,113.23696899996139,113.23696899996139,113.23696899996139,113.23696899996139,22,0,,,113.23696899996139,113.43722059996799,1000,113.43722059996799,1000,1000,1000,1000,0,num_3,0.49431239999830723,,35,14,2026-03-13_14h33.45.006,2026A_exp2,2022.2.4,59.928972171566855,
0,0,3.7,0.0,1,0,27,27,0,,,,,113.95435780007392,114.60493319993839,114.60493319993839,115.08947600005195,45,315,115.08947600005195,115.08947600005195,115.08947600005195,115.08947600005195,115.08947600005195,115.08947600005195,115.08947600005195,115.08947600005195,115.08947600005195,115.45582829997875,115.45582829997875,115.45582829997875,115.45582829997875,115.45582829997875,115.45582829997875,115.45582829997875,115.45582829997875,115.45582829997875,23,0,,,115.45582829997875,115.65597390010953,3.7,115.65597390010953,0,3.7,1,0,1000,num_1,1.0197211999911815,,35,14,2026-03-13_14h33.45.006,2026A_exp2,2022.2.4,59.928972171566855,
1,0,0.0,4.9,0,0,28,28,9,,,,,116.70739710005,117.34135630005039,117.34135630005039,117.84248139988631,315,45,117.84248139988631,117.84248139988631,117.84248139988631,117.84248139988631,117.84248139988631,117.84248139988631,117.84248139988631,117.84248139988631,117.84248139988631,118.20888060005382,118.20888060005382,118.20888060005382,118.20888060005382,118.20888060005382,118.20888060005382,118.20888060005382,118.20888060005382,118.20888060005382,23,0,,,118.20888060005382,118.40908010001294,0.0,118.40908010001294,0,0.0,0,1,1000,num_1,0.7074400000274181,,35,14,2026-03-13_14h33.45.006,2026A_exp2,2022.2.4,59.928972171566855,
1000,1,0.0,3.7,0,0,29,29,21,,,,,119.14308409998193,119.79385269992054,119.79385269992054,120.27831689990126,315,315,120.27831689990126,120.27831689990126,120.27831689990126,120.27831689990126,120.27831689990126,120.27831689990126,120.27831689990126,120.27831689990126,120.27831689990126,120.64455479988828,120.64455479988828,120.64455479988828,120.64455479988828,120.64455479988828,120.64455479988828,120.64455479988828,120.64455479988828,120.64455479988828,23,0,,,120.64455479988828,120.84519049990922,1000,120.84519049990922,1000,1000,1000,1000,0,num_3,0.45436830003745854,,35,14,2026-03-13_14h33.45.006,2026A_exp2,2022.2.4,59.928972171566855,
1,0,6.1,0.0,1,0,30,30,23,,,,,121.32856040005572,121.97936789994128,121.97936789994128,122.48014939995483,45,45,122.48014939995483,122.48014939995483,122.48014939995483,122.48014939995483,122.48014939995483,122.48014939995483,122.48014939995483,122.48014939995483,122.48014939995483,122.84678080002777,122.84678080002777,122.84678080002777,122.84678080002777,122.84678080002777,122.84678080002777,122.84678080002777,122.84678080002777,122.84678080002777,23,0,,,122.84678080002777,123.04704149998724,0.0,123.04704149998724,1,0.0,0,0,1000,num_4,0.6291224001906812,,35,14,2026-03-13_14h33.45.006,2026A_exp2,2022.2.4,59.928972171566855,
0,0,4.9,6.1,0,0,31,31,1,,,,,123.6975827999413,124.3484618999064,124.3484618999064,124.84941000002436,45,315,124.84941000002436,124.84941000002436,124.84941000002436,124.84941000002436,124.84941000002436,124.84941000002436,124.84941000002436,124.84941000002436,124.84941000002436,125.19911850010976,125.19911850010976,125.19911850010976,125.19911850010976,125.19911850010976,125.19911850010976,125.19911850010976,125.19911850010976,125.19911850010976,22,0,,,125.19911850010976,125.39935539988801,6.1,125.39935539988801,0,6.1,1,0,1000,num_1,0.6050907999742776,,35,14,2026-03-13_14h33.45.006,2026A_exp2,2022.2.4,59.928972171566855,
1000,1,0.0,0.0,1,0,32,32,63,,,,,126.03330400004052,126.68413840001449,126.68413840001449,127.18521509994753,45,45,127.18521509994753,127.18521509994753,127.18521509994753,127.18521509994753,127.18521509994753,127.18521509994753,127.18521509994753,127.18521509994753,127.18521509994753,127.53499100008048,127.53499100008048,127.53499100008048,127.53499100008048,127.53499100008048,127.53499100008048,127.53499100008048,127.53499100008048,127.53499100008048,21,1,[0.3504546000622213],[0.350459499983117],127.53499100008048,127.73677089996636,1000,127.73677089996636,1000,1000,1000,1000,0,num_3,0.46007189992815256,,35,14,2026-03-13_14h33.45.006,2026A_exp2,2022.2.4,59.928972171566855,
1000,1,0.0,6.1,0,0,33,33,85,,,,,128.21879899990745,128.86944420007057,128.86944420007057,129.3707504000049,45,45,129.3707504000049,129.3707504000049,129.3707504000049,129.3707504000049,129.3707504000049,129.3707504000049,129.3707504000049,129.3707504000049,129.3707504000049,129.73712370009162,129.73712370009162,129.73712370009162,129.73712370009162,129.73712370009162,129.73712370009162,129.73712370009162,129.73712370009162,129.73712370009162,10,4,"[0.0012038999702781439, 0.2003514999523759, 0.2503523000050336, 0.30060179997235537]","[0.13362899981439114, 0.23387569980695844, 0.2671312999445945, 0.3338581998832524]",129.73712370009162,129.93895439989865,1000,129.93895439989865,1000,1000,1000,1000,1,num_2,0.6091499000322074,,35,14,2026-03-13_14h33.45.006,2026A_exp2,2022.2.4,59.928972171566855,
1,0,3.7,3.7,1,0,34,34,11,,,,,130.5711733000353,131.22190140001476,131.22190140001476,131.72317210002802,45,315,131.72317210002802,131.72317210002802,131.72317210002802,131.72317210002802,131.72317210002802,131.72317210002802,131.72317210002802,131.72317210002802,131.72317210002802,132.08948169997893,132.08948169997893,132.08948169997893,132.08948169997893,132.08948169997893,132.08948169997893,132.08948169997893,132.08948169997893,132.08948169997893,0,1,[0.0012262999080121517],[0.36702399980276823],132.08948169997893,132.28970180009492,3.7,132.28970180009492,0,3.7,1,0,1000,num_1,0.4424020000733435,,35,14,2026-03-13_14h33.45.006,2026A_exp2,2022.2.4,59.928972171566855,
1,0,4.9,0.0,0,0,35,35,57,,,,,132.75655970000662,133.40746850008145,133.40746850008145,133.89184299996123,45,315,133.89184299996123,133.89184299996123,133.89184299996123,133.89184299996123,133.89184299996123,133.89184299996123,133.89184299996123,133.89184299996123,133.89184299996123,134.25830979994498,134.25830979994498,134.25830979994498,134.25830979994498,134.25830979994498,134.25830979994498,134.25830979994498,134.25830979994498,134.25830979994498,3,2,"[0.0011977001558989286, 0.33386190002784133]","[0.2836680000182241, 0.3671380002051592]",134.25830979994498,134.45845520007424,4.9,134.45845520007424,0,4.9,1,0,1000,num_1,0.6491848998703063,,35,14,2026-03-13_14h33.45.006,2026A_exp2,2022.2.4,59.928972171566855,
1,0,6.1,4.9,1,0,36,36,38,,,,,135.12588920001872,135.77688329992816,135.77688329992816,136.26080329995602,315,45,136.26080329995602,136.26080329995602,136.26080329995602,136.26080329995602,136.26080329995602,136.26080329995602,136.26080329995602,136.26080329995602,136.26080329995602,136.62733089993708,136.62733089993708,136.62733089993708,136.62733089993708,136.62733089993708,136.62733089993708,136.62733089993708,136.62733089993708,136.62733089993708,1,1,[0.017284000059589744],[0.36720910016447306],136.62733089993708,136.827585299965,4.9,136.827585299965,1,4.9,1,1,1000,num_4,0.5048539999406785,,35,14,2026-03-13_14h33.45.006,2026A_exp2,2022.2.4,59.928972171566855,
1000,1,4.9,6.1,0,0,37,37,35,,,,,137.36129510006867,138.01204299996607,138.01204299996607,138.49653419991955,315,315,138.49653419991955,138.49653419991955,138.49653419991955,138.49653419991955,138.49653419991955,138.49653419991955,138.49653419991955,138.49653419991955,138.49653419991955,138.8628652000334,138.8628652000334,138.8628652000334,138.8628652000334,138.8628652000334,138.8628652000334,138.8628652000334,138.8628652000334,138.8628652000334,0,1,[0.0012009001802653074],[0.3671620001550764],138.8628652000334,139.06479940004647,1000,139.06479940004647,1000,1000,1000,1000,0,num_3,0.45069209998473525,,35,14,2026-03-13_14h33.45.006,2026A_exp2,2022.2.4,59.928972171566855,
1000,1,0.0,0.0,0,0,38,38,33,,,,,139.54703569994308,140.19750329991803,140.19750329991803,140.69859050004743,45,45,140.69859050004743,140.69859050004743,140.69859050004743,140.69859050004743,140.69859050004743,140.69859050004743,140.69859050004743,140.69859050004743,140.69859050004743,141.04838220006786,141.04838220006786,141.04838220006786,141.04838220006786,141.04838220006786,141.04838220006786,141.04838220006786,141.04838220006786,141.04838220006786,0,1,[0.0012104997877031565],[0.3505087997764349],141.04838220006786,141.25030199997127,1000,141.25030199997127,1000,1000,1000,1000,0,num_3,0.4105439998675138,,35,14,2026-03-13_14h33.45.006,2026A_exp2,2022.2.4,59.928972171566855,
1,0,6.1,0.0,0,0,39,39,22,,,,,141.68222550000064,142.33296860009432,142.33296860009432,142.83404089999385,315,45,142.83404089999385,142.83404089999385,142.83404089999385,142.83404089999385,142.83404089999385,142.83404089999385,142.83404089999385,142.83404089999385,142.83404089999385,143.2004935001023,143.2004935001023,143.2004935001023,143.2004935001023,143.2004935001023,143.2004935001023,143.2004935001023,143.2004935001023,143.2004935001023,2,3,"[0.0011915999930351973, 0.08342049992643297, 0.1170439999550581]","[0.06681629992090166, 0.10043830005452037, 0.3669539000838995]",143.2004935001023,143.40080960001796,6.1,143.40080960001796,1,6.1,1,1,1000,num_4,0.6348883998580277,,35,14,2026-03-13_14h33.45.006,2026A_exp2,2022.2.4,59.928972171566855,
0,0,0.0,6.1,0,0,40,40,12,,,,,144.0513216999825,144.70194819988683,144.70194819988683,145.2030030998867,45,315,145.2030030998867,145.2030030998867,145.2030030998867,145.2030030998867,145.2030030998867,145.2030030998867,145.2030030998867,145.2030030998867,145.2030030998867,145.5529181000311,145.5529181000311,145.5529181000311,145.5529181000311,145.5529181000311,145.5529181000311,145.5529181000311,145.5529181000311,145.5529181000311,0,1,[0.0012360999826341867],[0.3505365999881178],145.5529181000311,145.75319360010326,6.1,145.75319360010326,0,6.1,1,0,1000,num_1,0.8271367000415921,,35,14,2026-03-13_14h33.45.006,2026A_exp2,2022.2.4,59.928972171566855,
1,0,0.0,0.0,1,0,41,41,68,,,,,146.60375480004586,147.25462780008093,147.25462780008093,147.738961199997,315,45,147.738961199997,147.738961199997,147.738961199997,147.738961199997,147.738961199997,147.738961199997,147.738961199997,147.738961199997,147.738961199997,148.10523350001313,148.10523350001313,148.10523350001313,148.10523350001313,148.10523350001313,148.10523350001313,148.10523350001313,148.10523350001313,148.10523350001313,2,2,"[0.0011791998986154795, 0.0669058000203222]","[0.03362799994647503, 0.36685239989310503]",148.10523350001313,148.30568119999953,0.0,148.30568119999953,1,0.0,0,0,1000,num_4,0.562607100000605,,35,14,2026-03-13_14h33.45.006,2026A_exp2,2022.2.4,59.928972171566855,
1000,1,0.0,3.7,1,0,42,42,81,,,,,148.88959860010073,149.540277000051,149.540277000051,150.02475270000286,45,315,150.02475270000286,150.02475270000286,150.02475270000286,150.02475270000286,150.02475270000286,150.02475270000286,150.02475270000286,150.02475270000286,150.02475270000286,150.3909297999926,150.3909297999926,150.3909297999926,150.3909297999926,150.3909297999926,150.3909297999926,150.3909297999926,150.3909297999926,150.3909297999926,2,3,"[0.0012189000844955444, 0.10020700003951788, 0.21694900002330542]","[0.08347780001349747, 0.2002226000186056, 0.36724369996227324]",150.3909297999926,150.59295949991792,1000,150.59295949991792,1000,1000,1000,1000,1,num_2,0.5311505999416113,,35,14,2026-03-13_14h33.45.006,2026A_exp2,2022.2.4,59.928972171566855,
1000,1,0.0,0.0,1,0,43,43,72,,,,,151.1418445999734,151.79254089994356,151.79254089994356,152.2937183000613,315,315,152.2937183000613,152.2937183000613,152.2937183000613,152.2937183000613,152.2937183000613,152.2937183000613,152.2937183000613,152.2937183000613,152.2937183000613,152.65991519996896,152.65991519996896,152.65991519996896,152.65991519996896,152.65991519996896,152.65991519996896,152.65991519996896,152.65991519996896,152.65991519996896,0,1,[0.0012459999416023493],[0.36697399988770485],152.65991519996896,152.8619748998899,1000,152.8619748998899,1000,1000,1000,1000,0,num_3,0.42246889998205006,,35,14,2026-03-13_14h33.45.006,2026A_exp2,2022.2.4,59.928972171566855,
1,0,0.0,3.7,0,0,44,44,34,,,,,153.31059959996492,153.9612352999393,153.9612352999393,154.46243719989434,315,45,154.46243719989434,154.46243719989434,154.46243719989434,154.46243719989434,154.46243719989434,154.46243719989434,154.46243719989434,154.46243719989434,154.46243719989434,154.82881109998561,154.82881109998561,154.82881109998561,154.82881109998561,154.82881109998561,154.82881109998561,154.82881109998561,154.82881109998561,154.82881109998561,0,1,[0.0012154001742601395],[0.3667896999977529],154.82881109998561,155.028972200118,0.0,155.028972200118,0,0.0,0,1,1000,num_1,1.2144599999301136,,35,14,2026-03-13_14h33.45.006,2026A_exp2,2022.2.4,59.928972171566855,
1,0,3.7,0.0,1,0,45,45,73,,,,,156.26349029992707,156.9141689001117,156.9141689001117,157.3986138999462,315,315,157.3986138999462,157.3986138999462,157.3986138999462,157.3986138999462,157.3986138999462,157.3986138999462,157.3986138999462,157.3986138999462,157.3986138999462,157.76520600006916,157.76520600006916,157.76520600006916,157.76520600006916,157.76520600006916,157.76520600006916,157.76520600006916,157.76520600006916,157.76520600006916,0,1,[0.0011430000886321068],[0.36671729991212487],157.76520600006916,157.96540259988979,0.0,157.96540259988979,0,0.0,0,1,1000,num_1,0.5500016000587493,,35,14,2026-03-13_14h33.45.006,2026A_exp2,2022.2.4,59.928972171566855,
1000,1,0.0,6.1,1,0,46,46,40,,,,,158.5324430000037,159.18323109997436,159.18323109997436,159.66753090010025,315,315,159.66753090010025,159.66753090010025,159.66753090010025,159.66753090010025,159.66753090010025,159.66753090010025,159.66753090010025,159.66753090010025,159.66753090010025,160.03412350011058,160.03412350011058,160.03412350011058,160.03412350011058,160.03412350011058,160.03412350011058,160.03412350011058,160.03412350011058,160.03412350011058,0,1,[0.0012008999474346638],[0.3672594998497516],160.03412350011058,160.23647790006362,1000,160.23647790006362,1000,1000,1000,1000,1,num_2,0.5110117001459002,,35,14,2026-03-13_14h33.45.006,2026A_exp2,2022.2.4,59.928972171566855,
1,0,0.0,4.9,1,0,47,47,44,,,,,160.76798889995553,161.41879840008914,161.41879840008914,161.91982010006905,45,315,161.91982010006905,161.91982010006905,161.91982010006905,161.91982010006905,161.91982010006905,161.91982010006905,161.91982010006905,161.91982010006905,161.91982010006905,162.28636529995129,162.28636529995129,162.28636529995129,162.28636529995129,162.28636529995129,162.28636529995129,162.28636529995129,162.28636529995129,162.28636529995129,0,1,[0.0012066001072525978],[0.367272200062871],162.28636529995129,162.48649089992978,4.9,162.48649089992978,1,4.9,1,1,1000,num_4,0.5659417000133544,,35,14,2026-03-13_14h33.45.006,2026A_exp2,2022.2.4,59.928972171566855,
1,0,0.0,0.0,0,0,48,48,87,,,,,163.07029599999078,163.72111680009402,163.72111680009402,164.20556119992398,45,315,164.20556119992398,164.20556119992398,164.20556119992398,164.20556119992398,164.20556119992398,164.20556119992398,164.20556119992398,164.20556119992398,164.20556119992398,164.571903700009,164.571903700009,164.571903700009,164.571903700009,164.571903700009,164.571903700009,164.571903700009,164.571903700009,164.571903700009,9,5,"[0.050381100038066506, 0.10033860011026263, 0.1503657998982817, 0.21711389999836683, 0.36732629989273846]","[0.06696949992328882, 0.11699920007959008, 0.2003210000693798, 0.35056670010089874, 0.3673314000479877]",164.571903700009,164.7722088000737,0.0,164.7722088000737,0,0.0,0,1,1000,num_1,0.5913309999741614,,35,14,2026-03-13_14h33.45.006,2026A_exp2,2022.2.4,59.928972171566855,
1000,1,3.7,3.7,0,0,49,49,76,,,,,165.38936439994723,166.04013269999996,166.04013269999996,166.54106609988958,315,315,166.54106609988958,166.54106609988958,166.54106609988958,166.54106609988958,166.54106609988958,166.54106609988958,166.54106609988958,166.54106609988958,166.54106609988958,166.89101450005546,166.89101450005546,166.89101450005546,166.89101450005546,166.89101450005546,166.89101450005546,166.89101450005546,166.89101450005546,166.89101450005546,19,2,"[0.0012325001880526543, 0.3169592001941055]","[0.0334183000959456, 0.3337632999755442]",166.89101450005546,167.09296980011277,1000,167.09296980011277,1000,1000,1000,1000,0,num_3,0.4074092002119869,,35,14,2026-03-13_14h33.45.006,2026A_exp2,2022.2.4,59.928972171566855,
1,0,3.7,4.9,0,0,50,50,70,,,,,167.5247317000758,168.17549469997175,168.17549469997175,168.67646389990114,45,45,168.67646389990114,168.67646389990114,168.67646389990114,168.67646389990114,168.67646389990114,168.67646389990114,168.67646389990114,168.67646389990114,168.67646389990114,169.0432041999884,169.0432041999884,169.0432041999884,169.0432041999884,169.0432041999884,169.0432041999884,169.0432041999884,169.0432041999884,169.0432041999884,2,2,"[0.0010943000670522451, 0.3336638999171555]","[0.3004507999867201, 0.36690500006079674]",169.0432041999884,169.24328329996206,3.7,169.24328329996206,1,3.7,1,1,1000,num_4,0.9613447000738233,,35,14,2026-03-13_14h33.45.006,2026A_exp2,2022.2.4,59.928972171566855,
1000,1,0.0,6.1,0,0,51,51,5,,,,,170.22753320005722,170.87818480003625,170.87818480003625,171.36728490004316,315,315,171.36728490004316,171.36728490004316,171.36728490004316,171.36728490004316,171.36728490004316,171.36728490004316,171.36728490004316,171.36728490004316,171.36728490004316,171.72912620007992,171.72912620007992,171.72912620007992,171.72912620007992,171.72912620007992,171.72912620007992,171.72912620007992,171.72912620007992,171.72912620007992,0,1,[0.0025622998364269733],[0.3672895999625325],171.72912620007992,171.940861399984,1000,171.940861399984,1000,1000,1000,1000,1,num_2,0.3745987000875175,,35,14,2026-03-13_14h33.45.006,2026A_exp2,2022.2.4,59.928972171566855,
1,0,0.0,0.0,1,0,52,52,77,,,,,172.3463467999827,172.9969446999021,172.9969446999021,173.49818750005215,45,45,173.49818750005215,173.49818750005215,173.49818750005215,173.49818750005215,173.49818750005215,173.49818750005215,173.49818750005215,173.49818750005215,173.49818750005215,173.86457449989393,173.86457449989393,173.86457449989393,173.86457449989393,173.86457449989393,173.86457449989393,173.86457449989393,173.86457449989393,173.86457449989393,7,3,"[0.001201600069180131, 0.26709500001743436, 0.30059320013970137]","[0.16695949994027615, 0.28376609995029867, 0.3672941999975592]",173.86457449989393,174.06465349998325,0.0,174.06465349998325,0,0.0,0,1,1000,num_1,0.619115199893713,,35,14,2026-03-13_14h33.45.006,2026A_exp2,2022.2.4,59.928972171566855,
1,0,0.0,0.0,1,0,53,53,66,,,,,174.71528779994696,175.36609959998168,175.36609959998168,175.85051689995453,45,45,175.85051689995453,175.85051689995453,175.85051689995453,175.85051689995453,175.85051689995453,175.85051689995453,175.85051689995453,175.85051689995453,175.85051689995453,176.21695489995182,176.21695489995182,176.21695489995182,176.21695489995182,176.21695489995182,176.21695489995182,176.21695489995182,176.21695489995182,176.21695489995182,1,2,"[0.0012342999689280987, 0.3672460000962019]","[0.3505979001056403, 0.36725100013427436]",176.21695489995182,176.4170754000079,0.0,176.4170754000079,0,0.0,0,1,1000,num_1,0.9468725000042468,,35,14,2026-03-13_14h33.45.006,2026A_exp2,2022.2.4,59.928972171566855,
1,0,3.7,6.1,0,0,54,54,74,,,,,177.38446169998497,178.0186189999804,178.0186189999804,178.51977299991995,45,315,178.51977299991995,178.51977299991995,178.51977299991995,178.51977299991995,178.51977299991995,178.51977299991995,178.51977299991995,178.51977299991995,178.51977299991995,178.8862083000131,178.8862083000131,178.8862083000131,178.8862083000131,178.8862083000131,178.8862083000131,178.8862083000131,178.8862083000131,178.8862083000131,1,2,"[0.0011419998481869698, 0.11711819982156157]","[0.10063060000538826, 0.3673844998702407]",178.8862083000131,179.0864891000092,3.7,179.0864891000092,0,3.7,1,0,1000,num_1,0.7097666000481695,,35,14,2026-03-13_14h33.45.006,2026A_exp2,2022.2.4,59.928972171566855,
1000,1,6.1,3.7,0,0,55,55,43,,,,,179.8203225999605,180.47094099991955,180.47094099991955,180.95552770001814,315,315,180.95552770001814,180.95552770001814,180.95552770001814,180.95552770001814,180.95552770001814,180.95552770001814,180.95552770001814,180.95552770001814,180.95552770001814,181.3220251998864,181.3220251998864,181.3220251998864,181.3220251998864,181.3220251998864,181.3220251998864,181.3220251998864,181.3220251998864,181.3220251998864,1,2,"[0.001245299819856882, 0.05000779987312853]","[0.03337179985828698, 0.36708639981225133]",181.3220251998864,181.52411730005406,1000,181.52411730005406,1000,1000,1000,1000,0,num_3,0.39143189997412264,,35,14,2026-03-13_14h33.45.006,2026A_exp2,2022.2.4,59.928972171566855,
1,0,0.0,4.9,1,0,56,56,2,,,,,181.93930960004218,182.58993469993584,182.58993469993584,183.09101180010475,315,315,183.09101180010475,183.09101180010475,183.09101180010475,183.09101180010475,183.09101180010475,183.09101180010475,183.09101180010475,183.09101180010475,183.09101180010475,183.4573296001181,183.4573296001181,183.4573296001181,183.4573296001181,183.4573296001181,183.4573296001181,183.4573296001181,183.4573296001181,183.4573296001181,0,1,[0.001246799947693944],[0.36724899988621473],183.4573296001181,183.65773209999315,4.9,183.65773209999315,0,4.9,1,0,1000,num_1,0.7304399001877755,,35,14,2026-03-13_14h33.45.006,2026A_exp2,2022.2.4,59.928972171566855,
1000,1,4.9,3.7,0,0,57,57,26,,,,,184.40841690008529,185.05906330002472,185.05906330002472,185.5435526999645,45,315,185.5435526999645,185.5435526999645,185.5435526999645,185.5435526999645,185.5435526999645,185.5435526999645,185.5435526999645,185.5435526999645,185.5435526999645,185.91000530007295,185.91000530007295,185.91000530007295,185.91000530007295,185.91000530007295,185.91000530007295,185.91000530007295,185.91000530007295,185.91000530007295,1,1,[0.001217300072312355],[0.36723680002614856],185.91000530007295,186.11181830009446,1000,186.11181830009446,1000,1000,1000,1000,0,num_3,0.3804899000097066,,35,14,2026-03-13_14h33.45.006,2026A_exp2,2022.2.4,59.928972171566855,
1,0,4.9,0.0,0,0,58,58,19,,,,,186.51053730002604,187.1612676999066,187.1612676999066,187.66224660002626,315,45,187.66224660002626,187.66224660002626,187.66224660002626,187.66224660002626,187.66224660002626,187.66224660002626,187.66224660002626,187.66224660002626,187.66224660002626,188.0120413999539,188.0120413999539,188.0120413999539,188.0120413999539,188.0120413999539,188.0120413999539,188.0120413999539,188.0120413999539,188.0120413999539,6,2,"[0.0013095999602228403, 0.21708370000123978]","[0.20041729998774827, 0.2837655001785606]",188.0120413999539,188.2122480000835,4.9,188.22898250003345,0,4.9,1,0,1000,num_1,0.6064579000230879,,35,14,2026-03-13_14h33.45.006,2026A_exp2,2022.2.4,59.928972171566855,
1000,1,0.0,3.7,1,0,59,59,86,,,,,188.86274940008298,189.51351849990897,189.51351849990897,189.99802830000408,45,45,189.99802830000408,189.99802830000408,189.99802830000408,189.99802830000408,189.99802830000408,189.99802830000408,189.99802830000408,189.99802830000408,189.99802830000408,190.36442749993876,190.36442749993876,190.36442749993876,190.36442749993876,190.36442749993876,190.36442749993876,190.36442749993876,190.36442749993876,190.36442749993876,0,1,[0.0011942998971790075],[0.36742769996635616],190.36442749993876,190.5669078999199,1000,190.5669078999199,1000,1000,1000,1000,0,num_3,0.5259221000596881,,35,14,2026-03-13_14h33.45.006,2026A_exp2,2022.2.4,59.928972171566855,
1,0,4.9,0.0,1,0,60,60,52,,,,,191.1151054999791,191.76580949989147,191.76580949989147,192.26687119994313,45,45,192.26687119994313,192.26687119994313,192.26687119994313,192.26687119994313,192.26687119994313,192.26687119994313,192.26687119994313,192.26687119994313,192.26687119994313,192.63328969990835,192.63328969990835,192.63328969990835,192.63328969990835,192.63328969990835,192.63328969990835,192.63328969990835,192.63328969990835,192.63328969990835,0,1,[0.0012338999658823013],[0.36719190003350377],192.63328969990835,192.83348869998008,0.0,192.83348869998008,0,0.0,0,1,1000,num_1,0.6665857001207769,,35,14,2026-03-13_14h33.45.006,2026A_exp2,2022.2.4,59.928972171566855,
1000,1,4.9,4.9,1,0,61,61,67,,,,,193.51727920002304,194.168266300112,194.168266300112,194.65267420001328,45,45,194.65267420001328,194.65267420001328,194.65267420001328,194.65267420001328,194.65267420001328,194.65267420001328,194.65267420001328,194.65267420001328,194.65267420001328,195.01902020000853,195.01902020000853,195.01902020000853,195.01902020000853,195.01902020000853,195.01902020000853,195.01902020000853,195.01902020000853,195.01902020000853,23,0,,,195.01902020000853,195.2215863999445,1000,195.2215863999445,1000,1000,1000,1000,0,num_3,0.5026867999695241,,35,14,2026-03-13_14h33.45.006,2026A_exp2,2022.2.4,59.928972171566855,
1,0,0.0,0.0,0,0,62,62,75,,,,,195.75292359991,196.38712939992547,196.38712939992547,196.88823070004582,315,315,196.88823070004582,196.88823070004582,196.88823070004582,196.88823070004582,196.88823070004582,196.88823070004582,196.88823070004582,196.88823070004582,196.88823070004582,197.25458170007914,197.25458170007914,197.25458170007914,197.25458170007914,197.25458170007914,197.25458170007914,197.25458170007914,197.25458170007914,197.25458170007914,2,3,"[0.0013753999955952168, 0.21708580013364553, 0.3171680001541972]","[0.20040910015814006, 0.3004457000643015, 0.3673958999570459]",197.25458170007914,197.45487849996425,0.0,197.45487849996425,1,0.0,0,0,1000,num_4,1.0533615997992456,,35,14,2026-03-13_14h33.45.006,2026A_exp2,2022.2.4,59.928972171566855,
1,0,0.0,3.7,1,0,63,63,83,,,,,198.53911460004747,199.18981130002066,199.18981130002066,199.67434290004894,45,315,199.67434290004894,199.67434290004894,199.67434290004894,199.67434290004894,199.67434290004894,199.67434290004894,199.67434290004894,199.67434290004894,199.67434290004894,200.04081339994445,200.04081339994445,200.04081339994445,200.04081339994445,200.04081339994445,200.04081339994445,200.04081339994445,200.04081339994445,200.04081339994445,0,1,[0.0010589000303298235],[0.3673282000236213],200.04081339994445,200.24097239994444,3.7,200.24097239994444,0,3.7,1,0,1000,num_1,0.6913066999986768,,35,14,2026-03-13_14h33.45.006,2026A_exp2,2022.2.4,59.928972171566855,
1,0,0.0,0.0,1,0,64,64,56,,,,,200.95815329998732,201.60900219995528,201.60900219995528,202.09344809991308,315,45,202.09344809991308,202.09344809991308,202.09344809991308,202.09344809991308,202.09344809991308,202.09344809991308,202.09344809991308,202.09344809991308,202.09344809991308,202.4598691998981,202.4598691998981,202.4598691998981,202.4598691998981,202.4598691998981,202.4598691998981,202.4598691998981,202.4598691998981,202.4598691998981,2,2,"[0.0012461000587791204, 0.21710130013525486]","[0.2003691999707371, 0.3670411999337375]",202.4598691998981,202.6601023999974,0.0,202.6601023999974,0,0.0,0,1,1000,num_1,0.3603324999567121,,35,14,2026-03-13_14h33.45.006,2026A_exp2,2022.2.4,59.928972171566855,
1,0,0.0,4.9,0,0,65,65,48,,,,,203.044136099983,203.6943155999761,203.6943155999761,204.17869489989243,315,45,204.17869489989243,204.17869489989243,204.17869489989243,204.17869489989243,204.17869489989243,204.17869489989243,204.17869489989243,204.17869489989243,204.17869489989243,204.54518919996917,204.54518919996917,204.54518919996917,204.54518919996917,204.54518919996917,204.54518919996917,204.54518919996917,204.54518919996917,204.54518919996917,2,2,"[0.0012460998259484768, 0.25030600000172853]","[0.21699099987745285, 0.3670063999015838]",204.54518919996917,204.7465826999396,0.0,204.7465826999396,0,0.0,0,1,1000,num_1,0.49775919993408024,,35,14,2026-03-13_14h33.45.006,2026A_exp2,2022.2.4,59.928972171566855,
1000,1,3.7,3.7,1,0,66,66,25,,,,,205.2632212000899,205.91326469997875,205.91326469997875,206.3976241000928,315,45,206.3976241000928,206.3976241000928,206.3976241000928,206.3976241000928,206.3976241000928,206.3976241000928,206.3976241000928,206.3976241000928,206.3976241000928,206.76417710003443,206.76417710003443,206.76417710003443,206.76417710003443,206.76417710003443,206.76417710003443,206.76417710003443,206.76417710003443,206.76417710003443,0,1,[0.0012007998302578926],[0.36733219982124865],206.76417710003443,206.96625129994936,1000,206.96625129994936,1000,1000,1000,1000,0,num_3,0.3417420000769198,,35,14,2026-03-13_14h33.45.006,2026A_exp2,2022.2.4,59.928972171566855,
0,0,6.1,0.0,0,0,67,67,65,,,,,207.33129299990833,207.9819819999393,207.9819819999393,208.4831930999644,315,45,208.4831930999644,208.4831930999644,208.4831930999644,208.4831930999644,208.4831930999644,208.4831930999644,208.4831930999644,208.4831930999644,208.4831930999644,208.84958230005577,208.84958230005577,208.84958230005577,208.84958230005577,208.84958230005577,208.84958230005577,208.84958230005577,208.84958230005577,208.84958230005577,9,5,"[0.0012628999538719654, 0.0335701999720186, 0.21699280012398958, 0.2503609999548644, 0.3338874001055956]","[0.01749769994057715, 0.15023849997669458, 0.23373740003444254, 0.3170722001232207, 0.3504582999739796]",208.84958230005577,209.04981039999984,0.0,209.04981039999984,0,0.0,0,1,1000,num_1,0.6743767000734806,,35,14,2026-03-13_14h33.45.006,2026A_exp2,2022.2.4,59.928972171566855,
1000,1,4.9,4.9,0,0,68,68,6,,,,,209.75035080011003,210.4010918000713,210.4010918000713,210.88557970011607,45,45,210.88557970011607,210.88557970011607,210.88557970011607,210.88557970011607,210.88557970011607,210.88557970011607,210.88557970011607,210.88557970011607,210.88557970011607,211.2519125000108,211.2519125000108,211.2519125000108,211.2519125000108,211.2519125000108,211.2519125000108,211.2519125000108,211.2519125000108,211.2519125000108,0,1,[0.0011936998926103115],[0.3673715000040829],211.2519125000108,211.45440870011225,1000,211.45440870011225,1000,1000,1000,1000,0,num_3,0.45439019985497,,35,14,2026-03-13_14h33.45.006,2026A_exp2,2022.2.4,59.928972171566855,
1000,1,6.1,0.0,1,0,69,69,61,,,,,211.93584920000285,212.58658079989254,212.58658079989254,213.08771490002982,315,315,213.08771490002982,213.08771490002982,213.08771490002982,213.08771490002982,213.08771490002982,213.08771490002982,213.08771490002982,213.08771490002982,213.08771490002982,213.4541525999084,213.4541525999084,213.4541525999084,213.4541525999084,213.4541525999084,213.4541525999084,213.4541525999084,213.4541525999084,213.4541525999084,0,1,[0.0014736999291926622],[0.36725910007953644],213.4541525999084,213.65568220010027,1000,213.65568220010027,1000,1000,1000,1000,0,num_3,0.44381930003874004,,35,14,2026-03-13_14h33.45.006,2026A_exp2,2022.2.4,59.928972171566855,
1000,1,0.0,3.7,0,0,70,70,18,,,,,214.1212957999669,214.7721478000749,214.7721478000749,215.27329450007528,315,315,215.27329450007528,215.27329450007528,215.27329450007528,215.27329450007528,215.27329450007528,215.27329450007528,215.27329450007528,215.27329450007528,215.27329450007528,215.63964800001122,215.63964800001122,215.63964800001122,215.63964800001122,215.63964800001122,215.63964800001122,215.63964800001122,215.63964800001122,215.63964800001122,3,3,"[0.001236399868503213, 0.30007690005004406, 0.35036509996280074]","[0.2834067998919636, 0.3167061998974532, 0.3671083999797702]",215.63964800001122,215.8400594999548,1000,215.8400594999548,1000,1000,1000,1000,1,num_2,0.5242105999495834,,35,14,2026-03-13_14h33.45.006,2026A_exp2,2022.2.4,59.928972171566855,
1,0,0.0,0.0,0,0,71,71,31,,,,,216.39029369992204,217.04113029991277,217.04113029991277,217.542231899919,45,315,217.542231899919,217.542231899919,217.542231899919,217.542231899919,217.542231899919,217.542231899919,217.542231899919,217.542231899919,217.542231899919,217.90864100004546,217.90864100004546,217.90864100004546,217.90864100004546,217.90864100004546,217.90864100004546,217.90864100004546,217.90864100004546,217.90864100004546,2,1,[0.0012016999535262585],[0.3505188999697566],217.90864100004546,218.1088499999605,0.0,218.1088499999605,0,0.0,0,1,1000,num_1,0.9505836998578161,,35,14,2026-03-13_14h33.45.006,2026A_exp2,2022.2.4,59.928972171566855,
1,0,6.1,3.7,1,0,72,72,45,,,,,219.076414299896,219.7271853000857,219.7271853000857,220.21147549990565,315,45,220.21147549990565,220.21147549990565,220.21147549990565,220.21147549990565,220.21147549990565,220.21147549990565,220.21147549990565,220.21147549990565,220.21147549990565,220.5779500999488,220.5779500999488,220.5779500999488,220.5779500999488,220.5779500999488,220.5779500999488,220.5779500999488,220.5779500999488,220.5779500999488,1,2,"[0.0012626999523490667, 0.13366589997895062]","[0.11705549992620945, 0.3670465999748558]",220.5779500999488,220.77810609992594,3.7,220.77810609992594,0,3.7,1,0,1000,num_1,0.7621287000365555,,35,14,2026-03-13_14h33.45.006,2026A_exp2,2022.2.4,59.928972171566855,
1,0,0.0,0.0,1,0,73,73,60,,,,,221.56209799996577,222.21297800005414,222.21297800005414,222.69732080004178,315,45,222.69732080004178,222.69732080004178,222.69732080004178,222.69732080004178,222.69732080004178,222.69732080004178,222.69732080004178,222.69732080004178,222.69732080004178,223.06371250003576,223.06371250003576,223.06371250003576,223.06371250003576,223.06371250003576,223.06371250003576,223.06371250003576,223.06371250003576,223.06371250003576,0,1,[0.0012307001743465662],[0.367167100077495],223.06371250003576,223.26389429997653,0.0,223.26389429997653,0,0.0,0,1,1000,num_1,0.4436443999875337,,35,14,2026-03-13_14h33.45.006,2026A_exp2,2022.2.4,59.928972171566855,
1000,1,0.0,3.7,1,0,74,74,7,,,,,223.7309596000705,224.38181880000047,224.38181880000047,224.88293320010416,315,315,224.88293320010416,224.88293320010416,224.88293320010416,224.88293320010416,224.88293320010416,224.88293320010416,224.88293320010416,224.88293320010416,224.88293320010416,225.23280079988763,225.23280079988763,225.23280079988763,225.23280079988763,225.23280079988763,225.23280079988763,225.23280079988763,225.23280079988763,225.23280079988763,0,1,[0.0011930998880416155],[0.35074359993450344],225.23280079988763,225.43453330011107,1000,225.43453330011107,1000,1000,1000,1000,0,num_3,0.5214635001029819,,35,14,2026-03-13_14h33.45.006,2026A_exp2,2022.2.4,59.928972171566855,
1000,1,3.7,0.0,1,0,75,75,54,,,,,225.9832546999678,226.63397200009786,226.63397200009786,227.13501519989222,315,45,227.13501519989222,227.13501519989222,227.13501519989222,227.13501519989222,227.13501519989222,227.13501519989222,227.13501519989222,227.13501519989222,227.13501519989222,227.5014790999703,227.5014790999703,227.5014790999703,227.5014790999703,227.5014790999703,227.5014790999703,227.5014790999703,227.5014790999703,227.5014790999703,0,1,[0.0012197999749332666],[0.36721689999103546],227.5014790999703,227.7035117999185,1000,227.7035117999185,1000,1000,1000,1000,1,num_2,0.7249658999498934,,35,14,2026-03-13_14h33.45.006,2026A_exp2,2022.2.4,59.928972171566855,
1,0,3.7,3.7,0,0,76,76,69,,,,,228.45246529998258,229.10311680007726,229.10311680007726,229.60419770004228,315,45,229.60419770004228,229.60419770004228,229.60419770004228,229.60419770004228,229.60419770004228,229.60419770004228,229.60419770004228,229.60419770004228,229.60419770004228,229.97052960004658,229.97052960004658,229.97052960004658,229.97052960004658,229.97052960004658,229.97052960004658,229.97052960004658,229.97052960004658,229.97052960004658,0,1,[0.001302999909967184],[0.3671828000806272],229.97052960004658,230.17073939996772,3.7,230.17073939996772,1,3.7,1,1,1000,num_4,0.6408156999386847,,35,14,2026-03-13_14h33.45.006,2026A_exp2,2022.2.4,59.928972171566855,
0,0,4.9,4.9,0,0,77,77,88,,,,,230.8380549000576,231.4888832999859,231.4888832999859,231.97327270009555,45,45,231.97327270009555,231.97327270009555,231.97327270009555,231.97327270009555,231.97327270009555,231.97327270009555,231.97327270009555,231.97327270009555,231.97327270009555,232.33974889991805,232.33974889991805,232.33974889991805,232.33974889991805,232.33974889991805,232.33974889991805,232.33974889991805,232.33974889991805,232.33974889991805,0,1,[0.0012886999174952507],[0.36717150011099875],232.33974889991805,232.53981929994188,4.9,232.53981929994188,0,4.9,1,0,1000,num_1,0.6728086001239717,,35,14,2026-03-13_14h33.45.006,2026A_exp2,2022.2.4,59.928972171566855,
0,0,0.0,0.0,0,0,78,78,20,,,,,233.24035739991814,233.89121629996225,233.89121629996225,234.39229279989377,315,315,234.39229279989377,234.39229279989377,234.39229279989377,234.39229279989377,234.39229279989377,234.39229279989377,234.39229279989377,234.39229279989377,234.39229279989377,234.75871150009334,234.75871150009334,234.75871150009334,234.75871150009334,234.75871150009334,234.75871150009334,234.75871150009334,234.75871150009334,234.75871150009334,1,2,"[0.001195400021970272, 0.31717399996705353]","[0.30035839998163283, 0.3671704998705536]",234.75871150009334,234.95892910007387,0.0,234.95892910007387,0,0.0,0,1,1000,num_1,0.6293383999727666,,35,14,2026-03-13_14h33.45.006,2026A_exp2,2022.2.4,59.928972171566855,
0,0,0.0,0.0,0,0,79,79,10,,,,,235.60965589992702,236.24366190005094,236.24366190005094,236.74469000007957,45,315,236.74469000007957,236.74469000007957,236.74469000007957,236.74469000007957,236.74469000007957,236.74469000007957,236.74469000007957,236.74469000007957,236.74469000007957,237.11107759992592,237.11107759992592,237.11107759992592,237.11107759992592,237.11107759992592,237.11107759992592,237.11107759992592,237.11107759992592,237.11107759992592,13,5,"[0.033667099894955754, 0.1671236997935921, 0.23376039997674525, 0.2670967997983098, 0.35062089981511235]","[0.0671017998829484, 0.2004986999090761, 0.25062339985743165, 0.31725859991274774, 0.36733139981515706]",237.11107759992592,237.31130590010434,0.0,237.31130590010434,0,0.0,0,1,1000,num_1,0.3812429001554847,,35,14,2026-03-13_14h33.45.006,2026A_exp2,2022.2.4,59.928972171566855,
1,0,6.1,0.0,0,0,80,80,58,,,,,237.71160429995507,238.36242879997008,238.36242879997008,238.84673859993927,315,45,238.84673859993927,238.84673859993927,238.84673859993927,238.84673859993927,238.84673859993927,238.84673859993927,238.84673859993927,238.84673859993927,238.84673859993927,239.2130638998933,239.2130638998933,239.2130638998933,239.2130638998933,239.2130638998933,239.2130638998933,239.2130638998933,239.2130638998933,239.2130638998933,23,0,,,239.2130638998933,239.41332729998976,6.1,239.41332729998976,1,6.1,1,1,1000,num_4,0.5422000999096781,,35,14,2026-03-13_14h33.45.006,2026A_exp2,2022.2.4,59.928972171566855,
1000,1,0.0,0.0,1,0,81,81,80,,,,,239.98049760004506,240.63125149998814,240.63125149998814,241.1158225000836,45,315,241.1158225000836,241.1158225000836,241.1158225000836,241.1158225000836,241.1158225000836,241.1158225000836,241.1158225000836,241.1158225000836,241.1158225000836,241.48221509996802,241.48221509996802,241.48221509996802,241.48221509996802,241.48221509996802,241.48221509996802,241.48221509996802,241.48221509996802,241.48221509996802,12,7,"[0.01745060016401112, 0.11701810010708869, 0.1669441000558436, 0.2171345001552254, 0.2501699000131339, 0.28367949998937547, 0.31716430000960827]","[0.10028920019976795, 0.1335392000619322, 0.20028740004636347, 0.23379940004087985, 0.26704740012064576, 0.30039140000008047, 0.3337866000365466]",241.48221509996802,241.68366089998744,1000,241.68366089998744,1000,1000,1000,1000,0,num_3,0.4403999000787735,,35,14,2026-03-13_14h33.45.006,2026A_exp2,2022.2.4,59.928972171566855,
1,0,0.0,6.1,1,0,82,82,17,,,,,242.14939019992016,242.80019590002485,242.80019590002485,243.30131820007227,45,45,243.30131820007227,243.30131820007227,243.30131820007227,243.30131820007227,243.30131820007227,243.30131820007227,243.30131820007227,243.30131820007227,243.30131820007227,243.66754899988882,243.66754899988882,243.66754899988882,243.66754899988882,243.66754899988882,243.66754899988882,243.66754899988882,243.66754899988882,243.66754899988882,23,0,,,243.66754899988882,243.86776640010066,6.1,243.86776640010066,0,6.1,1,0,1000,num_1,3.8168039999436587,,35,14,2026-03-13_14h33.45.006,2026A_exp2,2022.2.4,59.928972171566855,
0,0,0.0,6.1,1,0,83,83,84,,,,,247.70512109994888,248.35566699993797,248.35566699993797,248.85684220003895,315,315,248.85684220003895,248.85684220003895,248.85684220003895,248.85684220003895,248.85684220003895,248.85684220003895,248.85684220003895,248.85684220003895,248.85684220003895,249.2065600999631,249.2065600999631,249.2065600999631,249.2065600999631,249.2065600999631,249.2065600999631,249.2065600999631,249.2065600999631,249.2065600999631,1,2,"[0.0012218998745083809, 0.2336438000202179]","[0.21720179985277355, 0.3505686998832971]",249.2065600999631,249.40662909997627,0.0,249.40662909997627,0,0.0,0,1,1000,num_1,0.8139521998818964,,35,14,2026-03-13_14h33.45.006,2026A_exp2,2022.2.4,59.928972171566855,
1,0,4.9,0.0,0,0,84,84,47,,,,,250.24092300003394,250.87463170010597,250.87463170010597,251.3761120000854,45,315,251.3761120000854,251.3761120000854,251.3761120000854,251.3761120000854,251.3761120000854,251.3761120000854,251.3761120000854,251.3761120000854,251.3761120000854,251.74247130006552,251.74247130006552,251.74247130006552,251.74247130006552,251.74247130006552,251.74247130006552,251.74247130006552,251.74247130006552,251.74247130006552,17,2,"[0.0012012999504804611, 0.16707029985263944]","[0.08363160002045333, 0.1839091000147164]",251.74247130006552,251.9425009000115,4.9,251.9425009000115,1,4.9,1,1,1000,num_4,0.3903782998677343,,35,14,2026-03-13_14h33.45.006,2026A_exp2,2022.2.4,59.928972171566855,
1,0,3.7,0.0,0,0,85,85,15,,,,,252.35977119999006,253.01007329998538,253.01007329998538,253.49469750002027,45,45,253.49469750002027,253.49469750002027,253.49469750002027,253.49469750002027,253.49469750002027,253.49469750002027,253.49469750002027,253.49469750002027,253.49469750002027,253.861207799986,253.861207799986,253.861207799986,253.861207799986,253.861207799986,253.861207799986,253.861207799986,253.861207799986,253.861207799986,23,0,,,253.861207799986,254.06129599991255,3.7,254.06129599991255,1,3.7,1,1,1000,num_4,0.6626001000404358,,35,14,2026-03-13_14h33.45.006,2026A_exp2,2022.2.4,59.928972171566855,
1,0,4.9,3.7,0,0,86,86,89,,,,,254.74544680002145,255.40198169997893,255.40198169997893,255.8968581999652,45,45,255.8968581999652,255.8968581999652,255.8968581999652,255.8968581999652,255.8968581999652,255.8968581999652,255.8968581999652,255.8968581999652,255.8968581999652,256.24686590000056,256.24686590000056,256.24686590000056,256.24686590000056,256.24686590000056,256.24686590000056,256.24686590000056,256.24686590000056,256.24686590000056,6,5,"[0.0007720999419689178, 0.11721369996666908, 0.15056679979898036, 0.25119399977847934, 0.3514625998213887]","[0.10079179983586073, 0.1338786999695003, 0.2345839999616146, 0.30119129992090166, 0.3514669998548925]",256.24686590000056,256.44699459988624,4.9,256.44699459988624,1,4.9,1,1,1000,num_4,0.43712750007398427,,35,14,2026-03-13_14h33.45.006,2026A_exp2,2022.2.4,59.928972171566855,
0,0,3.7,0.0,0,0,87,87,16,,,,,256.9141985999886,257.5650192000903,257.5650192000903,258.04929809994064,315,315,258.04929809994064,258.04929809994064,258.04929809994064,258.04929809994064,258.04929809994064,258.04929809994064,258.04929809994064,258.04929809994064,258.04929809994064,258.4158558000345,258.4158558000345,258.4158558000345,258.4158558000345,258.4158558000345,258.4158558000345,258.4158558000345,258.4158558000345,258.4158558000345,22,1,[0.3340026999358088],[0.35078259999863803],258.4158558000345,258.61598529992625,0.0,258.61598529992625,0,0.0,0,1,1000,num_1,0.6994087998755276,,35,14,2026-03-13_14h33.45.006,2026A_exp2,2022.2.4,59.928972171566855,
1,0,0.0,0.0,1,0,88,88,24,,,,,259.3334419000894,259.98401189991273,259.98401189991273,260.4851577000227,315,45,260.4851577000227,260.4851577000227,260.4851577000227,260.4851577000227,260.4851577000227,260.4851577000227,260.4851577000227,260.4851577000227,260.4851577000227,260.83486990001984,260.83486990001984,260.83486990001984,260.83486990001984,260.83486990001984,260.83486990001984,260.83486990001984,260.83486990001984,260.83486990001984,22,0,,,260.83486990001984,261.03514109994285,0.0,261.03514109994285,0,0.0,0,1,1000,num_1,0.40061130002141,,35,14,2026-03-13_14h33.45.006,2026A_exp2,2022.2.4,59.928972171566855,
1,0,0.0,6.1,1,0,89,89,39,,,,,261.4521854999475,262.1028241000604,262.1028241000604,262.6038643999491,315,315,262.6038643999491,262.6038643999491,262.6038643999491,262.6038643999491,262.6038643999491,262.6038643999491,262.6038643999491,262.6038643999491,262.6038643999491,262.9702924999874,262.9702924999874,262.9702924999874,262.9702924999874,262.9702924999874,262.9702924999874,262.9702924999874,262.9702924999874,262.9702924999874,23,0,,,262.9702924999874,263.1705952999182,6.1,263.1705952999182,1,6.1,1,1,1000,num_4,0.3778907998930663,,35,14,2026-03-13_14h33.45.006,2026A_exp2,2022.2.4,59.928972171566855,
,,,,,,,,,,,,,,,,,,,,,,,,,,,,,,,,,,,,,,,,,,,,,,,,,,,,263.57909850007854,,,,,,,
