validity,detectorcomp,contrastCW,contrastCCW,precueCWorCCW,block_80trials.thisRepN,block_80trials.thisTrialN,block_80trials.thisN,block_80trials.thisIndex,etRecord.started,etRecord.stopped,text.started,text.stopped,text_4.started,text_4.stopped,text_6.started,text_6.stopped,oriCW,oriCCW,roi_2.started,grating_UR.started,grating_UL.started,grating_LR.started,grating_LL.started,noise_UR.started,noise_UL.started,noise_LR.started,noise_LL.started,roi_2.stopped,grating_UR.stopped,grating_UL.stopped,grating_LR.stopped,grating_LL.stopped,noise_UR.stopped,noise_UL.stopped,noise_LR.stopped,noise_LL.stopped,outframe,roi_2.numLooks,roi_2.timesOn,roi_2.timesOff,text_2.started,text_2.stopped,probedcontrast,key_resp.started,respdetect,relevantContrast,correctDetect,TorFdetect,respCWorCCW,key_resp.keys,key_resp.rt,feedback_display_.started,participantNo,blockNo,date,expName,psychopyVersion,frameRate,
1000,1,3.7,0.0,1,0,0,0,88,3.170000854879618e-05,3.170000854879618e-05,52.57757429999765,54.59288110001944,54.59288110001944,55.22557469998719,55.22557469998719,55.74638229998527,315,45,55.74638229998527,55.74638229998527,55.74638229998527,55.74638229998527,55.74638229998527,55.74638229998527,55.74638229998527,55.74638229998527,55.74638229998527,56.09316340001533,56.09316340001533,56.09316340001533,56.09316340001533,56.09316340001533,56.09316340001533,56.09316340001533,56.09316340001533,56.09316340001533,23,0,,,56.09316340001533,56.30011370003922,1000,56.30011370003922,1000,1000,1000,1000,0,num_3,0.5545233999728225,,22,9,2026-03-04_11h24.13.417,2026A_exp2,2022.2.4,59.893078884177484,
1000,1,0.0,0.0,0,0,1,1,7,,,,,56.877547800017055,57.527898900036234,57.527898900036234,58.012328000040725,45,45,58.012328000040725,58.012328000040725,58.012328000040725,58.012328000040725,58.012328000040725,58.012328000040725,58.012328000040725,58.012328000040725,58.012328000040725,58.378816800017375,58.378816800017375,58.378816800017375,58.378816800017375,58.378816800017375,58.378816800017375,58.378816800017375,58.378816800017375,58.378816800017375,23,0,,,58.378816800017375,58.58079290000023,1000,58.58079290000023,1000,1000,1000,1000,1,num_2,0.7532300999737345,,22,9,2026-03-04_11h24.13.417,2026A_exp2,2022.2.4,59.893078884177484,
1000,1,0.0,3.7,1,0,2,2,65,,,,,59.363338400027715,60.013737500004936,60.013737500004936,60.514826100028586,315,45,60.514826100028586,60.514826100028586,60.514826100028586,60.514826100028586,60.514826100028586,60.514826100028586,60.514826100028586,60.514826100028586,60.514826100028586,60.86454510001931,60.86454510001931,60.86454510001931,60.86454510001931,60.86454510001931,60.86454510001931,60.86454510001931,60.86454510001931,60.86454510001931,22,0,,,60.86454510001931,61.066518900042865,1000,61.066518900042865,1000,1000,1000,1000,1,num_2,0.347391199960839,,22,9,2026-03-04_11h24.13.417,2026A_exp2,2022.2.4,59.893078884177484,
1000,1,0.0,6.1,1,0,3,3,62,,,,,61.43197420000797,62.08250469999621,62.08250469999621,62.58358840004075,315,315,62.58358840004075,62.58358840004075,62.58358840004075,62.58358840004075,62.58358840004075,62.58358840004075,62.58358840004075,62.58358840004075,62.58358840004075,62.95004130003508,62.95004130003508,62.95004130003508,62.95004130003508,62.95004130003508,62.95004130003508,62.95004130003508,62.95004130003508,62.95004130003508,23,0,,,62.95004130003508,63.15194240002893,1000,63.15194240002893,1000,1000,1000,1000,1,num_2,0.40538899996317923,,22,9,2026-03-04_11h24.13.417,2026A_exp2,2022.2.4,59.893078884177484,
1000,1,0.0,4.9,0,0,4,4,5,,,,,63.58415150002111,64.234712400008,64.234712400008,64.73579950002022,45,45,64.73579950002022,64.73579950002022,64.73579950002022,64.73579950002022,64.73579950002022,64.73579950002022,64.73579950002022,64.73579950002022,64.73579950002022,65.10221969999839,65.10221969999839,65.10221969999839,65.10221969999839,65.10221969999839,65.10221969999839,65.10221969999839,65.10221969999839,65.10221969999839,23,0,,,65.10221969999839,65.30416940001305,1000,65.30416940001305,1000,1000,1000,1000,1,num_2,0.5655005999724381,,22,9,2026-03-04_11h24.13.417,2026A_exp2,2022.2.4,59.893078884177484,
1,0,3.7,0.0,1,0,5,5,12,,,,,65.8864132000017,66.53684870002326,66.53684870002326,67.03815269999905,315,315,67.03815269999905,67.03815269999905,67.03815269999905,67.03815269999905,67.03815269999905,67.03815269999905,67.03815269999905,67.03815269999905,67.03815269999905,67.40447270002915,67.40447270002915,67.40447270002915,67.40447270002915,67.40447270002915,67.40447270002915,67.40447270002915,67.40447270002915,67.40447270002915,23,0,,,67.40447270002915,67.60475719999522,0.0,67.60475719999522,0,0.0,0,1,1000,num_1,0.7682819999754429,,22,9,2026-03-04_11h24.13.417,2026A_exp2,2022.2.4,59.893078884177484,
1,0,0.0,3.7,1,0,6,6,0,,,,,68.38854300003732,69.03943689999869,69.03943689999869,69.52379230002407,45,45,69.52379230002407,69.52379230002407,69.52379230002407,69.52379230002407,69.52379230002407,69.52379230002407,69.52379230002407,69.52379230002407,69.52379230002407,69.89040490001207,69.89040490001207,69.89040490001207,69.89040490001207,69.89040490001207,69.89040490001207,69.89040490001207,69.89040490001207,69.89040490001207,23,0,,,69.89040490001207,70.09039910003776,3.7,70.09039910003776,1,3.7,1,1,1000,num_4,0.651690500031691,,22,9,2026-03-04_11h24.13.417,2026A_exp2,2022.2.4,59.893078884177484,
1000,1,0.0,0.0,1,0,7,7,46,,,,,70.7745547000086,71.4252475000103,71.4252475000103,71.9095132999937,45,45,71.9095132999937,71.9095132999937,71.9095132999937,71.9095132999937,71.9095132999937,71.9095132999937,71.9095132999937,71.9095132999937,71.9095132999937,72.27608770004008,72.27608770004008,72.27608770004008,72.27608770004008,72.27608770004008,72.27608770004008,72.27608770004008,72.27608770004008,72.27608770004008,23,0,,,72.27608770004008,72.47784860001411,1000,72.47784860001411,1000,1000,1000,1000,1,num_2,0.48794309998629615,,22,9,2026-03-04_11h24.13.417,2026A_exp2,2022.2.4,59.893078884177484,
1,0,3.7,4.9,0,0,8,8,76,,,,,72.99327010003617,73.64407370000845,73.64407370000845,74.14510309998877,45,315,74.14510309998877,74.14510309998877,74.14510309998877,74.14510309998877,74.14510309998877,74.14510309998877,74.14510309998877,74.14510309998877,74.14510309998877,74.49492930003908,74.49492930003908,74.49492930003908,74.49492930003908,74.49492930003908,74.49492930003908,74.49492930003908,74.49492930003908,74.49492930003908,22,0,,,74.49492930003908,74.6950899999938,3.7,74.71185140003217,0,3.7,1,0,1000,num_1,0.6303180999821052,,22,9,2026-03-04_11h24.13.417,2026A_exp2,2022.2.4,59.893078884177484,
1000,1,0.0,6.1,0,0,9,9,85,,,,,75.36231320002116,76.01317210000707,76.01317210000707,76.51434420002624,315,45,76.51434420002624,76.51434420002624,76.51434420002624,76.51434420002624,76.51434420002624,76.51434420002624,76.51434420002624,76.51434420002624,76.51434420002624,76.86378040001728,76.86378040001728,76.86378040001728,76.86378040001728,76.86378040001728,76.86378040001728,76.86378040001728,76.86378040001728,76.86378040001728,3,2,"[0.0007134999614208937, 0.35091380000812933]","[0.3009021999896504, 0.35091879998799413]",76.86378040001728,77.09666899999138,1000,77.09666899999138,1000,1000,1000,1000,1,num_2,0.501352199993562,,22,9,2026-03-04_11h24.13.417,2026A_exp2,2022.2.4,59.893078884177484,
1000,1,0.0,0.0,1,0,10,10,16,,,,,77.61478760000318,78.26530299999285,78.26530299999285,78.76652310002828,315,45,78.76652310002828,78.76652310002828,78.76652310002828,78.76652310002828,78.76652310002828,78.76652310002828,78.76652310002828,78.76652310002828,78.76652310002828,79.1328274999978,79.1328274999978,79.1328274999978,79.1328274999978,79.1328274999978,79.1328274999978,79.1328274999978,79.1328274999978,79.1328274999978,23,0,,,79.1328274999978,79.3347797000315,1000,79.3347797000315,1000,1000,1000,1000,1,num_2,0.3273521999944933,,22,9,2026-03-04_11h24.13.417,2026A_exp2,2022.2.4,59.893078884177484,
1000,1,0.0,4.9,0,0,11,11,74,,,,,79.68331540003419,80.33401560003404,80.33401560003404,80.83516399998916,45,45,80.83516399998916,80.83516399998916,80.83516399998916,80.83516399998916,80.83516399998916,80.83516399998916,80.83516399998916,80.83516399998916,80.83516399998916,81.18499400001019,81.18499400001019,81.18499400001019,81.18499400001019,81.18499400001019,81.18499400001019,81.18499400001019,81.18499400001019,81.18499400001019,22,0,,,81.18499400001019,81.38623200001894,1000,81.40185790002579,1000,1000,1000,1000,1,num_2,0.45235300000058487,,22,9,2026-03-04_11h24.13.417,2026A_exp2,2022.2.4,59.893078884177484,
1,0,4.9,0.0,1,0,12,12,25,,,,,81.88579010003014,82.53618990001269,82.53618990001269,83.0373306000256,315,315,83.0373306000256,83.0373306000256,83.0373306000256,83.0373306000256,83.0373306000256,83.0373306000256,83.0373306000256,83.0373306000256,83.0373306000256,83.38717910001287,83.38717910001287,83.38717910001287,83.38717910001287,83.38717910001287,83.38717910001287,83.38717910001287,83.38717910001287,83.38717910001287,22,0,,,83.38717910001287,83.5873556000297,0.0,83.5873556000297,0,0.0,0,1,1000,num_1,0.7071387000032701,,22,9,2026-03-04_11h24.13.417,2026A_exp2,2022.2.4,59.893078884177484,
1000,1,0.0,6.1,1,0,13,13,69,,,,,84.32138360000681,84.97197110002162,84.97197110002162,85.4565689000301,45,315,85.4565689000301,85.4565689000301,85.4565689000301,85.4565689000301,85.4565689000301,85.4565689000301,85.4565689000301,85.4565689000301,85.4565689000301,85.82293900003424,85.82293900003424,85.82293900003424,85.82293900003424,85.82293900003424,85.82293900003424,85.82293900003424,85.82293900003424,85.82293900003424,23,0,,,85.82293900003424,86.02493040001718,1000,86.02493040001718,1000,1000,1000,1000,1,num_2,0.39635070000076666,,22,9,2026-03-04_11h24.13.417,2026A_exp2,2022.2.4,59.893078884177484,
1000,1,0.0,0.0,0,0,14,14,45,,,,,86.44006130000344,87.09085959999356,87.09085959999356,87.59193240001332,45,45,87.59193240001332,87.59193240001332,87.59193240001332,87.59193240001332,87.59193240001332,87.59193240001332,87.59193240001332,87.59193240001332,87.59193240001332,87.95839270000579,87.95839270000579,87.95839270000579,87.95839270000579,87.95839270000579,87.95839270000579,87.95839270000579,87.95839270000579,87.95839270000579,23,0,,,87.95839270000579,88.16020899999421,1000,88.16020899999421,1000,1000,1000,1000,1,num_2,0.41364290000637993,,22,9,2026-03-04_11h24.13.417,2026A_exp2,2022.2.4,59.893078884177484,
1000,1,3.7,0.0,0,0,15,15,66,,,,,88.59218500001589,89.24306720000459,89.24306720000459,89.74415380001301,45,45,89.74415380001301,89.74415380001301,89.74415380001301,89.74415380001301,89.74415380001301,89.74415380001301,89.74415380001301,89.74415380001301,89.74415380001301,90.11045089998515,90.11045089998515,90.11045089998515,90.11045089998515,90.11045089998515,90.11045089998515,90.11045089998515,90.11045089998515,90.11045089998515,23,0,,,90.11045089998515,90.31292980001308,1000,90.31292980001308,1000,1000,1000,1000,1,num_2,0.36435280001023784,,22,9,2026-03-04_11h24.13.417,2026A_exp2,2022.2.4,59.893078884177484,
1,0,3.7,4.9,1,0,16,16,71,,,,,90.69444849999854,91.34521170001244,91.34521170001244,91.8460863000364,315,45,91.8460863000364,91.8460863000364,91.8460863000364,91.8460863000364,91.8460863000364,91.8460863000364,91.8460863000364,91.8460863000364,91.8460863000364,92.21261670003878,92.21261670003878,92.21261670003878,92.21261670003878,92.21261670003878,92.21261670003878,92.21261670003878,92.21261670003878,92.21261670003878,23,0,,,92.21261670003878,92.41281200002413,4.9,92.41281200002413,1,4.9,1,1,1000,num_4,1.0807447000406682,,22,9,2026-03-04_11h24.13.417,2026A_exp2,2022.2.4,59.893078884177484,
1000,1,0.0,3.7,0,0,17,17,57,,,,,93.51376800000435,94.14797580003506,94.14797580003506,94.64904570003273,315,45,94.64904570003273,94.64904570003273,94.64904570003273,94.64904570003273,94.64904570003273,94.64904570003273,94.64904570003273,94.64904570003273,94.64904570003273,95.0153483999893,95.0153483999893,95.0153483999893,95.0153483999893,95.0153483999893,95.0153483999893,95.0153483999893,95.0153483999893,95.0153483999893,23,0,,,95.0153483999893,95.21753110003192,1000,95.21753110003192,1000,1000,1000,1000,1,num_2,1.2524342000251636,,22,9,2026-03-04_11h24.13.417,2026A_exp2,2022.2.4,59.893078884177484,
1000,1,0.0,6.1,1,0,18,18,3,,,,,96.5001581000397,97.15090820001205,97.15090820001205,97.65198140003486,315,315,97.65198140003486,97.65198140003486,97.65198140003486,97.65198140003486,97.65198140003486,97.65198140003486,97.65198140003486,97.65198140003486,97.65198140003486,98.01840170001378,98.01840170001378,98.01840170001378,98.01840170001378,98.01840170001378,98.01840170001378,98.01840170001378,98.01840170001378,98.01840170001378,23,0,,,98.01840170001378,98.22044280002592,1000,98.22044280002592,1000,1000,1000,1000,1,num_2,0.37723250000271946,,22,9,2026-03-04_11h24.13.417,2026A_exp2,2022.2.4,59.893078884177484,
0,0,0.0,4.9,0,0,19,19,14,,,,,98.61897380003938,99.26972490001936,99.26972490001936,99.77082610002253,315,45,99.77082610002253,99.77082610002253,99.77082610002253,99.77082610002253,99.77082610002253,99.77082610002253,99.77082610002253,99.77082610002253,99.77082610002253,100.12059320003027,100.12059320003027,100.12059320003027,100.12059320003027,100.12059320003027,100.12059320003027,100.12059320003027,100.12059320003027,100.12059320003027,18,2,"[0.0012117000296711922, 0.06693530001211911]","[0.050304200034588575, 0.08375089999753982]",100.12059320003027,100.32073400000809,4.9,100.32073400000809,1,4.9,1,1,1000,num_4,0.6046899000066333,,22,9,2026-03-04_11h24.13.417,2026A_exp2,2022.2.4,59.893078884177484,
1,0,4.9,6.1,0,0,20,20,33,,,,,100.95442550000735,101.60535850003362,101.60535850003362,102.08966330002295,315,315,102.08966330002295,102.08966330002295,102.08966330002295,102.08966330002295,102.08966330002295,102.08966330002295,102.08966330002295,102.08966330002295,102.08966330002295,102.45622990000993,102.45622990000993,102.45622990000993,102.45622990000993,102.45622990000993,102.45622990000993,102.45622990000993,102.45622990000993,102.45622990000993,23,0,,,102.45622990000993,102.65648960002,4.9,102.65648960002,0,4.9,1,0,1000,num_1,0.7579810000024736,,22,9,2026-03-04_11h24.13.417,2026A_exp2,2022.2.4,59.893078884177484,
0,0,0.0,0.0,0,0,21,21,22,,,,,103.4404094000347,104.09118640003726,104.09118640003726,104.57551799999783,45,315,104.57551799999783,104.57551799999783,104.57551799999783,104.57551799999783,104.57551799999783,104.57551799999783,104.57551799999783,104.57551799999783,104.57551799999783,104.9420228000381,104.9420228000381,104.9420228000381,104.9420228000381,104.9420228000381,104.9420228000381,104.9420228000381,104.9420228000381,104.9420228000381,23,0,,,104.9420228000381,105.14220180001575,0.0,105.14220180001575,1,0.0,0,0,1000,num_4,0.743845599994529,,22,9,2026-03-04_11h24.13.417,2026A_exp2,2022.2.4,59.893078884177484,
1,0,3.7,6.1,1,0,22,22,77,,,,,105.90972270001657,106.54362499999115,106.54362499999115,107.04474720003782,315,315,107.04474720003782,107.04474720003782,107.04474720003782,107.04474720003782,107.04474720003782,107.04474720003782,107.04474720003782,107.04474720003782,107.04474720003782,107.41111089999322,107.41111089999322,107.41111089999322,107.41111089999322,107.41111089999322,107.41111089999322,107.41111089999322,107.41111089999322,107.41111089999322,23,0,,,107.41111089999322,107.61127500003204,6.1,107.61127500003204,1,6.1,1,1,1000,num_4,0.7706027000094764,,22,9,2026-03-04_11h24.13.417,2026A_exp2,2022.2.4,59.893078884177484,
1000,1,0.0,6.1,1,0,23,23,19,,,,,108.41192290000618,109.06282500002999,109.06282500002999,109.54710050002905,45,45,109.54710050002905,109.54710050002905,109.54710050002905,109.54710050002905,109.54710050002905,109.54710050002905,109.54710050002905,109.54710050002905,109.54710050002905,109.91368410002906,109.91368410002906,109.91368410002906,109.91368410002906,109.91368410002906,109.91368410002906,109.91368410002906,109.91368410002906,109.91368410002906,23,0,,,109.91368410002906,110.11571849999018,1000,110.11571849999018,1000,1000,1000,1000,1,num_2,0.4896779000409879,,22,9,2026-03-04_11h24.13.417,2026A_exp2,2022.2.4,59.893078884177484,
1,0,4.9,0.0,0,0,24,24,4,,,,,110.63110060000326,111.28175610001199,111.28175610001199,111.78290960000595,315,315,111.78290960000595,111.78290960000595,111.78290960000595,111.78290960000595,111.78290960000595,111.78290960000595,111.78290960000595,111.78290960000595,111.78290960000595,112.13257800001884,112.13257800001884,112.13257800001884,112.13257800001884,112.13257800001884,112.13257800001884,112.13257800001884,112.13257800001884,112.13257800001884,22,0,,,112.13257800001884,112.33271240000613,4.9,112.33271240000613,1,4.9,1,1,1000,num_4,0.7694024000084028,,22,9,2026-03-04_11h24.13.417,2026A_exp2,2022.2.4,59.893078884177484,
0,0,3.7,6.1,0,0,25,25,73,,,,,113.13318780000554,113.78424930002075,113.78424930002075,114.26855259999866,315,45,114.26855259999866,114.26855259999866,114.26855259999866,114.26855259999866,114.26855259999866,114.26855259999866,114.26855259999866,114.26855259999866,114.26855259999866,114.63510100002168,114.63510100002168,114.63510100002168,114.63510100002168,114.63510100002168,114.63510100002168,114.63510100002168,114.63510100002168,114.63510100002168,23,0,,,114.63510100002168,114.83528820000356,6.1,114.83528820000356,0,6.1,1,0,1000,num_1,0.9150178999989294,,22,9,2026-03-04_11h24.13.417,2026A_exp2,2022.2.4,59.893078884177484,
1,0,0.0,0.0,1,0,26,26,24,,,,,115.76940350001678,116.42013520002365,116.42013520002365,116.90548240003409,315,45,116.90548240003409,116.90548240003409,116.90548240003409,116.90548240003409,116.90548240003409,116.90548240003409,116.90548240003409,116.90548240003409,116.90548240003409,117.27103840000927,117.27103840000927,117.27103840000927,117.27103840000927,117.27103840000927,117.27103840000927,117.27103840000927,117.27103840000927,117.27103840000927,23,0,,,117.27103840000927,117.47128769999836,0.0,117.47128769999836,0,0.0,0,1,1000,num_1,1.782762399991043,,22,9,2026-03-04_11h24.13.417,2026A_exp2,2022.2.4,59.893078884177484,
1,0,3.7,0.0,1,0,27,27,11,,,,,119.27310470002703,119.90706749999663,119.90706749999663,120.40816829999676,315,45,120.40816829999676,120.40816829999676,120.40816829999676,120.40816829999676,120.40816829999676,120.40816829999676,120.40816829999676,120.40816829999676,120.40816829999676,120.77453610004159,120.77453610004159,120.77453610004159,120.77453610004159,120.77453610004159,120.77453610004159,120.77453610004159,120.77453610004159,120.77453610004159,23,0,,,120.77453610004159,120.97469730000012,0.0,120.97469730000012,0,0.0,0,1,1000,num_1,0.6712842999841087,,22,9,2026-03-04_11h24.13.417,2026A_exp2,2022.2.4,59.893078884177484,
1000,1,0.0,4.9,0,0,28,28,53,,,,,121.67542260000482,122.32612119999249,122.32612119999249,122.82722680002917,315,45,122.82722680002917,122.82722680002917,122.82722680002917,122.82722680002917,122.82722680002917,122.82722680002917,122.82722680002917,122.82722680002917,122.82722680002917,123.19365219998872,123.19365219998872,123.19365219998872,123.19365219998872,123.19365219998872,123.19365219998872,123.19365219998872,123.19365219998872,123.19365219998872,23,0,,,123.19365219998872,123.39558549999492,1000,123.39558549999492,1000,1000,1000,1000,1,num_2,0.7622987999930046,,22,9,2026-03-04_11h24.13.417,2026A_exp2,2022.2.4,59.893078884177484,
1000,1,3.7,6.1,1,0,29,29,29,,,,,124.17785040003946,124.82865999999922,124.82865999999922,125.32956129999366,315,45,125.32956129999366,125.32956129999366,125.32956129999366,125.32956129999366,125.32956129999366,125.32956129999366,125.32956129999366,125.32956129999366,125.32956129999366,125.69605780002894,125.69605780002894,125.69605780002894,125.69605780002894,125.69605780002894,125.69605780002894,125.69605780002894,125.69605780002894,125.69605780002894,23,0,,,125.69605780002894,125.89831509999931,1000,125.89831509999931,1000,1000,1000,1000,1,num_2,0.46743340004468337,,22,9,2026-03-04_11h24.13.417,2026A_exp2,2022.2.4,59.893078884177484,
1,0,0.0,0.0,0,0,30,30,34,,,,,126.39664190000622,127.04735940002138,127.04735940002138,127.54846970003564,45,315,127.54846970003564,127.54846970003564,127.54846970003564,127.54846970003564,127.54846970003564,127.54846970003564,127.54846970003564,127.54846970003564,127.54846970003564,127.91487290000077,127.91487290000077,127.91487290000077,127.91487290000077,127.91487290000077,127.91487290000077,127.91487290000077,127.91487290000077,127.91487290000077,23,0,,,127.91487290000077,128.11523639998632,0.0,128.11523639998632,0,0.0,0,1,1000,num_1,0.7859833000111394,,22,9,2026-03-04_11h24.13.417,2026A_exp2,2022.2.4,59.893078884177484,
1000,1,0.0,0.0,1,0,31,31,56,,,,,128.932472400018,129.58336180000333,129.58336180000333,130.06776080001146,315,45,130.06776080001146,130.06776080001146,130.06776080001146,130.06776080001146,130.06776080001146,130.06776080001146,130.06776080001146,130.06776080001146,130.06776080001146,130.4339900999912,130.4339900999912,130.4339900999912,130.4339900999912,130.4339900999912,130.4339900999912,130.4339900999912,130.4339900999912,130.4339900999912,23,0,,,130.4339900999912,130.6361493000295,1000,130.6361493000295,1000,1000,1000,1000,1,num_2,0.34546809998573735,,22,9,2026-03-04_11h24.13.417,2026A_exp2,2022.2.4,59.893078884177484,
0,0,0.0,3.7,0,0,32,32,47,,,,,131.00134610000532,131.6519797000219,131.6519797000219,132.15313460002653,315,45,132.15313460002653,132.15313460002653,132.15313460002653,132.15313460002653,132.15313460002653,132.15313460002653,132.15313460002653,132.15313460002653,132.15313460002653,132.51945100002922,132.51945100002922,132.51945100002922,132.51945100002922,132.51945100002922,132.51945100002922,132.51945100002922,132.51945100002922,132.51945100002922,23,0,,,132.51945100002922,132.71970670000883,3.7,132.71970670000883,1,3.7,1,1,1000,num_4,1.3587308999849483,,22,9,2026-03-04_11h24.13.417,2026A_exp2,2022.2.4,59.893078884177484,
1000,1,0.0,4.9,1,0,33,33,55,,,,,134.1044385000132,134.75523539999267,134.75523539999267,135.2405362999998,315,315,135.2405362999998,135.2405362999998,135.2405362999998,135.2405362999998,135.2405362999998,135.2405362999998,135.2405362999998,135.2405362999998,135.2405362999998,135.6059585000039,135.6059585000039,135.6059585000039,135.6059585000039,135.6059585000039,135.6059585000039,135.6059585000039,135.6059585000039,135.6059585000039,23,0,,,135.6059585000039,135.81457180000143,1000,135.81457180000143,1000,1000,1000,1000,1,num_2,0.5199961999896914,,22,9,2026-03-04_11h24.13.417,2026A_exp2,2022.2.4,59.893078884177484,
1,0,4.9,3.7,0,0,34,34,63,,,,,136.35661290003918,137.00745050003752,137.00745050003752,137.50854760000948,315,315,137.50854760000948,137.50854760000948,137.50854760000948,137.50854760000948,137.50854760000948,137.50854760000948,137.50854760000948,137.50854760000948,137.50854760000948,137.8749889000319,137.8749889000319,137.8749889000319,137.8749889000319,137.8749889000319,137.8749889000319,137.8749889000319,137.8749889000319,137.8749889000319,23,0,,,137.8749889000319,138.07516300003044,4.9,138.07516300003044,1,4.9,1,1,1000,num_4,0.7149212000076659,,22,9,2026-03-04_11h24.13.417,2026A_exp2,2022.2.4,59.893078884177484,
1000,1,0.0,0.0,1,0,35,35,60,,,,,138.80903190001845,139.45994959998643,139.45994959998643,139.9444477999932,315,45,139.9444477999932,139.9444477999932,139.9444477999932,139.9444477999932,139.9444477999932,139.9444477999932,139.9444477999932,139.9444477999932,139.9444477999932,140.31069920002483,140.31069920002483,140.31069920002483,140.31069920002483,140.31069920002483,140.31069920002483,140.31069920002483,140.31069920002483,140.31069920002483,23,0,,,140.31069920002483,140.51276030001463,1000,140.51276030001463,1000,1000,1000,1000,1,num_2,0.33267329999944195,,22,9,2026-03-04_11h24.13.417,2026A_exp2,2022.2.4,59.893078884177484,
1,0,6.1,6.1,0,0,36,36,27,,,,,140.8613100000075,141.51195770001505,141.51195770001505,142.01285370002734,45,45,142.01285370002734,142.01285370002734,142.01285370002734,142.01285370002734,142.01285370002734,142.01285370002734,142.01285370002734,142.01285370002734,142.01285370002734,142.37944500002777,142.37944500002777,142.37944500002777,142.37944500002777,142.37944500002777,142.37944500002777,142.37944500002777,142.37944500002777,142.37944500002777,23,0,,,142.37944500002777,142.5796212000423,6.1,142.5796212000423,0,6.1,1,0,1000,num_1,0.8265031999908388,,22,9,2026-03-04_11h24.13.417,2026A_exp2,2022.2.4,59.893078884177484,
1,0,0.0,4.9,1,0,37,37,1,,,,,143.43034770002123,144.08113700000104,144.08113700000104,144.5905083999969,315,45,144.5905083999969,144.5905083999969,144.5905083999969,144.5905083999969,144.5905083999969,144.5905083999969,144.5905083999969,144.5905083999969,144.5905083999969,144.94871299999068,144.94871299999068,144.94871299999068,144.94871299999068,144.94871299999068,144.94871299999068,144.94871299999068,144.94871299999068,144.94871299999068,23,0,,,144.94871299999068,145.14880249998532,4.9,145.14880249998532,1,4.9,1,1,1000,num_4,0.9457199000171386,,22,9,2026-03-04_11h24.13.417,2026A_exp2,2022.2.4,59.893078884177484,
1000,1,0.0,4.9,1,0,38,38,78,,,,,146.116402500018,146.7672520999913,146.7672520999913,147.2513418000308,45,45,147.2513418000308,147.2513418000308,147.2513418000308,147.2513418000308,147.2513418000308,147.2513418000308,147.2513418000308,147.2513418000308,147.2513418000308,147.61816870002076,147.61816870002076,147.61816870002076,147.61816870002076,147.61816870002076,147.61816870002076,147.61816870002076,147.61816870002076,147.61816870002076,23,0,,,147.61816870002076,147.820160400006,1000,147.820160400006,1000,1000,1000,1000,1,num_2,0.513987599988468,,22,9,2026-03-04_11h24.13.417,2026A_exp2,2022.2.4,59.893078884177484,
0,0,0.0,0.0,1,0,39,39,38,,,,,148.35200330003863,149.00260609999532,149.00260609999532,149.51870200003032,45,45,149.51870200003032,149.51870200003032,149.51870200003032,149.51870200003032,149.51870200003032,149.51870200003032,149.51870200003032,149.51870200003032,149.51870200003032,149.85361540003214,149.85361540003214,149.85361540003214,149.85361540003214,149.85361540003214,149.85361540003214,149.85361540003214,149.85361540003214,149.85361540003214,22,0,,,149.85361540003214,150.05377460003365,0.0,150.07035450002877,0,0.0,0,1,1000,num_1,0.6716005000052974,,22,9,2026-03-04_11h24.13.417,2026A_exp2,2022.2.4,59.893078884177484,
1000,1,0.0,0.0,0,0,40,40,72,,,,,150.77104890003102,151.42159179999726,151.42159179999726,151.90614840004127,45,45,151.90614840004127,151.90614840004127,151.90614840004127,151.90614840004127,151.90614840004127,151.90614840004127,151.90614840004127,151.90614840004127,151.90614840004127,152.27271130000008,152.27271130000008,152.27271130000008,152.27271130000008,152.27271130000008,152.27271130000008,152.27271130000008,152.27271130000008,152.27271130000008,23,0,,,152.27271130000008,152.47489720000885,1000,152.47489720000885,1000,1000,1000,1000,1,num_2,0.5469380000140518,,22,9,2026-03-04_11h24.13.417,2026A_exp2,2022.2.4,59.893078884177484,
1,0,0.0,0.0,0,0,41,41,17,,,,,153.03989670000738,153.69079860002967,153.69079860002967,154.19200989999808,45,315,154.19200989999808,154.19200989999808,154.19200989999808,154.19200989999808,154.19200989999808,154.19200989999808,154.19200989999808,154.19200989999808,154.19200989999808,154.54160100000445,154.54160100000445,154.54160100000445,154.54160100000445,154.54160100000445,154.54160100000445,154.54160100000445,154.54160100000445,154.54160100000445,22,0,,,154.54160100000445,154.74183620000258,0.0,154.75860380002996,0,0.0,0,1,1000,num_1,0.7344091999693774,,22,9,2026-03-04_11h24.13.417,2026A_exp2,2022.2.4,59.893078884177484,
1,0,0.0,3.7,0,0,42,42,61,,,,,155.5090971000027,156.15994320000755,156.15994320000755,156.6443905000342,45,315,156.6443905000342,156.6443905000342,156.6443905000342,156.6443905000342,156.6443905000342,156.6443905000342,156.6443905000342,156.6443905000342,156.6443905000342,157.01073630002793,157.01073630002793,157.01073630002793,157.01073630002793,157.01073630002793,157.01073630002793,157.01073630002793,157.01073630002793,157.01073630002793,23,0,,,157.01073630002793,157.21087110001827,0.0,157.21087110001827,0,0.0,0,1,1000,num_1,0.5871849000104703,,22,9,2026-03-04_11h24.13.417,2026A_exp2,2022.2.4,59.893078884177484,
1000,1,0.0,0.0,0,0,43,43,37,,,,,157.82824729999993,158.47907579998719,158.47907579998719,158.96327840001322,45,315,158.96327840001322,158.96327840001322,158.96327840001322,158.96327840001322,158.96327840001322,158.96327840001322,158.96327840001322,158.96327840001322,158.96327840001322,159.32976029999554,159.32976029999554,159.32976029999554,159.32976029999554,159.32976029999554,159.32976029999554,159.32976029999554,159.32976029999554,159.32976029999554,21,1,[0.05032699997536838],[0.08356389997061342],159.32976029999554,159.53205530002015,1000,159.53205530002015,1000,1000,1000,1000,1,num_2,0.48154449998401105,,22,9,2026-03-04_11h24.13.417,2026A_exp2,2022.2.4,59.893078884177484,
1,0,4.9,4.9,0,0,44,44,84,,,,,160.0303031000076,160.68108160002157,160.68108160002157,161.1823180000065,315,315,161.1823180000065,161.1823180000065,161.1823180000065,161.1823180000065,161.1823180000065,161.1823180000065,161.1823180000065,161.1823180000065,161.1823180000065,161.5319845000049,161.5319845000049,161.5319845000049,161.5319845000049,161.5319845000049,161.5319845000049,161.5319845000049,161.5319845000049,161.5319845000049,22,0,,,161.5319845000049,161.732196500001,4.9,161.732196500001,0,4.9,1,0,1000,num_1,0.5848598000011407,,22,9,2026-03-04_11h24.13.417,2026A_exp2,2022.2.4,59.893078884177484,
1000,1,0.0,0.0,0,0,45,45,67,,,,,162.33266439998988,162.98341300000902,162.98341300000902,163.4676913000294,45,315,163.4676913000294,163.4676913000294,163.4676913000294,163.4676913000294,163.4676913000294,163.4676913000294,163.4676913000294,163.4676913000294,163.4676913000294,163.83419770002365,163.83419770002365,163.83419770002365,163.83419770002365,163.83419770002365,163.83419770002365,163.83419770002365,163.83419770002365,163.83419770002365,23,0,,,163.83419770002365,164.036809000012,1000,164.036809000012,1000,1000,1000,1000,1,num_2,0.5693703999859281,,22,9,2026-03-04_11h24.13.417,2026A_exp2,2022.2.4,59.893078884177484,
1000,1,4.9,0.0,0,0,46,46,50,,,,,164.63512120000087,165.28578090004157,165.28578090004157,165.78687300003367,315,315,165.78687300003367,165.78687300003367,165.78687300003367,165.78687300003367,165.78687300003367,165.78687300003367,165.78687300003367,165.78687300003367,165.78687300003367,166.153092499997,166.153092499997,166.153092499997,166.153092499997,166.153092499997,166.153092499997,166.153092499997,166.153092499997,166.153092499997,23,0,,,166.153092499997,166.3578606999945,1000,166.3578606999945,1000,1000,1000,1000,0,num_3,0.42453820002265275,,22,9,2026-03-04_11h24.13.417,2026A_exp2,2022.2.4,59.893078884177484,
1000,1,0.0,0.0,0,0,47,47,87,,,,,166.80377540003974,167.45459000003757,167.45459000003757,167.9555591000244,45,45,167.9555591000244,167.9555591000244,167.9555591000244,167.9555591000244,167.9555591000244,167.9555591000244,167.9555591000244,167.9555591000244,167.9555591000244,168.32191190001322,168.32191190001322,168.32191190001322,168.32191190001322,168.32191190001322,168.32191190001322,168.32191190001322,168.32191190001322,168.32191190001322,23,0,,,168.32191190001322,168.5239808000042,1000,168.5239808000042,1000,1000,1000,1000,1,num_2,0.44107920001260936,,22,9,2026-03-04_11h24.13.417,2026A_exp2,2022.2.4,59.893078884177484,
1000,1,0.0,0.0,0,0,48,48,15,,,,,168.98956020001788,169.63963440002408,169.63963440002408,170.1243656000006,45,315,170.1243656000006,170.1243656000006,170.1243656000006,170.1243656000006,170.1243656000006,170.1243656000006,170.1243656000006,170.1243656000006,170.1243656000006,170.49095639999723,170.49095639999723,170.49095639999723,170.49095639999723,170.49095639999723,170.49095639999723,170.49095639999723,170.49095639999723,170.49095639999723,23,0,,,170.49095639999723,170.69307070004288,1000,170.69307070004288,1000,1000,1000,1000,1,num_2,0.5287344999960624,,22,9,2026-03-04_11h24.13.417,2026A_exp2,2022.2.4,59.893078884177484,
0,0,0.0,0.0,0,0,49,49,70,,,,,171.24141090002377,171.8922154000029,171.8922154000029,172.39339240000118,315,315,172.39339240000118,172.39339240000118,172.39339240000118,172.39339240000118,172.39339240000118,172.39339240000118,172.39339240000118,172.39339240000118,172.39339240000118,172.7431792000425,172.7431792000425,172.7431792000425,172.7431792000425,172.7431792000425,172.7431792000425,172.7431792000425,172.7431792000425,172.7431792000425,22,0,,,172.7431792000425,172.94338380004046,0.0,172.96009930002037,1,0.0,0,0,1000,num_4,1.101540700008627,,22,9,2026-03-04_11h24.13.417,2026A_exp2,2022.2.4,59.893078884177484,
1,0,3.7,3.7,1,0,50,50,86,,,,,174.0780936999945,174.7119398000068,174.7119398000068,175.21276860003127,315,45,175.21276860003127,175.21276860003127,175.21276860003127,175.21276860003127,175.21276860003127,175.21276860003127,175.21276860003127,175.21276860003127,175.21276860003127,175.57927180000115,175.57927180000115,175.57927180000115,175.57927180000115,175.57927180000115,175.57927180000115,175.57927180000115,175.57927180000115,175.57927180000115,23,0,,,175.57927180000115,175.77960380003788,3.7,175.77960380003788,0,3.7,1,0,1000,num_1,0.6904806999955326,,22,9,2026-03-04_11h24.13.417,2026A_exp2,2022.2.4,59.893078884177484,
1000,1,0.0,0.0,0,0,51,51,36,,,,,176.4967931000283,177.14745320001384,177.14745320001384,177.6320733000175,315,45,177.6320733000175,177.6320733000175,177.6320733000175,177.6320733000175,177.6320733000175,177.6320733000175,177.6320733000175,177.6320733000175,177.6320733000175,177.99841110000852,177.99841110000852,177.99841110000852,177.99841110000852,177.99841110000852,177.99841110000852,177.99841110000852,177.99841110000852,177.99841110000852,23,0,,,177.99841110000852,178.20041940000374,1000,178.20041940000374,1000,1000,1000,1000,1,num_2,0.7656255000038072,,22,9,2026-03-04_11h24.13.417,2026A_exp2,2022.2.4,59.893078884177484,
1,0,3.7,0.0,1,0,52,52,13,,,,,178.98272259999067,179.6332623999915,179.6332623999915,180.11785800004145,315,45,180.11785800004145,180.11785800004145,180.11785800004145,180.11785800004145,180.11785800004145,180.11785800004145,180.11785800004145,180.11785800004145,180.11785800004145,180.48416170000564,180.48416170000564,180.48416170000564,180.48416170000564,180.48416170000564,180.48416170000564,180.48416170000564,180.48416170000564,180.48416170000564,23,0,,,180.48416170000564,180.68439100001706,0.0,180.68439100001706,0,0.0,0,1,1000,num_1,0.6494244000059552,,22,9,2026-03-04_11h24.13.417,2026A_exp2,2022.2.4,59.893078884177484,
1000,1,6.1,4.9,0,0,53,53,68,,,,,181.35149510001065,182.00226869998733,182.00226869998733,182.48659779998707,315,315,182.48659779998707,182.48659779998707,182.48659779998707,182.48659779998707,182.48659779998707,182.48659779998707,182.48659779998707,182.48659779998707,182.48659779998707,182.8531604000018,182.8531604000018,182.8531604000018,182.8531604000018,182.8531604000018,182.8531604000018,182.8531604000018,182.8531604000018,182.8531604000018,23,0,,,182.8531604000018,183.05557110003429,1000,183.05557110003429,1000,1000,1000,1000,1,num_2,0.6296110999537632,,22,9,2026-03-04_11h24.13.417,2026A_exp2,2022.2.4,59.893078884177484,
1000,1,6.1,4.9,0,0,54,54,49,,,,,183.70406870002626,184.35871749999933,184.35871749999933,184.8558235000237,315,45,184.8558235000237,184.8558235000237,184.8558235000237,184.8558235000237,184.8558235000237,184.8558235000237,184.8558235000237,184.8558235000237,184.8558235000237,185.2221431999933,185.2221431999933,185.2221431999933,185.2221431999933,185.2221431999933,185.2221431999933,185.2221431999933,185.2221431999933,185.2221431999933,23,0,,,185.2221431999933,185.424653700029,1000,185.424653700029,1000,1000,1000,1000,0,num_3,0.5086881999741308,,22,9,2026-03-04_11h24.13.417,2026A_exp2,2022.2.4,59.893078884177484,
1000,1,0.0,6.1,0,0,55,55,2,,,,,185.95632739999564,186.60686729999725,186.60686729999725,187.10815919999732,45,45,187.10815919999732,187.10815919999732,187.10815919999732,187.10815919999732,187.10815919999732,187.10815919999732,187.10815919999732,187.10815919999732,187.10815919999732,187.47438620001776,187.47438620001776,187.47438620001776,187.47438620001776,187.47438620001776,187.47438620001776,187.47438620001776,187.47438620001776,187.47438620001776,23,0,,,187.47438620001776,187.67657589999726,1000,187.67657589999726,1000,1000,1000,1000,1,num_2,0.4650328000425361,,22,9,2026-03-04_11h24.13.417,2026A_exp2,2022.2.4,59.893078884177484,
0,0,6.1,0.0,1,0,56,56,30,,,,,188.15845690004062,188.8093121999991,188.8093121999991,189.3103461000137,45,315,189.3103461000137,189.3103461000137,189.3103461000137,189.3103461000137,189.3103461000137,189.3103461000137,189.3103461000137,189.3103461000137,189.3103461000137,189.67662809998728,189.67662809998728,189.67662809998728,189.67662809998728,189.67662809998728,189.67662809998728,189.67662809998728,189.67662809998728,189.67662809998728,23,0,,,189.67662809998728,189.87695150001673,6.1,189.87695150001673,0,6.1,1,0,1000,num_1,0.8410217000055127,,22,9,2026-03-04_11h24.13.417,2026A_exp2,2022.2.4,59.893078884177484,
1,0,4.9,3.7,0,0,57,57,9,,,,,190.74444010003936,191.37926650000736,191.37926650000736,191.87950229999842,315,45,191.87950229999842,191.87950229999842,191.87950229999842,191.87950229999842,191.87950229999842,191.87950229999842,191.87950229999842,191.87950229999842,191.87950229999842,192.24598990002414,192.24598990002414,192.24598990002414,192.24598990002414,192.24598990002414,192.24598990002414,192.24598990002414,192.24598990002414,192.24598990002414,23,0,,,192.24598990002414,192.44608600001084,4.9,192.44608600001084,1,4.9,1,1,1000,num_4,0.5431594999972731,,22,9,2026-03-04_11h24.13.417,2026A_exp2,2022.2.4,59.893078884177484,
1,0,6.1,3.7,0,0,58,58,31,,,,,193.01335190003738,193.6640999999945,193.6640999999945,194.14854680001736,45,45,194.14854680001736,194.14854680001736,194.14854680001736,194.14854680001736,194.14854680001736,194.14854680001736,194.14854680001736,194.14854680001736,194.14854680001736,194.51480930001708,194.51480930001708,194.51480930001708,194.51480930001708,194.51480930001708,194.51480930001708,194.51480930001708,194.51480930001708,194.51480930001708,9,1,[0.0012387000024318695],[0.23390089999884367],194.51480930001708,194.71505430003162,6.1,194.71505430003162,1,6.1,1,1,1000,num_4,0.866496900038328,,22,9,2026-03-04_11h24.13.417,2026A_exp2,2022.2.4,59.893078884177484,
0,0,4.9,4.9,1,0,59,59,48,,,,,195.59921110002324,196.25004330003867,196.25004330003867,196.75117679999676,315,315,196.75117679999676,196.75117679999676,196.75117679999676,196.75117679999676,196.75117679999676,196.75117679999676,196.75117679999676,196.75117679999676,196.75117679999676,197.10073760000523,197.10073760000523,197.10073760000523,197.10073760000523,197.10073760000523,197.10073760000523,197.10073760000523,197.10073760000523,197.10073760000523,22,0,,,197.10073760000523,197.30109210003866,4.9,197.30109210003866,1,4.9,1,1,1000,num_4,0.9046092000207864,,22,9,2026-03-04_11h24.13.417,2026A_exp2,2022.2.4,59.893078884177484,
1,0,6.1,4.9,0,0,60,60,81,,,,,198.2353566000238,198.86927090003155,198.86927090003155,199.37046130001545,315,315,199.37046130001545,199.37046130001545,199.37046130001545,199.37046130001545,199.37046130001545,199.37046130001545,199.37046130001545,199.37046130001545,199.37046130001545,199.73688380001113,199.73688380001113,199.73688380001113,199.73688380001113,199.73688380001113,199.73688380001113,199.73688380001113,199.73688380001113,199.73688380001113,23,0,,,199.73688380001113,199.93711550004082,6.1,199.93711550004082,1,6.1,1,1,1000,num_4,1.2526644000317901,,22,9,2026-03-04_11h24.13.417,2026A_exp2,2022.2.4,59.893078884177484,
1,0,4.9,4.9,0,0,61,61,39,,,,,201.22165950003546,201.872307200043,201.872307200043,202.35668030002853,45,45,202.35668030002853,202.35668030002853,202.35668030002853,202.35668030002853,202.35668030002853,202.35668030002853,202.35668030002853,202.35668030002853,202.35668030002853,202.72315289999824,202.72315289999824,202.72315289999824,202.72315289999824,202.72315289999824,202.72315289999824,202.72315289999824,202.72315289999824,202.72315289999824,23,0,,,202.72315289999824,202.92331809998723,4.9,202.92331809998723,0,4.9,1,0,1000,num_1,0.7619063999736682,,22,9,2026-03-04_11h24.13.417,2026A_exp2,2022.2.4,59.893078884177484,
1,0,0.0,6.1,0,0,62,62,43,,,,,203.7073725000373,204.35818239999935,204.35818239999935,204.84241350000957,315,315,204.84241350000957,204.84241350000957,204.84241350000957,204.84241350000957,204.84241350000957,204.84241350000957,204.84241350000957,204.84241350000957,204.84241350000957,205.20894049998606,205.20894049998606,205.20894049998606,205.20894049998606,205.20894049998606,205.20894049998606,205.20894049998606,205.20894049998606,205.20894049998606,23,0,,,205.20894049998606,205.4090890000225,0.0,205.4090890000225,0,0.0,0,1,1000,num_1,0.5010077999904752,,22,9,2026-03-04_11h24.13.417,2026A_exp2,2022.2.4,59.893078884177484,
1000,1,0.0,4.9,1,0,63,63,79,,,,,205.92623099999037,206.5770452999859,206.5770452999859,207.0613435000414,315,315,207.0613435000414,207.0613435000414,207.0613435000414,207.0613435000414,207.0613435000414,207.0613435000414,207.0613435000414,207.0613435000414,207.0613435000414,207.4278515999904,207.4278515999904,207.4278515999904,207.4278515999904,207.4278515999904,207.4278515999904,207.4278515999904,207.4278515999904,207.4278515999904,23,0,,,207.4278515999904,207.63043650001055,1000,207.63043650001055,1000,1000,1000,1000,1,num_2,0.6153928000130691,,22,9,2026-03-04_11h24.13.417,2026A_exp2,2022.2.4,59.893078884177484,
1,0,0.0,6.1,0,0,64,64,82,,,,,208.26188800000818,208.91268320003292,208.91268320003292,209.41368920000969,315,45,209.41368920000969,209.41368920000969,209.41368920000969,209.41368920000969,209.41368920000969,209.41368920000969,209.41368920000969,209.41368920000969,209.41368920000969,209.78025330003584,209.78025330003584,209.78025330003584,209.78025330003584,209.78025330003584,209.78025330003584,209.78025330003584,209.78025330003584,209.78025330003584,17,1,[0.0009477999992668629],[0.08397129998775199],209.78025330003584,209.9804641000228,0.0,209.9804641000228,0,0.0,0,1,1000,num_1,0.5930965000297874,,22,9,2026-03-04_11h24.13.417,2026A_exp2,2022.2.4,59.893078884177484,
1000,1,3.7,4.9,0,0,65,65,64,,,,,210.5976195000112,211.23153690004256,211.23153690004256,211.73279899999034,45,45,211.73279899999034,211.73279899999034,211.73279899999034,211.73279899999034,211.73279899999034,211.73279899999034,211.73279899999034,211.73279899999034,211.73279899999034,212.09902120003244,212.09902120003244,212.09902120003244,212.09902120003244,212.09902120003244,212.09902120003244,212.09902120003244,212.09902120003244,212.09902120003244,23,0,,,212.09902120003244,212.30124170001363,1000,212.30124170001363,1000,1000,1000,1000,1,num_2,0.5841089999885298,,22,9,2026-03-04_11h24.13.417,2026A_exp2,2022.2.4,59.893078884177484,
1000,1,3.7,0.0,1,0,66,66,54,,,,,212.91652880003676,213.5673263000208,213.5673263000208,214.06847130000824,45,45,214.06847130000824,214.06847130000824,214.06847130000824,214.06847130000824,214.06847130000824,214.06847130000824,214.06847130000824,214.06847130000824,214.06847130000824,214.4181708000251,214.4181708000251,214.4181708000251,214.4181708000251,214.4181708000251,214.4181708000251,214.4181708000251,214.4181708000251,214.4181708000251,22,0,,,214.4181708000251,214.62031820003176,1000,214.62031820003176,1000,1000,1000,1000,0,num_3,0.4262716999510303,,22,9,2026-03-04_11h24.13.417,2026A_exp2,2022.2.4,59.893078884177484,
0,0,6.1,6.1,0,0,67,67,42,,,,,215.06886579998536,215.71949700004188,215.71949700004188,216.2039630000363,45,45,216.2039630000363,216.2039630000363,216.2039630000363,216.2039630000363,216.2039630000363,216.2039630000363,216.2039630000363,216.2039630000363,216.2039630000363,216.57025260000955,216.57025260000955,216.57025260000955,216.57025260000955,216.57025260000955,216.57025260000955,216.57025260000955,216.57025260000955,216.57025260000955,23,0,,,216.57025260000955,216.77053219999652,6.1,216.77053219999652,0,6.1,1,0,1000,num_1,0.8186245000106283,,22,9,2026-03-04_11h24.13.417,2026A_exp2,2022.2.4,59.893078884177484,
1000,1,0.0,6.1,0,0,68,68,58,,,,,217.62144270003773,218.27205860003596,218.27205860003596,218.75645789998816,45,315,218.75645789998816,218.75645789998816,218.75645789998816,218.75645789998816,218.75645789998816,218.75645789998816,218.75645789998816,218.75645789998816,218.75645789998816,219.1229042999912,219.1229042999912,219.1229042999912,219.1229042999912,219.1229042999912,219.1229042999912,219.1229042999912,219.1229042999912,219.1229042999912,23,0,,,219.1229042999912,219.32321070000762,1000,219.32321070000762,1000,1000,1000,1000,1,num_2,0.6907118000090122,,22,9,2026-03-04_11h24.13.417,2026A_exp2,2022.2.4,59.893078884177484,
1000,1,6.1,0.0,0,0,69,69,59,,,,,220.04042010003468,220.6910399000044,220.6910399000044,221.19220530003076,45,315,221.19220530003076,221.19220530003076,221.19220530003076,221.19220530003076,221.19220530003076,221.19220530003076,221.19220530003076,221.19220530003076,221.19220530003076,221.5586295000394,221.5586295000394,221.5586295000394,221.5586295000394,221.5586295000394,221.5586295000394,221.5586295000394,221.5586295000394,221.5586295000394,23,0,,,221.5586295000394,221.75894010002958,1000,221.75894010002958,1000,1000,1000,1000,0,num_3,0.6069438999984413,,22,9,2026-03-04_11h24.13.417,2026A_exp2,2022.2.4,59.893078884177484,
1,0,4.9,3.7,1,0,70,70,10,,,,,222.39272340002935,223.04332050000085,223.04332050000085,223.54463190003298,315,45,223.54463190003298,223.54463190003298,223.54463190003298,223.54463190003298,223.54463190003298,223.54463190003298,223.54463190003298,223.54463190003298,223.54463190003298,223.910803100036,223.910803100036,223.910803100036,223.910803100036,223.910803100036,223.910803100036,223.910803100036,223.910803100036,223.910803100036,23,0,,,223.910803100036,224.11128660000395,3.7,224.11128660000395,1,3.7,1,1,1000,num_4,0.7821409000316635,,22,9,2026-03-04_11h24.13.417,2026A_exp2,2022.2.4,59.893078884177484,
1,0,0.0,0.0,0,0,71,71,44,,,,,224.91178100003162,225.56264449999435,225.56264449999435,226.04718659998616,315,45,226.04718659998616,226.04718659998616,226.04718659998616,226.04718659998616,226.04718659998616,226.04718659998616,226.04718659998616,226.04718659998616,226.04718659998616,226.41350640001474,226.41350640001474,226.41350640001474,226.41350640001474,226.41350640001474,226.41350640001474,226.41350640001474,226.41350640001474,226.41350640001474,23,0,,,226.41350640001474,226.61374390003039,0.0,226.61374390003039,1,0.0,0,0,1000,num_4,1.7519474000437185,,22,9,2026-03-04_11h24.13.417,2026A_exp2,2022.2.4,59.893078884177484,
1,0,3.7,0.0,1,0,72,72,28,,,,,228.38392430002568,229.03439879999496,229.03439879999496,229.5335679000127,45,45,229.5335679000127,229.5335679000127,229.5335679000127,229.5335679000127,229.5335679000127,229.5335679000127,229.5335679000127,229.5335679000127,229.5335679000127,229.90021769999294,229.90021769999294,229.90021769999294,229.90021769999294,229.90021769999294,229.90021769999294,229.90021769999294,229.90021769999294,229.90021769999294,23,0,,,229.90021769999294,230.100150400016,0.0,230.100150400016,1,0.0,0,0,1000,num_4,0.6410941999638453,,22,9,2026-03-04_11h24.13.417,2026A_exp2,2022.2.4,59.893078884177484,
1000,1,3.7,4.9,0,0,73,73,80,,,,,230.76771310000913,231.41851460002363,231.41851460002363,231.9029520000331,315,315,231.9029520000331,231.9029520000331,231.9029520000331,231.9029520000331,231.9029520000331,231.9029520000331,231.9029520000331,231.9029520000331,231.9029520000331,232.26946909999242,232.26946909999242,232.26946909999242,232.26946909999242,232.26946909999242,232.26946909999242,232.26946909999242,232.26946909999242,232.26946909999242,23,0,,,232.26946909999242,232.47120830003405,1000,232.47120830003405,1000,1000,1000,1000,1,num_2,0.43002999998861924,,22,9,2026-03-04_11h24.13.417,2026A_exp2,2022.2.4,59.893078884177484,
1000,1,0.0,0.0,1,0,74,74,40,,,,,232.91986890003318,233.57063120004022,233.57063120004022,234.0717826000182,315,45,234.0717826000182,234.0717826000182,234.0717826000182,234.0717826000182,234.0717826000182,234.0717826000182,234.0717826000182,234.0717826000182,234.0717826000182,234.4382415,234.4382415,234.4382415,234.4382415,234.4382415,234.4382415,234.4382415,234.4382415,234.4382415,23,0,,,234.4382415,234.64005799998995,1000,234.64005799998995,1000,1000,1000,1000,1,num_2,0.5654113999917172,,22,9,2026-03-04_11h24.13.417,2026A_exp2,2022.2.4,59.893078884177484,
1000,1,0.0,6.1,0,0,75,75,35,,,,,235.2222185000428,235.87291450001067,235.87291450001067,236.37376310001127,315,315,236.37376310001127,236.37376310001127,236.37376310001127,236.37376310001127,236.37376310001127,236.37376310001127,236.37376310001127,236.37376310001127,236.37376310001127,236.7404406000278,236.7404406000278,236.7404406000278,236.7404406000278,236.7404406000278,236.7404406000278,236.7404406000278,236.7404406000278,236.7404406000278,23,0,,,236.7404406000278,236.94230370002333,1000,236.94230370002333,1000,1000,1000,1000,1,num_2,0.3836104999645613,,22,9,2026-03-04_11h24.13.417,2026A_exp2,2022.2.4,59.893078884177484,
1000,1,6.1,3.7,0,0,76,76,18,,,,,237.34097170003224,237.99164480000036,237.99164480000036,238.49294080003165,45,315,238.49294080003165,238.49294080003165,238.49294080003165,238.49294080003165,238.49294080003165,238.49294080003165,238.49294080003165,238.49294080003165,238.49294080003165,238.85933629999636,238.85933629999636,238.85933629999636,238.85933629999636,238.85933629999636,238.85933629999636,238.85933629999636,238.85933629999636,238.85933629999636,23,0,,,238.85933629999636,239.06184919999214,1000,239.06184919999214,1000,1000,1000,1000,1,num_2,0.5680424000020139,,22,9,2026-03-04_11h24.13.417,2026A_exp2,2022.2.4,59.893078884177484,
1000,1,0.0,6.1,0,0,77,77,75,,,,,239.6601185000036,240.3107515000156,240.3107515000156,240.81187740003224,45,45,240.81187740003224,240.81187740003224,240.81187740003224,240.81187740003224,240.81187740003224,240.81187740003224,240.81187740003224,240.81187740003224,240.81187740003224,241.1615454000421,241.1615454000421,241.1615454000421,241.1615454000421,241.1615454000421,241.1615454000421,241.1615454000421,241.1615454000421,241.1615454000421,22,0,,,241.1615454000421,241.3634030999965,1000,241.37837670004228,1000,1000,1000,1000,1,num_2,0.38702840002952144,,22,9,2026-03-04_11h24.13.417,2026A_exp2,2022.2.4,59.893078884177484,
1,0,0.0,0.0,0,0,78,78,51,,,,,241.79551339999307,242.44604270003038,242.44604270003038,242.94730970001547,315,315,242.94730970001547,242.94730970001547,242.94730970001547,242.94730970001547,242.94730970001547,242.94730970001547,242.94730970001547,242.94730970001547,242.94730970001547,243.31363620003685,243.31363620003685,243.31363620003685,243.31363620003685,243.31363620003685,243.31363620003685,243.31363620003685,243.31363620003685,243.31363620003685,23,0,,,243.31363620003685,243.51413120003417,0.0,243.51413120003417,1,0.0,0,0,1000,num_4,1.2599490999709815,,22,9,2026-03-04_11h24.13.417,2026A_exp2,2022.2.4,59.893078884177484,
1,0,3.7,0.0,0,0,79,79,8,,,,,244.79843550000805,245.449290700024,245.449290700024,245.93367410002975,315,45,245.93367410002975,245.93367410002975,245.93367410002975,245.93367410002975,245.93367410002975,245.93367410002975,245.93367410002975,245.93367410002975,245.93367410002975,246.29990809998708,246.29990809998708,246.29990809998708,246.29990809998708,246.29990809998708,246.29990809998708,246.29990809998708,246.29990809998708,246.29990809998708,23,0,,,246.29990809998708,246.50015430001076,3.7,246.50015430001076,1,3.7,1,1,1000,num_4,0.7772633000276983,,22,9,2026-03-04_11h24.13.417,2026A_exp2,2022.2.4,59.893078884177484,
1,0,0.0,0.0,1,0,80,80,41,,,,,247.30110430001514,247.95332690002397,247.95332690002397,248.4412755999947,315,45,248.4412755999947,248.4412755999947,248.4412755999947,248.4412755999947,248.4412755999947,248.4412755999947,248.4412755999947,248.4412755999947,248.4412755999947,248.8027639000211,248.8027639000211,248.8027639000211,248.8027639000211,248.8027639000211,248.8027639000211,248.8027639000211,248.8027639000211,248.8027639000211,23,0,,,248.8027639000211,249.0026331000263,0.0,249.0026331000263,0,0.0,0,1,1000,num_1,1.3633174000424333,,22,9,2026-03-04_11h24.13.417,2026A_exp2,2022.2.4,59.893078884177484,
1000,1,3.7,4.9,1,0,81,81,20,,,,,250.38750020001316,251.0381303000031,251.0381303000031,251.53940370003693,315,315,251.53940370003693,251.53940370003693,251.53940370003693,251.53940370003693,251.53940370003693,251.53940370003693,251.53940370003693,251.53940370003693,251.53940370003693,251.90560540003935,251.90560540003935,251.90560540003935,251.90560540003935,251.90560540003935,251.90560540003935,251.90560540003935,251.90560540003935,251.90560540003935,23,0,,,251.90560540003935,252.1074814000167,1000,252.1074814000167,1000,1000,1000,1000,1,num_2,0.5144583999644965,,22,9,2026-03-04_11h24.13.417,2026A_exp2,2022.2.4,59.893078884177484,
1000,1,6.1,0.0,0,0,82,82,89,,,,,252.63957160001155,253.2904107000213,253.2904107000213,253.79138619999867,45,45,253.79138619999867,253.79138619999867,253.79138619999867,253.79138619999867,253.79138619999867,253.79138619999867,253.79138619999867,253.79138619999867,253.79138619999867,254.15797850000672,254.15797850000672,254.15797850000672,254.15797850000672,254.15797850000672,254.15797850000672,254.15797850000672,254.15797850000672,254.15797850000672,23,0,,,254.15797850000672,254.35969060001662,1000,254.35969060001662,1000,1000,1000,1000,1,num_2,0.40623219998087734,,22,9,2026-03-04_11h24.13.417,2026A_exp2,2022.2.4,59.893078884177484,
1,0,4.9,3.7,1,0,83,83,26,,,,,254.79171670001233,255.4424492000253,255.4424492000253,255.9436647000257,315,315,255.9436647000257,255.9436647000257,255.9436647000257,255.9436647000257,255.9436647000257,255.9436647000257,255.9436647000257,255.9436647000257,255.9436647000257,256.29333499999484,256.29333499999484,256.29333499999484,256.29333499999484,256.29333499999484,256.29333499999484,256.29333499999484,256.29333499999484,256.29333499999484,22,0,,,256.29333499999484,256.4937482000096,3.7,256.5104857000406,0,3.7,1,0,1000,num_1,0.9918958999915048,,22,9,2026-03-04_11h24.13.417,2026A_exp2,2022.2.4,59.893078884177484,
1000,1,0.0,6.1,1,0,84,84,52,,,,,257.5277933999896,258.1785735000158,258.1785735000158,258.66302129998803,315,45,258.66302129998803,258.66302129998803,258.66302129998803,258.66302129998803,258.66302129998803,258.66302129998803,258.66302129998803,258.66302129998803,258.66302129998803,259.0294245000114,259.0294245000114,259.0294245000114,259.0294245000114,259.0294245000114,259.0294245000114,259.0294245000114,259.0294245000114,259.0294245000114,23,0,,,259.0294245000114,259.24607890000334,1000,259.24607890000334,1000,1000,1000,1000,1,num_2,0.4149918000330217,,22,9,2026-03-04_11h24.13.417,2026A_exp2,2022.2.4,59.893078884177484,
1000,1,0.0,0.0,0,0,85,85,6,,,,,259.68028170004254,260.33065060002264,260.33065060002264,260.8151582000428,315,45,260.8151582000428,260.8151582000428,260.8151582000428,260.8151582000428,260.8151582000428,260.8151582000428,260.8151582000428,260.8151582000428,260.8151582000428,261.18159570003627,261.18159570003627,261.18159570003627,261.18159570003627,261.18159570003627,261.18159570003627,261.18159570003627,261.18159570003627,261.18159570003627,23,0,,,261.18159570003627,261.3834262000164,1000,261.3834262000164,1000,1000,1000,1000,1,num_2,0.4709059000015259,,22,9,2026-03-04_11h24.13.417,2026A_exp2,2022.2.4,59.893078884177484,
0,0,0.0,3.7,0,0,86,86,83,,,,,261.8821836000425,262.5330543000018,262.5330543000018,263.03416810004273,315,315,263.03416810004273,263.03416810004273,263.03416810004273,263.03416810004273,263.03416810004273,263.03416810004273,263.03416810004273,263.03416810004273,263.03416810004273,263.4005996999913,263.4005996999913,263.4005996999913,263.4005996999913,263.4005996999913,263.4005996999913,263.4005996999913,263.4005996999913,263.4005996999913,23,0,,,263.4005996999913,263.6007009000168,3.7,263.6007009000168,1,3.7,1,1,1000,num_4,0.9571851000073366,,22,9,2026-03-04_11h24.13.417,2026A_exp2,2022.2.4,59.893078884177484,
1000,1,0.0,0.0,1,0,87,87,23,,,,,264.58481940004276,265.2188675000216,265.2188675000216,265.7201375000295,45,45,265.7201375000295,265.7201375000295,265.7201375000295,265.7201375000295,265.7201375000295,265.7201375000295,265.7201375000295,265.7201375000295,265.7201375000295,266.08643960003974,266.08643960003974,266.08643960003974,266.08643960003974,266.08643960003974,266.08643960003974,266.08643960003974,266.08643960003974,266.08643960003974,23,0,,,266.08643960003974,266.28839900001185,1000,266.28839900001185,1000,1000,1000,1000,1,num_2,0.46150529995793477,,22,9,2026-03-04_11h24.13.417,2026A_exp2,2022.2.4,59.893078884177484,
1000,1,3.7,0.0,0,0,88,88,32,,,,,266.7704229000374,267.4212188000092,267.4212188000092,267.92223110003397,315,315,267.92223110003397,267.92223110003397,267.92223110003397,267.92223110003397,267.92223110003397,267.92223110003397,267.92223110003397,267.92223110003397,267.92223110003397,268.2719514000346,268.2719514000346,268.2719514000346,268.2719514000346,268.2719514000346,268.2719514000346,268.2719514000346,268.2719514000346,268.2719514000346,22,0,,,268.2719514000346,268.4741778000025,1000,268.488900700002,1000,1000,1000,1000,0,num_3,0.4364992000046186,,22,9,2026-03-04_11h24.13.417,2026A_exp2,2022.2.4,59.893078884177484,
1,0,0.0,0.0,1,0,89,89,21,,,,,268.95603709999705,269.6062566000037,269.6062566000037,270.1078212999855,45,45,270.1078212999855,270.1078212999855,270.1078212999855,270.1078212999855,270.1078212999855,270.1078212999855,270.1078212999855,270.1078212999855,270.1078212999855,270.47425369999837,270.47425369999837,270.47425369999837,270.47425369999837,270.47425369999837,270.47425369999837,270.47425369999837,270.47425369999837,270.47425369999837,23,0,,,270.47425369999837,270.67452040000353,0.0,270.67452040000353,1,0.0,0,0,1000,num_4,0.7390365000464953,,22,9,2026-03-04_11h24.13.417,2026A_exp2,2022.2.4,59.893078884177484,
,,,,,,,,,,,,,,,,,,,,,,,,,,,,,,,,,,,,,,,,,,,,,,,,,,,,271.4662711000419,,,,,,,
