validity,detectorcomp,contrastCW,contrastCCW,precueCWorCCW,block_80trials.thisRepN,block_80trials.thisTrialN,block_80trials.thisN,block_80trials.thisIndex,etRecord.started,etRecord.stopped,text.started,text.stopped,text_4.started,text_4.stopped,text_6.started,text_6.stopped,oriCW,oriCCW,roi_2.started,grating_UR.started,grating_UL.started,grating_LR.started,grating_LL.started,noise_UR.started,noise_UL.started,noise_LR.started,noise_LL.started,roi_2.stopped,grating_UR.stopped,grating_UL.stopped,grating_LR.stopped,grating_LL.stopped,noise_UR.stopped,noise_UL.stopped,noise_LR.stopped,noise_LL.stopped,outframe,roi_2.numLooks,roi_2.timesOn,roi_2.timesOff,text_2.started,text_2.stopped,probedcontrast,key_resp.started,respdetect,relevantContrast,correctDetect,TorFdetect,respCWorCCW,key_resp.keys,key_resp.rt,feedback_display_.started,participantNo,blockNo,date,expName,psychopyVersion,frameRate,
0,0,4.9,0.0,0,0,0,0,40,3.419979475438595e-05,3.419979475438595e-05,47.35244069993496,49.35517159989104,49.35517159989104,49.98931899992749,49.98931899992749,50.51221659989096,45,45,50.51221659989096,50.51221659989096,50.51221659989096,50.51221659989096,50.51221659989096,50.51221659989096,50.51221659989096,50.51221659989096,50.51221659989096,50.85700299986638,50.85700299986638,50.85700299986638,50.85700299986638,50.85700299986638,50.85700299986638,50.85700299986638,50.85700299986638,50.85700299986638,0,1,[0.0009506000205874443],[0.368007899960503],50.85700299986638,51.057222299976274,0.0,51.057222299976274,0,0.0,0,1,1000,num_1,1.2899298998527229,,30,13,2026-03-12_11h18.20.017,2026A_exp2,2022.2.4,59.720959776331384,
1000,1,6.1,3.7,1,0,1,1,11,,,,,52.37654159986414,53.035102599998936,53.035102599998936,53.52718079998158,315,315,53.52718079998158,53.52718079998158,53.52718079998158,53.52718079998158,53.52718079998158,53.52718079998158,53.52718079998158,53.52718079998158,53.52718079998158,53.89307680004276,53.89307680004276,53.89307680004276,53.89307680004276,53.89307680004276,53.89307680004276,53.89307680004276,53.89307680004276,53.89307680004276,0,1,[0.0012461000587791204],[0.36639930005185306],53.89307680004276,54.093296200037,1000,54.093296200037,1000,1000,1000,1000,0,num_3,0.45378370000980794,,30,13,2026-03-12_11h18.20.017,2026A_exp2,2022.2.4,59.720959776331384,
1,0,0.0,0.0,0,0,2,2,80,,,,,54.57717099995352,55.2113983000163,55.2113983000163,55.71233749995008,45,45,55.71233749995008,55.71233749995008,55.71233749995008,55.71233749995008,55.71233749995008,55.71233749995008,55.71233749995008,55.71233749995008,55.71233749995008,56.07894019992091,56.07894019992091,56.07894019992091,56.07894019992091,56.07894019992091,56.07894019992091,56.07894019992091,56.07894019992091,56.07894019992091,0,1,[0.001295100199058652],[0.3671141001395881],56.07894019992091,56.27915639989078,0.0,56.27915639989078,0,0.0,0,1,1000,num_1,0.3881544000469148,,30,13,2026-03-12_11h18.20.017,2026A_exp2,2022.2.4,59.720959776331384,
1,0,0.0,4.9,0,0,3,3,32,,,,,56.69625829998404,57.34686849988066,57.34686849988066,57.83133539999835,315,315,57.83133539999835,57.83133539999835,57.83133539999835,57.83133539999835,57.83133539999835,57.83133539999835,57.83133539999835,57.83133539999835,57.83133539999835,58.19776039989665,58.19776039989665,58.19776039989665,58.19776039989665,58.19776039989665,58.19776039989665,58.19776039989665,58.19776039989665,58.19776039989665,0,1,[0.0012797999661415815],[0.3671883000060916],58.19776039989665,58.397879200056195,0.0,58.397879200056195,0,0.0,0,1,1000,num_1,0.5655403002165258,,30,13,2026-03-12_11h18.20.017,2026A_exp2,2022.2.4,59.720959776331384,
1,0,0.0,4.9,1,0,4,4,54,,,,,58.98185670003295,59.6324948000256,59.6324948000256,60.11696589994244,315,45,60.11696589994244,60.11696589994244,60.11696589994244,60.11696589994244,60.11696589994244,60.11696589994244,60.11696589994244,60.11696589994244,60.11696589994244,60.48332910006866,60.48332910006866,60.48332910006866,60.48332910006866,60.48332910006866,60.48332910006866,60.48332910006866,60.48332910006866,60.48332910006866,0,1,[0.0012837001122534275],[0.3671697999816388],60.48332910006866,60.68355399998836,4.9,60.68355399998836,1,4.9,1,1,1000,num_4,0.45549659989774227,,30,13,2026-03-12_11h18.20.017,2026A_exp2,2022.2.4,59.720959776331384,
1000,1,0.0,6.1,0,0,5,5,16,,,,,61.16754829999991,61.818013299955055,61.818013299955055,62.30210019997321,45,45,62.30210019997321,62.30210019997321,62.30210019997321,62.30210019997321,62.30210019997321,62.30210019997321,62.30210019997321,62.30210019997321,62.30210019997321,62.66888100001961,62.66888100001961,62.66888100001961,62.66888100001961,62.66888100001961,62.66888100001961,62.66888100001961,62.66888100001961,62.66888100001961,0,1,[0.0013818000443279743],[0.3673723000101745],62.66888100001961,62.8712146000471,1000,62.8712146000471,1000,1000,1000,1000,1,num_2,0.692712299991399,,30,13,2026-03-12_11h18.20.017,2026A_exp2,2022.2.4,59.720959776331384,
1000,1,0.0,6.1,1,0,6,6,13,,,,,63.58632400003262,64.2372491999995,64.2372491999995,64.73799870000221,315,315,64.73799870000221,64.73799870000221,64.73799870000221,64.73799870000221,64.73799870000221,64.73799870000221,64.73799870000221,64.73799870000221,64.73799870000221,65.08787230006419,65.08787230006419,65.08787230006419,65.08787230006419,65.08787230006419,65.08787230006419,65.08787230006419,65.08787230006419,65.08787230006419,5,2,"[0.06691850000061095, 0.10063189989887178]","[0.08374419994652271, 0.350962599972263]",65.08787230006419,65.29030729993246,1000,65.30484879994765,1000,1000,1000,1000,1,num_2,0.42621179996058345,,30,13,2026-03-12_11h18.20.017,2026A_exp2,2022.2.4,59.720959776331384,
1,0,0.0,0.0,1,0,7,7,31,,,,,65.75531449983828,66.40586009994149,66.40586009994149,66.9070663000457,45,45,66.9070663000457,66.9070663000457,66.9070663000457,66.9070663000457,66.9070663000457,66.9070663000457,66.9070663000457,66.9070663000457,66.9070663000457,67.25664240005426,67.25664240005426,67.25664240005426,67.25664240005426,67.25664240005426,67.25664240005426,67.25664240005426,67.25664240005426,67.25664240005426,0,1,[0.0012604000512510538],[0.35049089998938143],67.25664240005426,67.45697599998675,0.0,67.45697599998675,0,0.0,0,1,1000,num_1,1.5227981000207365,,30,13,2026-03-12_11h18.20.017,2026A_exp2,2022.2.4,59.720959776331384,
1000,1,6.1,0.0,0,0,8,8,58,,,,,69.00850140000694,69.6426339999307,69.6426339999307,70.14347500004806,45,315,70.14347500004806,70.14347500004806,70.14347500004806,70.14347500004806,70.14347500004806,70.14347500004806,70.14347500004806,70.14347500004806,70.14347500004806,70.50998350000009,70.50998350000009,70.50998350000009,70.50998350000009,70.50998350000009,70.50998350000009,70.50998350000009,70.50998350000009,70.50998350000009,0,1,[0.0013150000013411045],[0.3671411999966949],70.50998350000009,70.71201719995588,1000,70.71201719995588,1000,1000,1000,1000,0,num_3,0.5629874002188444,,30,13,2026-03-12_11h18.20.017,2026A_exp2,2022.2.4,59.720959776331384,
1000,1,0.0,0.0,1,0,9,9,29,,,,,71.29406729992479,71.94465279998258,71.94465279998258,72.44607099983841,315,45,72.44607099983841,72.44607099983841,72.44607099983841,72.44607099983841,72.44607099983841,72.44607099983841,72.44607099983841,72.44607099983841,72.44607099983841,72.8123736998532,72.8123736998532,72.8123736998532,72.8123736998532,72.8123736998532,72.8123736998532,72.8123736998532,72.8123736998532,72.8123736998532,0,1,[0.0006941000465303659],[0.36740810004994273],72.8123736998532,73.01495860004798,1000,73.01495860004798,1000,1000,1000,1000,1,num_2,0.6445734999142587,,30,13,2026-03-12_11h18.20.017,2026A_exp2,2022.2.4,59.720959776331384,
1000,1,3.7,6.1,0,0,10,10,60,,,,,73.67972119990736,74.33051349991001,74.33051349991001,74.83155060000718,315,315,74.83155060000718,74.83155060000718,74.83155060000718,74.83155060000718,74.83155060000718,74.83155060000718,74.83155060000718,74.83155060000718,74.83155060000718,75.19807489984669,75.19807489984669,75.19807489984669,75.19807489984669,75.19807489984669,75.19807489984669,75.19807489984669,75.19807489984669,75.19807489984669,0,1,[0.0008245999924838543],[0.3675671999808401],75.19807489984669,75.40078029991128,1000,75.40078029991128,1000,1000,1000,1000,1,num_2,0.4098362000659108,,30,13,2026-03-12_11h18.20.017,2026A_exp2,2022.2.4,59.720959776331384,
1000,1,0.0,3.7,0,0,11,11,43,,,,,75.83184969983995,76.48269229987636,76.48269229987636,76.98366879997775,315,315,76.98366879997775,76.98366879997775,76.98366879997775,76.98366879997775,76.98366879997775,76.98366879997775,76.98366879997775,76.98366879997775,76.98366879997775,77.35016599996015,77.35016599996015,77.35016599996015,77.35016599996015,77.35016599996015,77.35016599996015,77.35016599996015,77.35016599996015,77.35016599996015,0,1,[0.0012428001500666142],[0.36721729999408126],77.35016599996015,77.55230059986934,1000,77.55230059986934,1000,1000,1000,1000,1,num_2,0.41124010016210377,,30,13,2026-03-12_11h18.20.017,2026A_exp2,2022.2.4,59.720959776331384,
0,0,0.0,0.0,0,0,12,12,15,,,,,77.9840383999981,78.63482109992765,78.63482109992765,79.13585109985434,45,45,79.13585109985434,79.13585109985434,79.13585109985434,79.13585109985434,79.13585109985434,79.13585109985434,79.13585109985434,79.13585109985434,79.13585109985434,79.4856866998598,79.4856866998598,79.4856866998598,79.4856866998598,79.4856866998598,79.4856866998598,79.4856866998598,79.4856866998598,79.4856866998598,0,1,[0.0013838999439030886],[0.35055759991519153],79.4856866998598,79.68589830002747,0.0,79.68589830002747,0,0.0,0,1,1000,num_1,0.25293110008351505,,30,13,2026-03-12_11h18.20.017,2026A_exp2,2022.2.4,59.720959776331384,
0,0,0.0,0.0,1,0,13,13,44,,,,,79.96936880005524,80.62015289999545,80.62015289999545,81.10437910002656,45,315,81.10437910002656,81.10437910002656,81.10437910002656,81.10437910002656,81.10437910002656,81.10437910002656,81.10437910002656,81.10437910002656,81.10437910002656,81.47103949985467,81.47103949985467,81.47103949985467,81.47103949985467,81.47103949985467,81.47103949985467,81.47103949985467,81.47103949985467,81.47103949985467,0,1,[0.0012703000102192163],[0.36673330003395677],81.47103949985467,81.67117940005846,0.0,81.67117940005846,0,0.0,0,1,1000,num_1,0.6191916998941451,,30,13,2026-03-12_11h18.20.017,2026A_exp2,2022.2.4,59.720959776331384,
1000,1,0.0,0.0,1,0,14,14,73,,,,,82.32182309986092,82.9557318999432,82.9557318999432,83.45691569987684,45,315,83.45691569987684,83.45691569987684,83.45691569987684,83.45691569987684,83.45691569987684,83.45691569987684,83.45691569987684,83.45691569987684,83.45691569987684,83.82334199990146,83.82334199990146,83.82334199990146,83.82334199990146,83.82334199990146,83.82334199990146,83.82334199990146,83.82334199990146,83.82334199990146,0,1,[0.001290000043809414],[0.3671039000619203],83.82334199990146,84.02580619999208,1000,84.02580619999208,1000,1000,1000,1000,1,num_2,0.7295794000383466,,30,13,2026-03-12_11h18.20.017,2026A_exp2,2022.2.4,59.720959776331384,
1000,1,0.0,0.0,0,0,15,15,89,,,,,84.77429619990289,85.424861199921,85.424861199921,85.90953750000335,45,45,85.90953750000335,85.90953750000335,85.90953750000335,85.90953750000335,85.90953750000335,85.90953750000335,85.90953750000335,85.90953750000335,85.90953750000335,86.27572080004029,86.27572080004029,86.27572080004029,86.27572080004029,86.27572080004029,86.27572080004029,86.27572080004029,86.27572080004029,86.27572080004029,0,1,[0.0012385000009089708],[0.36730240005999804],86.27572080004029,86.47600149991922,1000,86.47600149991922,1000,1000,1000,1000,1,num_2,0.46343979984521866,,30,13,2026-03-12_11h18.20.017,2026A_exp2,2022.2.4,59.720959776331384,
1,0,0.0,4.9,0,0,16,16,70,,,,,86.95966659998521,87.61035249987617,87.61035249987617,88.11148660001345,45,315,88.11148660001345,88.11148660001345,88.11148660001345,88.11148660001345,88.11148660001345,88.11148660001345,88.11148660001345,88.11148660001345,88.11148660001345,88.4779957998544,88.4779957998544,88.4779957998544,88.4779957998544,88.4779957998544,88.4779957998544,88.4779957998544,88.4779957998544,88.4779957998544,0,1,[0.0012797999661415815],[0.3674373999238014],88.4779957998544,88.67815189994872,0.0,88.67815189994872,0,0.0,0,1,1000,num_1,0.6051361002027988,,30,13,2026-03-12_11h18.20.017,2026A_exp2,2022.2.4,59.720959776331384,
1,0,0.0,6.1,1,0,17,17,46,,,,,89.31206569983624,89.96267240005545,89.96267240005545,90.44703599996865,315,315,90.44703599996865,90.44703599996865,90.44703599996865,90.44703599996865,90.44703599996865,90.44703599996865,90.44703599996865,90.44703599996865,90.44703599996865,90.81367399985902,90.81367399985902,90.81367399985902,90.81367399985902,90.81367399985902,90.81367399985902,90.81367399985902,90.81367399985902,90.81367399985902,8,1,[0.0007767998613417149],[0.2509474998805672],90.81367399985902,91.01388669991866,6.1,91.01388669991866,1,6.1,1,1,1000,num_4,1.0136366998776793,,30,13,2026-03-12_11h18.20.017,2026A_exp2,2022.2.4,59.720959776331384,
0,0,0.0,3.7,1,0,18,18,53,,,,,92.04808199987747,92.6986419998575,92.6986419998575,93.1833517998457,315,45,93.1833517998457,93.1833517998457,93.1833517998457,93.1833517998457,93.1833517998457,93.1833517998457,93.1833517998457,93.1833517998457,93.1833517998457,93.5497065000236,93.5497065000236,93.5497065000236,93.5497065000236,93.5497065000236,93.5497065000236,93.5497065000236,93.5497065000236,93.5497065000236,23,0,,,93.5497065000236,93.74984349985607,0.0,93.74984349985607,0,0.0,0,1,1000,num_1,0.5489825999829918,,30,13,2026-03-12_11h18.20.017,2026A_exp2,2022.2.4,59.720959776331384,
1000,1,0.0,0.0,0,0,19,19,7,,,,,94.31702159997076,94.9678213999141,94.9678213999141,95.45211109984666,315,45,95.45211109984666,95.45211109984666,95.45211109984666,95.45211109984666,95.45211109984666,95.45211109984666,95.45211109984666,95.45211109984666,95.45211109984666,95.81862280005589,95.81862280005589,95.81862280005589,95.81862280005589,95.81862280005589,95.81862280005589,95.81862280005589,95.81862280005589,95.81862280005589,6,4,"[0.0013377000577747822, 0.21697020018473268, 0.2504901001229882, 0.3505333000794053]","[0.1503777001053095, 0.23384490003809333, 0.3337311001960188, 0.3672186001203954]",95.81862280005589,96.02065650001168,1000,96.02065650001168,1000,1000,1000,1000,1,num_2,0.5739744999445975,,30,13,2026-03-12_11h18.20.017,2026A_exp2,2022.2.4,59.720959776331384,
1000,1,0.0,0.0,1,0,20,20,55,,,,,96.61930579994805,97.2700821000617,97.2700821000617,97.77116040000692,315,45,97.77116040000692,97.77116040000692,97.77116040000692,97.77116040000692,97.77116040000692,97.77116040000692,97.77116040000692,97.77116040000692,97.77116040000692,98.13758490001783,98.13758490001783,98.13758490001783,98.13758490001783,98.13758490001783,98.13758490001783,98.13758490001783,98.13758490001783,98.13758490001783,23,0,,,98.13758490001783,98.33843049989082,1000,98.33843049989082,1000,1000,1000,1000,1,num_2,0.4164650000166148,,30,13,2026-03-12_11h18.20.017,2026A_exp2,2022.2.4,59.720959776331384,
1,0,3.7,6.1,1,0,21,21,68,,,,,98.77151470002718,99.42233329988085,99.42233329988085,99.92316180001944,45,315,99.92316180001944,99.92316180001944,99.92316180001944,99.92316180001944,99.92316180001944,99.92316180001944,99.92316180001944,99.92316180001944,99.92316180001944,100.28985299984924,100.28985299984924,100.28985299984924,100.28985299984924,100.28985299984924,100.28985299984924,100.28985299984924,100.28985299984924,100.28985299984924,23,0,,,100.28985299984924,100.49009529990144,6.1,100.49009529990144,1,6.1,1,1,1000,num_4,0.5772569000255316,,30,13,2026-03-12_11h18.20.017,2026A_exp2,2022.2.4,59.720959776331384,
0,0,3.7,0.0,0,0,22,22,18,,,,,101.09051509993151,101.74126120004803,101.74126120004803,102.2258281998802,315,45,102.2258281998802,102.2258281998802,102.2258281998802,102.2258281998802,102.2258281998802,102.2258281998802,102.2258281998802,102.2258281998802,102.2258281998802,102.59227470005862,102.59227470005862,102.59227470005862,102.59227470005862,102.59227470005862,102.59227470005862,102.59227470005862,102.59227470005862,102.59227470005862,23,0,,,102.59227470005862,102.79226209991612,0.0,102.79226209991612,0,0.0,0,1,1000,num_1,0.5553511998150498,,30,13,2026-03-12_11h18.20.017,2026A_exp2,2022.2.4,59.720959776331384,
0,0,6.1,0.0,1,0,23,23,52,,,,,103.37626559985802,104.0270246998407,104.0270246998407,104.51090230001137,45,45,104.51090230001137,104.51090230001137,104.51090230001137,104.51090230001137,104.51090230001137,104.51090230001137,104.51090230001137,104.51090230001137,104.51090230001137,104.87778980005533,104.87778980005533,104.87778980005533,104.87778980005533,104.87778980005533,104.87778980005533,104.87778980005533,104.87778980005533,104.87778980005533,0,1,[0.001289099920541048],[0.36716239992529154],104.87778980005533,105.07795489998534,6.1,105.07795489998534,1,6.1,1,1,1000,num_4,0.34852030011825264,,30,13,2026-03-12_11h18.20.017,2026A_exp2,2022.2.4,59.720959776331384,
1000,1,0.0,0.0,0,0,24,24,57,,,,,105.44499309989624,106.09538369998336,106.09538369998336,106.5800441999454,315,45,106.5800441999454,106.5800441999454,106.5800441999454,106.5800441999454,106.5800441999454,106.5800441999454,106.5800441999454,106.5800441999454,106.5800441999454,106.94631249993108,106.94631249993108,106.94631249993108,106.94631249993108,106.94631249993108,106.94631249993108,106.94631249993108,106.94631249993108,106.94631249993108,0,1,[0.0012991998810321093],[0.36737130000256],106.94631249993108,107.14934700005688,1000,107.14934700005688,1000,1000,1000,1000,1,num_2,0.5585984999779612,,30,13,2026-03-12_11h18.20.017,2026A_exp2,2022.2.4,59.720959776331384,
1000,1,3.7,3.7,0,0,25,25,59,,,,,107.73044950002804,108.38126829988323,108.38126829988323,108.88225669995882,45,45,108.88225669995882,108.88225669995882,108.88225669995882,108.88225669995882,108.88225669995882,108.88225669995882,108.88225669995882,108.88225669995882,108.88225669995882,109.24850409990177,109.24850409990177,109.24850409990177,109.24850409990177,109.24850409990177,109.24850409990177,109.24850409990177,109.24850409990177,109.24850409990177,23,0,,,109.24850409990177,109.45081619988196,1000,109.45081619988196,1000,1000,1000,1000,1,num_2,0.8480644000228494,,30,13,2026-03-12_11h18.20.017,2026A_exp2,2022.2.4,59.720959776331384,
1000,1,0.0,0.0,0,0,26,26,65,,,,,110.3163984999992,110.9671481999103,110.9671481999103,111.46827759989537,315,315,111.46827759989537,111.46827759989537,111.46827759989537,111.46827759989537,111.46827759989537,111.46827759989537,111.46827759989537,111.46827759989537,111.46827759989537,111.83461420005187,111.83461420005187,111.83461420005187,111.83461420005187,111.83461420005187,111.83461420005187,111.83461420005187,111.83461420005187,111.83461420005187,23,0,,,111.83461420005187,112.03731709998101,1000,112.03731709998101,1000,1000,1000,1000,1,num_2,0.9658663999289274,,30,13,2026-03-12_11h18.20.017,2026A_exp2,2022.2.4,59.720959776331384,
1,0,0.0,4.9,0,0,27,27,14,,,,,113.01911480003037,113.66992160002701,113.66992160002701,114.17055959999561,45,45,114.17055959999561,114.17055959999561,114.17055959999561,114.17055959999561,114.17055959999561,114.17055959999561,114.17055959999561,114.17055959999561,114.17055959999561,114.53744089999236,114.53744089999236,114.53744089999236,114.53744089999236,114.53744089999236,114.53744089999236,114.53744089999236,114.53744089999236,114.53744089999236,23,0,,,114.53744089999236,114.73754299990833,0.0,114.73754299990833,0,0.0,0,1,1000,num_1,0.5942287999205291,,30,13,2026-03-12_11h18.20.017,2026A_exp2,2022.2.4,59.720959776331384,
1000,1,4.9,3.7,0,0,28,28,28,,,,,115.35474539990537,116.00556729990058,116.00556729990058,116.48990150005557,45,45,116.48990150005557,116.48990150005557,116.48990150005557,116.48990150005557,116.48990150005557,116.48990150005557,116.48990150005557,116.48990150005557,116.48990150005557,116.85627779993229,116.85627779993229,116.85627779993229,116.85627779993229,116.85627779993229,116.85627779993229,116.85627779993229,116.85627779993229,116.85627779993229,22,1,[0.10020089987665415],[0.11690669995732605],116.85627779993229,117.05895889992826,1000,117.05895889992826,1000,1000,1000,1000,0,num_3,0.5521120999474078,,30,13,2026-03-12_11h18.20.017,2026A_exp2,2022.2.4,59.720959776331384,
1000,1,0.0,0.0,0,0,29,29,64,,,,,117.64058570005,118.29113140003756,118.29113140003756,118.79224209999666,45,45,118.79224209999666,118.79224209999666,118.79224209999666,118.79224209999666,118.79224209999666,118.79224209999666,118.79224209999666,118.79224209999666,118.79224209999666,119.14214199990965,119.14214199990965,119.14214199990965,119.14214199990965,119.14214199990965,119.14214199990965,119.14214199990965,119.14214199990965,119.14214199990965,22,0,,,119.14214199990965,119.34415689995512,1000,119.34415689995512,1000,1000,1000,1000,1,num_2,0.5305888999719173,,30,13,2026-03-12_11h18.20.017,2026A_exp2,2022.2.4,59.720959776331384,
0,0,3.7,4.9,0,0,30,30,77,,,,,119.89258700003847,120.54327689995989,120.54327689995989,121.05885290005244,45,45,121.05885290005244,121.05885290005244,121.05885290005244,121.05885290005244,121.05885290005244,121.05885290005244,121.05885290005244,121.05885290005244,121.05885290005244,121.41105329990387,121.41105329990387,121.41105329990387,121.41105329990387,121.41105329990387,121.41105329990387,121.41105329990387,121.41105329990387,121.41105329990387,23,0,,,121.41105329990387,121.6110962999519,4.9,121.6110962999519,1,4.9,1,1,1000,num_4,0.5757085999939591,,30,13,2026-03-12_11h18.20.017,2026A_exp2,2022.2.4,59.720959776331384,
1,0,0.0,0.0,0,0,31,31,87,,,,,122.21163549995981,122.86224359995686,122.86224359995686,123.34673590003513,315,45,123.34673590003513,123.34673590003513,123.34673590003513,123.34673590003513,123.34673590003513,123.34673590003513,123.34673590003513,123.34673590003513,123.34673590003513,123.7132426998578,123.7132426998578,123.7132426998578,123.7132426998578,123.7132426998578,123.7132426998578,123.7132426998578,123.7132426998578,123.7132426998578,22,1,[0.001266599865630269],[0.017488199984654784],123.7132426998578,123.91342939995229,0.0,123.91342939995229,0,0.0,0,1,1000,num_1,0.7299815001897514,,30,13,2026-03-12_11h18.20.017,2026A_exp2,2022.2.4,59.720959776331384,
1000,1,0.0,3.7,0,0,32,32,76,,,,,124.66398749989457,125.31485059997067,125.31485059997067,125.79907700000331,45,45,125.79907700000331,125.79907700000331,125.79907700000331,125.79907700000331,125.79907700000331,125.79907700000331,125.79907700000331,125.79907700000331,125.79907700000331,126.16561959986575,126.16561959986575,126.16561959986575,126.16561959986575,126.16561959986575,126.16561959986575,126.16561959986575,126.16561959986575,126.16561959986575,23,0,,,126.16561959986575,126.3679255999159,1000,126.3679255999159,1000,1000,1000,1000,1,num_2,0.5793961999006569,,30,13,2026-03-12_11h18.20.017,2026A_exp2,2022.2.4,59.720959776331384,
1000,1,0.0,4.9,0,0,33,33,0,,,,,126.96633169986308,127.61714069987647,127.61714069987647,128.11828739987686,315,45,128.11828739987686,128.11828739987686,128.11828739987686,128.11828739987686,128.11828739987686,128.11828739987686,128.11828739987686,128.11828739987686,128.11828739987686,128.48464919999242,128.48464919999242,128.48464919999242,128.48464919999242,128.48464919999242,128.48464919999242,128.48464919999242,128.48464919999242,128.48464919999242,23,0,,,128.48464919999242,128.68756660004146,1000,128.68756660004146,1000,1000,1000,1000,1,num_2,0.5155275000724941,,30,13,2026-03-12_11h18.20.017,2026A_exp2,2022.2.4,59.720959776331384,
0,0,3.7,0.0,1,0,34,34,1,,,,,129.21863160002977,129.86943649989553,129.86943649989553,130.3704357999377,45,45,130.3704357999377,130.3704357999377,130.3704357999377,130.3704357999377,130.3704357999377,130.3704357999377,130.3704357999377,130.3704357999377,130.3704357999377,130.73687570006587,130.73687570006587,130.73687570006587,130.73687570006587,130.73687570006587,130.73687570006587,130.73687570006587,130.73687570006587,130.73687570006587,23,0,,,130.73687570006587,130.93702499987558,3.7,130.93702499987558,0,3.7,1,0,1000,num_1,0.5699374999385327,,30,13,2026-03-12_11h18.20.017,2026A_exp2,2022.2.4,59.720959776331384,
1000,1,3.7,0.0,0,0,35,35,35,,,,,131.53749009990133,132.18837129999883,132.18837129999883,132.6727876998484,315,45,132.6727876998484,132.6727876998484,132.6727876998484,132.6727876998484,132.6727876998484,132.6727876998484,132.6727876998484,132.6727876998484,132.6727876998484,133.03904039994814,133.03904039994814,133.03904039994814,133.03904039994814,133.03904039994814,133.03904039994814,133.03904039994814,133.03904039994814,133.03904039994814,19,1,[0.0012761999387294054],[0.06681940006092191],133.03904039994814,133.24192940001376,1000,133.24192940001376,1000,1000,1000,1000,1,num_2,0.5692269999999553,,30,13,2026-03-12_11h18.20.017,2026A_exp2,2022.2.4,59.720959776331384,
1000,1,0.0,3.7,1,0,36,36,4,,,,,133.8399038000498,134.49055500002578,134.49055500002578,134.99183289986104,315,315,134.99183289986104,134.99183289986104,134.99183289986104,134.99183289986104,134.99183289986104,134.99183289986104,134.99183289986104,134.99183289986104,134.99183289986104,135.35820969985798,135.35820969985798,135.35820969985798,135.35820969985798,135.35820969985798,135.35820969985798,135.35820969985798,135.35820969985798,135.35820969985798,23,0,,,135.35820969985798,135.5608729000669,1000,135.5608729000669,1000,1000,1000,1000,1,num_2,0.44264740007929504,,30,13,2026-03-12_11h18.20.017,2026A_exp2,2022.2.4,59.720959776331384,
0,0,6.1,0.0,1,0,37,37,25,,,,,136.02536029997282,136.67604939988814,136.67604939988814,137.17717120004818,45,45,137.17717120004818,137.17717120004818,137.17717120004818,137.17717120004818,137.17717120004818,137.17717120004818,137.17717120004818,137.17717120004818,137.17717120004818,137.54355359985493,137.54355359985493,137.54355359985493,137.54355359985493,137.54355359985493,137.54355359985493,137.54355359985493,137.54355359985493,137.54355359985493,23,0,,,137.54355359985493,137.74382360000163,6.1,137.74382360000163,1,6.1,1,1,1000,num_4,0.4830195000395179,,30,13,2026-03-12_11h18.20.017,2026A_exp2,2022.2.4,59.720959776331384,
1000,1,4.9,0.0,1,0,38,38,12,,,,,138.24421789986081,138.89496760000475,138.89496760000475,139.37951290002093,45,315,139.37951290002093,139.37951290002093,139.37951290002093,139.37951290002093,139.37951290002093,139.37951290002093,139.37951290002093,139.37951290002093,139.37951290002093,139.74592899996787,139.74592899996787,139.74592899996787,139.74592899996787,139.74592899996787,139.74592899996787,139.74592899996787,139.74592899996787,139.74592899996787,23,0,,,139.74592899996787,139.9484087000601,1000,139.9484087000601,1000,1000,1000,1000,0,num_3,0.5909933999646455,,30,13,2026-03-12_11h18.20.017,2026A_exp2,2022.2.4,59.720959776331384,
1000,1,0.0,3.7,1,0,39,39,88,,,,,140.56345009990036,141.21405449998565,141.21405449998565,141.71507689985447,315,315,141.71507689985447,141.71507689985447,141.71507689985447,141.71507689985447,141.71507689985447,141.71507689985447,141.71507689985447,141.71507689985447,141.71507689985447,142.08162109996192,142.08162109996192,142.08162109996192,142.08162109996192,142.08162109996192,142.08162109996192,142.08162109996192,142.08162109996192,142.08162109996192,0,1,[0.0012773999478667974],[0.36714329989627004],142.08162109996192,142.283743100008,1000,142.283743100008,1000,1000,1000,1000,1,num_2,0.6081654999870807,,30,13,2026-03-12_11h18.20.017,2026A_exp2,2022.2.4,59.720959776331384,
1000,1,6.1,6.1,1,0,40,40,22,,,,,142.91564889997244,143.5662897999864,143.5662897999864,144.06738629983738,315,315,144.06738629983738,144.06738629983738,144.06738629983738,144.06738629983738,144.06738629983738,144.06738629983738,144.06738629983738,144.06738629983738,144.06738629983738,144.43386269989423,144.43386269989423,144.43386269989423,144.43386269989423,144.43386269989423,144.43386269989423,144.43386269989423,144.43386269989423,144.43386269989423,0,1,[0.0013001000043004751],[0.36720269988290966],144.43386269989423,144.6362528000027,1000,144.6362528000027,1000,1000,1000,1000,0,num_3,0.9347801001276821,,30,13,2026-03-12_11h18.20.017,2026A_exp2,2022.2.4,59.720959776331384,
1000,1,4.9,0.0,1,0,41,41,67,,,,,145.60169579996727,146.25251749996096,146.25251749996096,146.75352979986928,45,45,146.75352979986928,146.75352979986928,146.75352979986928,146.75352979986928,146.75352979986928,146.75352979986928,146.75352979986928,146.75352979986928,146.75352979986928,147.1199534998741,147.1199534998741,147.1199534998741,147.1199534998741,147.1199534998741,147.1199534998741,147.1199534998741,147.1199534998741,147.1199534998741,5,3,"[0.0012266000267118216, 0.26703869993798435, 0.31710650003515184]","[0.21696390002034605, 0.28384350007399917, 0.3670041000004858]",147.1199534998741,147.32077759993263,1000,147.32077759993263,1000,1000,1000,1000,0,num_3,0.5071380999870598,,30,13,2026-03-12_11h18.20.017,2026A_exp2,2022.2.4,59.720959776331384,
1000,1,0.0,0.0,0,0,42,42,62,,,,,147.8539227999281,148.50470659998246,148.50470659998246,149.0056115000043,315,45,149.0056115000043,149.0056115000043,149.0056115000043,149.0056115000043,149.0056115000043,149.0056115000043,149.0056115000043,149.0056115000043,149.0056115000043,149.37280740006827,149.37280740006827,149.37280740006827,149.37280740006827,149.37280740006827,149.37280740006827,149.37280740006827,149.37280740006827,149.37280740006827,0,1,[0.0007454999722540379],[0.3672078000381589],149.37280740006827,149.5725400999654,1000,149.5725400999654,1000,1000,1000,1000,1,num_2,0.5421442000661045,,30,13,2026-03-12_11h18.20.017,2026A_exp2,2022.2.4,59.720959776331384,
1000,1,0.0,0.0,1,0,43,43,2,,,,,150.13937780004926,150.79008900001645,150.79008900001645,151.27461660001427,45,315,151.27461660001427,151.27461660001427,151.27461660001427,151.27461660001427,151.27461660001427,151.27461660001427,151.27461660001427,151.27461660001427,151.27461660001427,151.64121879986487,151.64121879986487,151.64121879986487,151.64121879986487,151.64121879986487,151.64121879986487,151.64121879986487,151.64121879986487,151.64121879986487,0,1,[0.0008878998924046755],[0.367129199905321],151.64121879986487,151.84106189990416,1000,151.84106189990416,1000,1000,1000,1000,1,num_2,0.506216699955985,,30,13,2026-03-12_11h18.20.017,2026A_exp2,2022.2.4,59.720959776331384,
1000,1,0.0,6.1,1,0,44,44,42,,,,,152.37502079992555,153.0255851999391,153.0255851999391,153.51081279991195,45,315,153.51081279991195,153.51081279991195,153.51081279991195,153.51081279991195,153.51081279991195,153.51081279991195,153.51081279991195,153.51081279991195,153.51081279991195,153.87650249991566,153.87650249991566,153.87650249991566,153.87650249991566,153.87650249991566,153.87650249991566,153.87650249991566,153.87650249991566,153.87650249991566,13,1,[0.21749229985289276],[0.3682581000030041],153.87650249991566,154.07677639997564,1000,154.07677639997564,1000,1000,1000,1000,1,num_2,0.48642890015617013,,30,13,2026-03-12_11h18.20.017,2026A_exp2,2022.2.4,59.720959776331384,
1,0,6.1,0.0,1,0,45,45,17,,,,,154.5938571000006,155.2280657000374,155.2280657000374,155.72915349993855,315,315,155.72915349993855,155.72915349993855,155.72915349993855,155.72915349993855,155.72915349993855,155.72915349993855,155.72915349993855,155.72915349993855,155.72915349993855,156.09561119996943,156.09561119996943,156.09561119996943,156.09561119996943,156.09561119996943,156.09561119996943,156.09561119996943,156.09561119996943,156.09561119996943,2,3,"[0.0012939001899212599, 0.033476600190624595, 0.28383900015614927]","[0.017375400057062507, 0.2670965001452714, 0.36717500002123415]",156.09561119996943,156.2957409999799,0.0,156.2957409999799,0,0.0,0,1,1000,num_1,0.6757211000658572,,30,13,2026-03-12_11h18.20.017,2026A_exp2,2022.2.4,59.720959776331384,
1000,1,0.0,0.0,1,0,46,46,3,,,,,156.99648319999687,157.6470265998505,157.6470265998505,158.13149309996516,45,315,158.13149309996516,158.13149309996516,158.13149309996516,158.13149309996516,158.13149309996516,158.13149309996516,158.13149309996516,158.13149309996516,158.13149309996516,158.49801829992794,158.49801829992794,158.49801829992794,158.49801829992794,158.49801829992794,158.49801829992794,158.49801829992794,158.49801829992794,158.49801829992794,0,1,[0.001262999838218093],[0.3671686998568475],158.49801829992794,158.70067629986443,1000,158.70067629986443,1000,1000,1000,1000,1,num_2,0.662941699847579,,30,13,2026-03-12_11h18.20.017,2026A_exp2,2022.2.4,59.720959776331384,
1000,1,6.1,4.9,0,0,47,47,81,,,,,159.3821371998638,160.03294319985434,160.03294319985434,160.53385180002078,45,315,160.53385180002078,160.53385180002078,160.53385180002078,160.53385180002078,160.53385180002078,160.53385180002078,160.53385180002078,160.53385180002078,160.53385180002078,160.9004450000357,160.9004450000357,160.9004450000357,160.9004450000357,160.9004450000357,160.9004450000357,160.9004450000357,160.9004450000357,160.9004450000357,17,2,"[0.2337399001698941, 0.3005299000069499]","[0.25059400009922683, 0.3672373001463711]",160.9004450000357,161.10070679988712,1000,161.10070679988712,1000,1000,1000,1000,0,num_3,0.3897241000086069,,30,13,2026-03-12_11h18.20.017,2026A_exp2,2022.2.4,59.720959776331384,
1,0,0.0,6.1,0,0,48,48,24,,,,,161.51779069984332,162.16840970003977,162.16840970003977,162.66950149997137,315,45,162.66950149997137,162.66950149997137,162.66950149997137,162.66950149997137,162.66950149997137,162.66950149997137,162.66950149997137,162.66950149997137,162.66950149997137,163.01914969994687,163.01914969994687,163.01914969994687,163.01914969994687,163.01914969994687,163.01914969994687,163.01914969994687,163.01914969994687,163.01914969994687,7,1,[0.0012697000056505203],[0.2504236998502165],163.01914969994687,163.21940639987588,0.0,163.21940639987588,0,0.0,0,1,1000,num_1,0.9841008000075817,,30,13,2026-03-12_11h18.20.017,2026A_exp2,2022.2.4,59.720959776331384,
1000,1,4.9,6.1,1,0,49,49,5,,,,,164.22027789987624,164.8709406000562,164.8709406000562,165.37191840005107,315,45,165.37191840005107,165.37191840005107,165.37191840005107,165.37191840005107,165.37191840005107,165.37191840005107,165.37191840005107,165.37191840005107,165.37191840005107,165.72190640005283,165.72190640005283,165.72190640005283,165.72190640005283,165.72190640005283,165.72190640005283,165.72190640005283,165.72190640005283,165.72190640005283,22,0,,,165.72190640005283,165.9242523999419,1000,165.9242523999419,1000,1000,1000,1000,1,num_2,0.7985495999455452,,30,13,2026-03-12_11h18.20.017,2026A_exp2,2022.2.4,59.720959776331384,
1000,1,3.7,6.1,1,0,50,50,75,,,,,166.73949319985695,167.3902755000163,167.3902755000163,167.89126599999145,45,315,167.89126599999145,167.89126599999145,167.89126599999145,167.89126599999145,167.89126599999145,167.89126599999145,167.89126599999145,167.89126599999145,167.89126599999145,168.25775310001336,168.25775310001336,168.25775310001336,168.25775310001336,168.25775310001336,168.25775310001336,168.25775310001336,168.25775310001336,168.25775310001336,23,0,,,168.25775310001336,168.45990579994395,1000,168.45990579994395,1000,1000,1000,1000,1,num_2,0.3907943000085652,,30,13,2026-03-12_11h18.20.017,2026A_exp2,2022.2.4,59.720959776331384,
1000,1,0.0,6.1,0,0,51,51,61,,,,,168.874937399989,169.52572809997946,169.52572809997946,170.026703099953,45,315,170.026703099953,170.026703099953,170.026703099953,170.026703099953,170.026703099953,170.026703099953,170.026703099953,170.026703099953,170.026703099953,170.3932080999948,170.3932080999948,170.3932080999948,170.3932080999948,170.3932080999948,170.3932080999948,170.3932080999948,170.3932080999948,170.3932080999948,0,1,[0.0012642000801861286],[0.36715240008197725],170.3932080999948,170.59540289989673,1000,170.59540289989673,1000,1000,1000,1000,1,num_2,0.39249909995123744,,30,13,2026-03-12_11h18.20.017,2026A_exp2,2022.2.4,59.720959776331384,
1,0,0.0,0.0,1,0,52,52,6,,,,,171.010384199908,171.66104130004533,171.66104130004533,172.16223339992575,45,45,172.16223339992575,172.16223339992575,172.16223339992575,172.16223339992575,172.16223339992575,172.16223339992575,172.16223339992575,172.16223339992575,172.16223339992575,172.5286357998848,172.5286357998848,172.5286357998848,172.5286357998848,172.5286357998848,172.5286357998848,172.5286357998848,172.5286357998848,172.5286357998848,2,3,"[0.0012447000481188297, 0.05020159995183349, 0.2837588000111282]","[0.03349660011008382, 0.2671950999647379, 0.36723210010677576]",172.5286357998848,172.72886939998716,0.0,172.72886939998716,0,0.0,0,1,1000,num_1,0.3463310000952333,,30,13,2026-03-12_11h18.20.017,2026A_exp2,2022.2.4,59.720959776331384,
1000,1,0.0,3.7,0,0,53,53,63,,,,,173.09578790003434,173.7465790999122,173.7465790999122,174.2476011000108,45,45,174.2476011000108,174.2476011000108,174.2476011000108,174.2476011000108,174.2476011000108,174.2476011000108,174.2476011000108,174.2476011000108,174.2476011000108,174.5973871999886,174.5973871999886,174.5973871999886,174.5973871999886,174.5973871999886,174.5973871999886,174.5973871999886,174.5973871999886,174.5973871999886,22,0,,,174.5973871999886,174.79991979990155,1000,174.79991979990155,1000,1000,1000,1000,1,num_2,0.5547756000887603,,30,13,2026-03-12_11h18.20.017,2026A_exp2,2022.2.4,59.720959776331384,
1000,1,4.9,0.0,1,0,54,54,48,,,,,175.38149990001693,176.03233899991028,176.03233899991028,176.53325279988348,45,315,176.53325279988348,176.53325279988348,176.53325279988348,176.53325279988348,176.53325279988348,176.53325279988348,176.53325279988348,176.53325279988348,176.53325279988348,176.89980009989813,176.89980009989813,176.89980009989813,176.89980009989813,176.89980009989813,176.89980009989813,176.89980009989813,176.89980009989813,176.89980009989813,22,1,[0.017472400097176433],[0.033711500000208616],176.89980009989813,177.10181659995578,1000,177.10181659995578,1000,1000,1000,1000,0,num_3,0.1493800999596715,,30,13,2026-03-12_11h18.20.017,2026A_exp2,2022.2.4,59.720959776331384,
1000,1,6.1,4.9,0,0,55,55,51,,,,,177.26671999995597,177.9174041999504,177.9174041999504,178.4185849998612,45,45,178.4185849998612,178.4185849998612,178.4185849998612,178.4185849998612,178.4185849998612,178.4185849998612,178.4185849998612,178.4185849998612,178.4185849998612,178.78496029996313,178.78496029996313,178.78496029996313,178.78496029996313,178.78496029996313,178.78496029996313,178.78496029996313,178.78496029996313,178.78496029996313,18,4,"[0.017565800109878182, 0.13359010010026395, 0.16700560017488897, 0.3170491000637412]","[0.03351119998842478, 0.1503271001856774, 0.18351160013116896, 0.3505655999761075]",178.78496029996313,178.98757319990546,1000,178.98757319990546,1000,1000,1000,1000,1,num_2,0.3353866001125425,,30,13,2026-03-12_11h18.20.017,2026A_exp2,2022.2.4,59.720959776331384,
1000,1,6.1,0.0,0,0,56,56,27,,,,,179.35201300005428,180.002826299984,180.002826299984,180.50397909991443,315,45,180.50397909991443,180.50397909991443,180.50397909991443,180.50397909991443,180.50397909991443,180.50397909991443,180.50397909991443,180.50397909991443,180.50397909991443,180.87031719996594,180.87031719996594,180.87031719996594,180.87031719996594,180.87031719996594,180.87031719996594,180.87031719996594,180.87031719996594,180.87031719996594,23,0,,,180.87031719996594,181.072550999932,1000,181.072550999932,1000,1000,1000,1000,0,num_3,0.13798670005053282,,30,13,2026-03-12_11h18.20.017,2026A_exp2,2022.2.4,59.720959776331384,
1,0,0.0,0.0,1,0,57,57,33,,,,,181.2375610000454,181.8880495999474,181.8880495999474,182.37251279992051,45,315,182.37251279992051,182.37251279992051,182.37251279992051,182.37251279992051,182.37251279992051,182.37251279992051,182.37251279992051,182.37251279992051,182.37251279992051,182.73881709994748,182.73881709994748,182.73881709994748,182.73881709994748,182.73881709994748,182.73881709994748,182.73881709994748,182.73881709994748,182.73881709994748,23,0,,,182.73881709994748,182.9390310999006,0.0,182.9390310999006,0,0.0,0,1,1000,num_1,0.24087580014020205,,30,13,2026-03-12_11h18.20.017,2026A_exp2,2022.2.4,59.720959776331384,
1,0,4.9,0.0,0,0,58,58,66,,,,,183.2064930999186,183.85659589990973,183.85659589990973,184.34109740005806,315,315,184.34109740005806,184.34109740005806,184.34109740005806,184.34109740005806,184.34109740005806,184.34109740005806,184.34109740005806,184.34109740005806,184.34109740005806,184.70756309991702,184.70756309991702,184.70756309991702,184.70756309991702,184.70756309991702,184.70756309991702,184.70756309991702,184.70756309991702,184.70756309991702,8,2,"[0.0013219998218119144, 0.26698179985396564]","[0.23335219989530742, 0.2837197999469936]",184.70756309991702,184.90788549999706,4.9,184.90788549999706,1,4.9,1,1,1000,num_4,0.5346084998454899,,30,13,2026-03-12_11h18.20.017,2026A_exp2,2022.2.4,59.720959776331384,
1,0,4.9,6.1,0,0,59,59,82,,,,,185.45821139984764,186.10915929987095,186.10915929987095,186.59324239986017,315,315,186.59324239986017,186.59324239986017,186.59324239986017,186.59324239986017,186.59324239986017,186.59324239986017,186.59324239986017,186.59324239986017,186.59324239986017,186.95978339994326,186.95978339994326,186.95978339994326,186.95978339994326,186.95978339994326,186.95978339994326,186.95978339994326,186.95978339994326,186.95978339994326,0,1,[0.0012438998091965914],[0.3670791999902576],186.95978339994326,187.15989180002362,4.9,187.15989180002362,1,4.9,1,1,1000,num_4,0.7951086000539362,,30,13,2026-03-12_11h18.20.017,2026A_exp2,2022.2.4,59.720959776331384,
1000,1,0.0,3.7,0,0,60,60,21,,,,,187.97721659997478,188.6117920000106,188.6117920000106,189.11242630006745,45,45,189.11242630006745,189.11242630006745,189.11242630006745,189.11242630006745,189.11242630006745,189.11242630006745,189.11242630006745,189.11242630006745,189.11242630006745,189.47894129995257,189.47894129995257,189.47894129995257,189.47894129995257,189.47894129995257,189.47894129995257,189.47894129995257,189.47894129995257,189.47894129995257,23,0,,,189.47894129995257,189.6815096999053,1000,189.6815096999053,1000,1000,1000,1000,1,num_2,0.401118699926883,,30,13,2026-03-12_11h18.20.017,2026A_exp2,2022.2.4,59.720959776331384,
0,0,6.1,3.7,0,0,61,61,49,,,,,190.11319849989377,190.763440300012,190.763440300012,191.26464769989252,45,45,191.26464769989252,191.26464769989252,191.26464769989252,191.26464769989252,191.26464769989252,191.26464769989252,191.26464769989252,191.26464769989252,191.26464769989252,191.63116230000742,191.63116230000742,191.63116230000742,191.63116230000742,191.63116230000742,191.63116230000742,191.63116230000742,191.63116230000742,191.63116230000742,23,0,,,191.63116230000742,191.83127379999496,3.7,191.83127379999496,1,3.7,1,1,1000,num_4,1.0441366999875754,,30,13,2026-03-12_11h18.20.017,2026A_exp2,2022.2.4,59.720959776331384,
0,0,6.1,0.0,0,0,62,62,41,,,,,192.8989691999741,193.54970939992927,193.54970939992927,194.0340314998757,315,315,194.0340314998757,194.0340314998757,194.0340314998757,194.0340314998757,194.0340314998757,194.0340314998757,194.0340314998757,194.0340314998757,194.0340314998757,194.40051439986564,194.40051439986564,194.40051439986564,194.40051439986564,194.40051439986564,194.40051439986564,194.40051439986564,194.40051439986564,194.40051439986564,20,1,[0.0012560999020934105],[0.05020209983922541],194.40051439986564,194.6008276999928,0.0,194.6008276999928,0,0.0,0,1,1000,num_1,0.593796200118959,,30,13,2026-03-12_11h18.20.017,2026A_exp2,2022.2.4,59.720959776331384,
1000,1,0.0,4.9,0,0,63,63,8,,,,,195.2178791000042,195.86862679990008,195.86862679990008,196.3531344998628,315,45,196.3531344998628,196.3531344998628,196.3531344998628,196.3531344998628,196.3531344998628,196.3531344998628,196.3531344998628,196.3531344998628,196.3531344998628,196.71973759983666,196.71973759983666,196.71973759983666,196.71973759983666,196.71973759983666,196.71973759983666,196.71973759983666,196.71973759983666,196.71973759983666,23,0,,,196.71973759983666,196.92194719985127,1000,196.92194719985127,1000,1000,1000,1000,1,num_2,1.1449943000916392,,30,13,2026-03-12_11h18.20.017,2026A_exp2,2022.2.4,59.720959776331384,
1000,1,0.0,4.9,1,0,64,64,37,,,,,198.08770899986848,198.73820879985578,198.73820879985578,199.23938969988376,315,315,199.23938969988376,199.23938969988376,199.23938969988376,199.23938969988376,199.23938969988376,199.23938969988376,199.23938969988376,199.23938969988376,199.23938969988376,199.60578510002233,199.60578510002233,199.60578510002233,199.60578510002233,199.60578510002233,199.60578510002233,199.60578510002233,199.60578510002233,199.60578510002233,20,1,[0.0012491000816226006],[0.033622900024056435],199.60578510002233,199.808064899873,1000,199.808064899873,1000,1000,1000,1000,1,num_2,0.48271090001799166,,30,13,2026-03-12_11h18.20.017,2026A_exp2,2022.2.4,59.720959776331384,
1000,1,3.7,0.0,0,0,65,65,86,,,,,200.30665030004457,200.95707939984277,200.95707939984277,201.45853840000927,315,315,201.45853840000927,201.45853840000927,201.45853840000927,201.45853840000927,201.45853840000927,201.45853840000927,201.45853840000927,201.45853840000927,201.45853840000927,201.824629599927,201.824629599927,201.824629599927,201.824629599927,201.824629599927,201.824629599927,201.824629599927,201.824629599927,201.824629599927,0,1,[0.0007505000103265047],[0.36760189989581704],201.824629599927,202.02743569994345,1000,202.02743569994345,1000,1000,1000,1000,1,num_2,0.48811600008048117,,30,13,2026-03-12_11h18.20.017,2026A_exp2,2022.2.4,59.720959776331384,
1000,1,0.0,6.1,1,0,66,66,74,,,,,202.5418072999455,203.19275379995815,203.19275379995815,203.69386020000093,45,315,203.69386020000093,203.69386020000093,203.69386020000093,203.69386020000093,203.69386020000093,203.69386020000093,203.69386020000093,203.69386020000093,203.69386020000093,204.0602663999889,204.0602663999889,204.0602663999889,204.0602663999889,204.0602663999889,204.0602663999889,204.0602663999889,204.0602663999889,204.0602663999889,2,2,"[0.0012704001273959875, 0.333913299953565]","[0.3006098000332713, 0.3673564000055194]",204.0602663999889,204.26266740006395,1000,204.26266740006395,1000,1000,1000,1000,1,num_2,0.41240449994802475,,30,13,2026-03-12_11h18.20.017,2026A_exp2,2022.2.4,59.720959776331384,
1000,1,0.0,6.1,0,0,67,67,20,,,,,204.69384819990955,205.34483990003355,205.34483990003355,205.8460170000326,315,45,205.8460170000326,205.8460170000326,205.8460170000326,205.8460170000326,205.8460170000326,205.8460170000326,205.8460170000326,205.8460170000326,205.8460170000326,206.1957288000267,206.1957288000267,206.1957288000267,206.1957288000267,206.1957288000267,206.1957288000267,206.1957288000267,206.1957288000267,206.1957288000267,13,4,"[0.001239399891346693, 0.03374659991823137, 0.16712789982557297, 0.2172298999503255]","[0.017587199807167053, 0.15038079977966845, 0.18373589986003935, 0.2338444998022169]",206.1957288000267,206.39823639998212,1000,206.41269170003943,1000,1000,1000,1000,1,num_2,0.35015009995549917,,30,13,2026-03-12_11h18.20.017,2026A_exp2,2022.2.4,59.720959776331384,
1,0,0.0,0.0,1,0,68,68,83,,,,,206.77953519998118,207.43027939996682,207.43027939996682,207.93145699985325,315,315,207.93145699985325,207.93145699985325,207.93145699985325,207.93145699985325,207.93145699985325,207.93145699985325,207.93145699985325,207.93145699985325,207.93145699985325,208.28110129991546,208.28110129991546,208.28110129991546,208.28110129991546,208.28110129991546,208.28110129991546,208.28110129991546,208.28110129991546,208.28110129991546,0,1,[0.0012115000281482935],[0.3502501999028027],208.28110129991546,208.48132209992036,0.0,208.48132209992036,0,0.0,0,1,1000,num_1,0.6893978998996317,,30,13,2026-03-12_11h18.20.017,2026A_exp2,2022.2.4,59.720959776331384,
1000,1,3.7,0.0,0,0,69,69,69,,,,,209.19857899984345,209.8494464000687,209.8494464000687,210.33384119998664,45,315,210.33384119998664,210.33384119998664,210.33384119998664,210.33384119998664,210.33384119998664,210.33384119998664,210.33384119998664,210.33384119998664,210.33384119998664,210.70019320002757,210.70019320002757,210.70019320002757,210.70019320002757,210.70019320002757,210.70019320002757,210.70019320002757,210.70019320002757,210.70019320002757,9,4,"[0.01727460022084415, 0.10050200019031763, 0.15064330003224313, 0.2006903002038598]","[0.0334370001219213, 0.11725160013884306, 0.1672366000711918, 0.36761570000089705]",210.70019320002757,210.90279800002463,1000,210.90279800002463,1000,1000,1000,1000,0,num_3,0.5079735000617802,,30,13,2026-03-12_11h18.20.017,2026A_exp2,2022.2.4,59.720959776331384,
1,0,6.1,6.1,1,0,70,70,47,,,,,211.4341975999996,212.0848153999541,212.0848153999541,212.58604680001736,45,45,212.58604680001736,212.58604680001736,212.58604680001736,212.58604680001736,212.58604680001736,212.58604680001736,212.58604680001736,212.58604680001736,212.58604680001736,212.95261029992253,212.95261029992253,212.95261029992253,212.95261029992253,212.95261029992253,212.95261029992253,212.95261029992253,212.95261029992253,212.95261029992253,23,0,,,212.95261029992253,213.16818289994262,6.1,213.16818289994262,1,6.1,1,1,1000,num_4,0.9465204000007361,,30,13,2026-03-12_11h18.20.017,2026A_exp2,2022.2.4,59.720959776331384,
1,0,0.0,6.1,1,0,71,71,19,,,,,214.13674109987915,214.78767989994958,214.78767989994958,215.272083299933,45,315,215.272083299933,215.272083299933,215.272083299933,215.272083299933,215.272083299933,215.272083299933,215.272083299933,215.272083299933,215.272083299933,215.63840089994483,215.63840089994483,215.63840089994483,215.63840089994483,215.63840089994483,215.63840089994483,215.63840089994483,215.63840089994483,215.63840089994483,0,1,[0.0012668999843299389],[0.3670604999642819],215.63840089994483,215.83867289987393,6.1,215.83867289987393,1,6.1,1,1,1000,num_4,0.4357875999994576,,30,13,2026-03-12_11h18.20.017,2026A_exp2,2022.2.4,59.720959776331384,
1,0,4.9,0.0,1,0,72,72,34,,,,,216.30570939998142,216.95645030005835,216.95645030005835,217.44075770000927,45,315,217.44075770000927,217.44075770000927,217.44075770000927,217.44075770000927,217.44075770000927,217.44075770000927,217.44075770000927,217.44075770000927,217.44075770000927,217.8073708000593,217.8073708000593,217.8073708000593,217.8073708000593,217.8073708000593,217.8073708000593,217.8073708000593,217.8073708000593,217.8073708000593,0,1,[0.00123109994456172],[0.36719630006700754],217.8073708000593,218.00759319984354,0.0,218.00759319984354,0,0.0,0,1,1000,num_1,0.6591247001197189,,30,13,2026-03-12_11h18.20.017,2026A_exp2,2022.2.4,59.720959776331384,
1,0,3.7,0.0,1,0,73,73,30,,,,,218.69131370005198,219.34206199995242,219.34206199995242,219.8266090999823,315,45,219.8266090999823,219.8266090999823,219.8266090999823,219.8266090999823,219.8266090999823,219.8266090999823,219.8266090999823,219.8266090999823,219.8266090999823,220.19306720001623,220.19306720001623,220.19306720001623,220.19306720001623,220.19306720001623,220.19306720001623,220.19306720001623,220.19306720001623,220.19306720001623,0,1,[0.0013013000134378672],[0.3670846000313759],220.19306720001623,220.39328969991766,0.0,220.39328969991766,0,0.0,0,1,1000,num_1,1.1053487998433411,,30,13,2026-03-12_11h18.20.017,2026A_exp2,2022.2.4,59.720959776331384,
1000,1,4.9,0.0,0,0,74,74,50,,,,,221.52761400002055,222.1782406999264,222.1782406999264,222.66288179997355,315,315,222.66288179997355,222.66288179997355,222.66288179997355,222.66288179997355,222.66288179997355,222.66288179997355,222.66288179997355,222.66288179997355,222.66288179997355,223.02917689993046,223.02917689993046,223.02917689993046,223.02917689993046,223.02917689993046,223.02917689993046,223.02917689993046,223.02917689993046,223.02917689993046,2,3,"[0.0012541001196950674, 0.06675380002707243, 0.3671891000121832]","[0.050173000199720263, 0.35057870019227266, 0.36719390004873276]",223.02917689993046,223.22959879995324,1000,223.22959879995324,1000,1000,1000,1000,0,num_3,0.7090530002024025,,30,13,2026-03-12_11h18.20.017,2026A_exp2,2022.2.4,59.720959776331384,
1,0,0.0,0.0,1,0,75,75,38,,,,,223.9633326998446,224.61407879996113,224.61407879996113,225.1152764998842,45,45,225.1152764998842,225.1152764998842,225.1152764998842,225.1152764998842,225.1152764998842,225.1152764998842,225.1152764998842,225.1152764998842,225.1152764998842,225.48181349993683,225.48181349993683,225.48181349993683,225.48181349993683,225.48181349993683,225.48181349993683,225.48181349993683,225.48181349993683,225.48181349993683,1,2,"[0.0012350000906735659, 0.3501424000132829]","[0.33332810015417635, 0.36720730015076697]",225.48181349993683,225.68180330004543,0.0,225.68180330004543,0,0.0,0,1,1000,num_1,0.44980139983817935,,30,13,2026-03-12_11h18.20.017,2026A_exp2,2022.2.4,59.720959776331384,
1000,1,4.9,6.1,0,0,76,76,36,,,,,226.14886759989895,226.79965219995938,226.79965219995938,227.28392770001665,45,45,227.28392770001665,227.28392770001665,227.28392770001665,227.28392770001665,227.28392770001665,227.28392770001665,227.28392770001665,227.28392770001665,227.28392770001665,227.65049070003442,227.65049070003442,227.65049070003442,227.65049070003442,227.65049070003442,227.65049070003442,227.65049070003442,227.65049070003442,227.65049070003442,21,2,"[0.06684159999713302, 0.2669397001154721]","[0.08342320006340742, 0.28357530012726784]",227.65049070003442,227.85283300001174,1000,227.85283300001174,1000,1000,1000,1000,1,num_2,0.318292299984023,,30,13,2026-03-12_11h18.20.017,2026A_exp2,2022.2.4,59.720959776331384,
1000,1,3.7,0.0,0,0,77,77,39,,,,,228.20083869993687,228.85163609986193,228.85163609986193,229.35269319987856,45,315,229.35269319987856,229.35269319987856,229.35269319987856,229.35269319987856,229.35269319987856,229.35269319987856,229.35269319987856,229.35269319987856,229.35269319987856,229.70252829999663,229.70252829999663,229.70252829999663,229.70252829999663,229.70252829999663,229.70252829999663,229.70252829999663,229.70252829999663,229.70252829999663,5,4,"[0.0013036001473665237, 0.04981960006989539, 0.18363890005275607, 0.2499605999328196]","[0.033587400102987885, 0.13357660011388361, 0.23327170009724796, 0.35022890008985996]",229.70252829999663,229.90511039993726,1000,229.90511039993726,1000,1000,1000,1000,0,num_3,0.4587467999663204,,30,13,2026-03-12_11h18.20.017,2026A_exp2,2022.2.4,59.720959776331384,
1,0,3.7,0.0,0,0,78,78,26,,,,,230.38643459999003,231.0372742000036,231.0372742000036,231.53822349989787,315,45,231.53822349989787,231.53822349989787,231.53822349989787,231.53822349989787,231.53822349989787,231.53822349989787,231.53822349989787,231.53822349989787,231.53822349989787,231.90458129998296,231.90458129998296,231.90458129998296,231.90458129998296,231.90458129998296,231.90458129998296,231.90458129998296,231.90458129998296,231.90458129998296,0,1,[0.0012666000984609127],[0.36713999998755753],231.90458129998296,232.10501419985667,3.7,232.10501419985667,1,3.7,1,1,1000,num_4,0.7138393998611718,,30,13,2026-03-12_11h18.20.017,2026A_exp2,2022.2.4,59.720959776331384,
1000,1,0.0,0.0,0,0,79,79,45,,,,,232.83882760000415,233.48964970000088,233.48964970000088,233.99058089987375,45,45,233.99058089987375,233.99058089987375,233.99058089987375,233.99058089987375,233.99058089987375,233.99058089987375,233.99058089987375,233.99058089987375,233.99058089987375,234.3403360999655,234.3403360999655,234.3403360999655,234.3403360999655,234.3403360999655,234.3403360999655,234.3403360999655,234.3403360999655,234.3403360999655,0,1,[0.0008250998798757792],[0.35132719995453954],234.3403360999655,234.54301669984125,1000,234.54301669984125,1000,1000,1000,1000,1,num_2,0.6118221001233906,,30,13,2026-03-12_11h18.20.017,2026A_exp2,2022.2.4,59.720959776331384,
1000,1,3.7,4.9,1,0,80,80,71,,,,,235.17450800002553,235.83564679999836,235.83564679999836,236.32637459994294,315,45,236.32637459994294,236.32637459994294,236.32637459994294,236.32637459994294,236.32637459994294,236.32637459994294,236.32637459994294,236.32637459994294,236.32637459994294,236.69279700005427,236.69279700005427,236.69279700005427,236.69279700005427,236.69279700005427,236.69279700005427,236.69279700005427,236.69279700005427,236.69279700005427,8,5,"[0.001249099848791957, 0.06697499984875321, 0.18358720000833273, 0.26714579993858933, 0.35052939993329346]","[0.033471099799498916, 0.15033689979463816, 0.23369599995203316, 0.31716490001417696, 0.3671124998945743]",236.69279700005427,236.89551659999415,1000,236.89551659999415,1000,1000,1000,1000,1,num_2,0.3878846999723464,,30,13,2026-03-12_11h18.20.017,2026A_exp2,2022.2.4,59.720959776331384,
1000,1,0.0,0.0,1,0,81,81,56,,,,,237.3100666999817,237.96070779999718,237.96070779999718,238.4617868999485,45,45,238.4617868999485,238.4617868999485,238.4617868999485,238.4617868999485,238.4617868999485,238.4617868999485,238.4617868999485,238.4617868999485,238.4617868999485,238.82809800002724,238.82809800002724,238.82809800002724,238.82809800002724,238.82809800002724,238.82809800002724,238.82809800002724,238.82809800002724,238.82809800002724,21,3,"[0.06683479994535446, 0.11687740008346736, 0.35030980012379587]","[0.08354740007780492, 0.13355299993418157, 0.36709260009229183]",238.82809800002724,239.0304841999896,1000,239.0304841999896,1000,1000,1000,1000,1,num_2,0.4922513000201434,,30,13,2026-03-12_11h18.20.017,2026A_exp2,2022.2.4,59.720959776331384,
1,0,3.7,0.0,0,0,82,82,10,,,,,239.54544380004518,240.19634149991907,240.19634149991907,240.69749289983884,45,45,240.69749289983884,240.69749289983884,240.69749289983884,240.69749289983884,240.69749289983884,240.69749289983884,240.69749289983884,240.69749289983884,240.69749289983884,241.06388369994238,241.06388369994238,241.06388369994238,241.06388369994238,241.06388369994238,241.06388369994238,241.06388369994238,241.06388369994238,241.06388369994238,4,4,"[0.0012397000100463629, 0.08358189999125898, 0.2001608000136912, 0.33379509998485446]","[0.06666929996572435, 0.1669079998973757, 0.317171499831602, 0.3671919999178499]",241.06388369994238,241.2639619000256,3.7,241.2639619000256,1,3.7,1,1,1000,num_4,0.7957250000908971,,30,13,2026-03-12_11h18.20.017,2026A_exp2,2022.2.4,59.720959776331384,
1,0,6.1,0.0,0,0,83,83,85,,,,,242.08145539998077,242.73214380000718,242.73214380000718,243.21664009988308,45,45,243.21664009988308,243.21664009988308,243.21664009988308,243.21664009988308,243.21664009988308,243.21664009988308,243.21664009988308,243.21664009988308,243.21664009988308,243.58296669996344,243.58296669996344,243.58296669996344,243.58296669996344,243.58296669996344,243.58296669996344,243.58296669996344,243.58296669996344,243.58296669996344,21,2,"[0.21694509987719357, 0.3170860998798162]","[0.23366849985904992, 0.3337004999630153]",243.58296669996344,243.7832708999049,6.1,243.7832708999049,1,6.1,1,1,1000,num_4,0.26028420007787645,,30,13,2026-03-12_11h18.20.017,2026A_exp2,2022.2.4,59.720959776331384,
1000,1,4.9,3.7,1,0,84,84,78,,,,,244.0667566000484,244.7175900998991,244.7175900998991,245.20199560001493,45,45,245.20199560001493,245.20199560001493,245.20199560001493,245.20199560001493,245.20199560001493,245.20199560001493,245.20199560001493,245.20199560001493,245.20199560001493,245.5684425998479,245.5684425998479,245.5684425998479,245.5684425998479,245.5684425998479,245.5684425998479,245.5684425998479,245.5684425998479,245.5684425998479,1,1,[0.0012602000497281551],[0.3671085999812931],245.5684425998479,245.77067400002852,1000,245.77067400002852,1000,1000,1000,1000,1,num_2,0.6721620000898838,,30,13,2026-03-12_11h18.20.017,2026A_exp2,2022.2.4,59.720959776331384,
1000,1,0.0,3.7,0,0,85,85,23,,,,,246.46919069997966,247.1199737000279,247.1199737000279,247.62103069992736,315,315,247.62103069992736,247.62103069992736,247.62103069992736,247.62103069992736,247.62103069992736,247.62103069992736,247.62103069992736,247.62103069992736,247.62103069992736,247.9873897000216,247.9873897000216,247.9873897000216,247.9873897000216,247.9873897000216,247.9873897000216,247.9873897000216,247.9873897000216,247.9873897000216,23,0,,,247.9873897000216,248.1901280998718,1000,248.1901280998718,1000,1000,1000,1000,1,num_2,0.7731943000108004,,30,13,2026-03-12_11h18.20.017,2026A_exp2,2022.2.4,59.720959776331384,
1000,1,6.1,0.0,1,0,86,86,79,,,,,248.98836299986579,249.6391966000665,249.6391966000665,250.1235372000374,315,45,250.1235372000374,250.1235372000374,250.1235372000374,250.1235372000374,250.1235372000374,250.1235372000374,250.1235372000374,250.1235372000374,250.1235372000374,250.48996739997528,250.48996739997528,250.48996739997528,250.48996739997528,250.48996739997528,250.48996739997528,250.48996739997528,250.48996739997528,250.48996739997528,0,1,[0.0009322999976575375],[0.36713539995253086],250.48996739997528,250.69204930006526,1000,250.70684850006364,1000,1000,1000,1000,0,num_3,0.680491000181064,,30,13,2026-03-12_11h18.20.017,2026A_exp2,2022.2.4,59.720959776331384,
1000,1,0.0,0.0,0,0,87,87,72,,,,,251.40747620002367,252.058107299963,252.058107299963,252.55923349992372,315,45,252.55923349992372,252.55923349992372,252.55923349992372,252.55923349992372,252.55923349992372,252.55923349992372,252.55923349992372,252.55923349992372,252.55923349992372,252.9256660998799,252.9256660998799,252.9256660998799,252.9256660998799,252.9256660998799,252.9256660998799,252.9256660998799,252.9256660998799,252.9256660998799,0,1,[0.001244999933987856],[0.3673137999139726],252.9256660998799,253.12691899994388,1000,253.12691899994388,1000,1000,1000,1000,1,num_2,0.14050520001910627,,30,13,2026-03-12_11h18.20.017,2026A_exp2,2022.2.4,59.720959776331384,
0,0,4.9,0.0,0,0,88,88,84,,,,,253.29263869998977,253.94338359986432,253.94338359986432,254.44459179998375,45,45,254.44459179998375,254.44459179998375,254.44459179998375,254.44459179998375,254.44459179998375,254.44459179998375,254.44459179998375,254.44459179998375,254.44459179998375,254.8108073999174,254.8108073999174,254.8108073999174,254.8108073999174,254.8108073999174,254.8108073999174,254.8108073999174,254.8108073999174,254.8108073999174,4,3,"[0.017400600016117096, 0.1502539999783039, 0.3503785999491811]","[0.11677920003421605, 0.3337183999828994, 0.36719999997876585]",254.8108073999174,255.011000999948,0.0,255.011000999948,0,0.0,0,1,1000,num_1,0.808416899992153,,30,13,2026-03-12_11h18.20.017,2026A_exp2,2022.2.4,59.720959776331384,
1,0,4.9,4.9,1,0,89,89,9,,,,,255.8452725999523,256.49591020005755,256.49591020005755,256.9801459000446,45,315,256.9801459000446,256.9801459000446,256.9801459000446,256.9801459000446,256.9801459000446,256.9801459000446,256.9801459000446,256.9801459000446,256.9801459000446,257.3467333998997,257.3467333998997,257.3467333998997,257.3467333998997,257.3467333998997,257.3467333998997,257.3467333998997,257.3467333998997,257.3467333998997,4,4,"[0.00130690005607903, 0.08377239992842078, 0.1670033000409603, 0.35050599998794496]","[0.06670970004051924, 0.15029899985529482, 0.3337260999251157, 0.36722809984348714]",257.3467333998997,257.5470187999308,4.9,257.5470187999308,1,4.9,1,1,1000,num_4,0.6639592000283301,,30,13,2026-03-12_11h18.20.017,2026A_exp2,2022.2.4,59.720959776331384,
,,,,,,,,,,,,,,,,,,,,,,,,,,,,,,,,,,,,,,,,,,,,,,,,,,,,258.2478568998631,,,,,,,
