validity,detectorcomp,contrastCW,contrastCCW,precueCWorCCW,block_80trials.thisRepN,block_80trials.thisTrialN,block_80trials.thisN,block_80trials.thisIndex,etRecord.started,etRecord.stopped,text.started,text.stopped,text_4.started,text_4.stopped,text_6.started,text_6.stopped,oriCW,oriCCW,roi_2.started,grating_UR.started,grating_UL.started,grating_LR.started,grating_LL.started,noise_UR.started,noise_UL.started,noise_LR.started,noise_LL.started,roi_2.stopped,grating_UR.stopped,grating_UL.stopped,grating_LR.stopped,grating_LL.stopped,noise_UR.stopped,noise_UL.stopped,noise_LR.stopped,noise_LL.stopped,outframe,roi_2.numLooks,roi_2.timesOn,roi_2.timesOff,text_2.started,text_2.stopped,probedcontrast,key_resp.started,respdetect,relevantContrast,correctDetect,TorFdetect,respCWorCCW,key_resp.keys,key_resp.rt,feedback_display_.started,participantNo,blockNo,date,expName,psychopyVersion,frameRate,
1000,1,0.0,6.1,0,0,0,0,2,3.220001235604286e-05,3.220001235604286e-05,62.773369700007606,64.78057790000457,64.78057790000457,65.41107620002003,65.41107620002003,65.92804840003373,45,315,65.92804840003373,65.92804840003373,65.92804840003373,65.92804840003373,65.92804840003373,65.92804840003373,65.92804840003373,65.92804840003373,65.92804840003373,66.2791074999841,66.2791074999841,66.2791074999841,66.2791074999841,66.2791074999841,66.2791074999841,66.2791074999841,66.2791074999841,66.2791074999841,14,1,[0.234410899982322],[0.3690313000115566],66.2791074999841,66.48345040000277,1000,66.48345040000277,1000,1000,1000,1000,0,num_3,4.545263000007253,,23,1,2026-03-04_13h10.19.406,2026A_exp2,2022.2.4,59.92617094635297,
1,0,3.7,4.9,1,0,1,1,71,,,,,71.05036679998739,71.70081150002079,71.70081150002079,72.20186620001914,45,315,72.20186620001914,72.20186620001914,72.20186620001914,72.20186620001914,72.20186620001914,72.20186620001914,72.20186620001914,72.20186620001914,72.20186620001914,72.56828539998969,72.56828539998969,72.56828539998969,72.56828539998969,72.56828539998969,72.56828539998969,72.56828539998969,72.56828539998969,72.56828539998969,9,3,"[0.0666771000251174, 0.13347860000794753, 0.21668990002945065]","[0.11654140002792701, 0.18334909999975935, 0.36683260003337637]",72.56828539998969,72.76866830000654,4.9,72.76866830000654,1,4.9,1,1,1000,num_4,3.6279878999921493,,23,1,2026-03-04_13h10.19.406,2026A_exp2,2022.2.4,59.92617094635297,
1000,1,0.0,6.1,0,0,2,2,58,,,,,76.4221754000173,77.06582259997958,77.06582259997958,77.56257429998368,45,315,77.56257429998368,77.56257429998368,77.56257429998368,77.56257429998368,77.56257429998368,77.56257429998368,77.56257429998368,77.56257429998368,77.56257429998368,77.92378170002485,77.92378170002485,77.92378170002485,77.92378170002485,77.92378170002485,77.92378170002485,77.92378170002485,77.92378170002485,77.92378170002485,11,1,[0.0026626999606378376],[0.20028809999348596],77.92378170002485,78.12393780000275,1000,78.12393780000275,1000,1000,1000,1000,0,num_3,2.6656335000297986,,23,1,2026-03-04_13h10.19.406,2026A_exp2,2022.2.4,59.92617094635297,
1000,1,0.0,4.9,1,0,3,3,78,,,,,80.80995159997838,81.46042660000967,81.46042660000967,81.94502310000826,315,315,81.94502310000826,81.94502310000826,81.94502310000826,81.94502310000826,81.94502310000826,81.94502310000826,81.94502310000826,81.94502310000826,81.94502310000826,82.3112783000106,82.3112783000106,82.3112783000106,82.3112783000106,82.3112783000106,82.3112783000106,82.3112783000106,82.3112783000106,82.3112783000106,23,0,,,82.3112783000106,82.51326390000759,1000,82.51326390000759,1000,1000,1000,1000,0,num_3,0.8755110999918543,,23,1,2026-03-04_13h10.19.406,2026A_exp2,2022.2.4,59.92617094635297,
0,0,0.0,3.7,0,0,4,4,47,,,,,83.41241430002265,84.06312310002977,84.06312310002977,84.56425510003464,45,45,84.56425510003464,84.56425510003464,84.56425510003464,84.56425510003464,84.56425510003464,84.56425510003464,84.56425510003464,84.56425510003464,84.56425510003464,84.91402800002834,84.91402800002834,84.91402800002834,84.91402800002834,84.91402800002834,84.91402800002834,84.91402800002834,84.91402800002834,84.91402800002834,18,2,"[0.21693579998100176, 0.33362300001317635]","[0.25040949997492135, 0.3502199000213295]",84.91402800002834,85.11424680001801,3.7,85.11424680001801,0,3.7,1,0,1000,num_1,1.8106365999556147,,23,1,2026-03-04_13h10.19.406,2026A_exp2,2022.2.4,59.92617094635297,
1000,1,0.0,0.0,1,0,5,5,16,,,,,86.94958730001235,87.60408419999294,87.60408419999294,88.09234690002631,315,315,88.09234690002631,88.09234690002631,88.09234690002631,88.09234690002631,88.09234690002631,88.09234690002631,88.09234690002631,88.09234690002631,88.09234690002631,88.45072780002374,88.45072780002374,88.45072780002374,88.45072780002374,88.45072780002374,88.45072780002374,88.45072780002374,88.45072780002374,88.45072780002374,23,0,,,88.45072780002374,88.65121600002749,1000,88.65121600002749,1000,1000,1000,1000,0,num_3,4.857903099968098,,23,1,2026-03-04_13h10.19.406,2026A_exp2,2022.2.4,59.92617094635297,
1000,1,0.0,6.1,0,0,6,6,85,,,,,93.5394837000058,94.18983879999723,94.18983879999723,94.69100749999052,315,45,94.69100749999052,94.69100749999052,94.69100749999052,94.69100749999052,94.69100749999052,94.69100749999052,94.69100749999052,94.69100749999052,94.69100749999052,95.05745520000346,95.05745520000346,95.05745520000346,95.05745520000346,95.05745520000346,95.05745520000346,95.05745520000346,95.05745520000346,95.05745520000346,19,1,[0.0012885000323876739],[0.06680339999729767],95.05745520000346,95.25774380000075,1000,95.25774380000075,1000,1000,1000,1000,0,num_3,0.7873706000391394,,23,1,2026-03-04_13h10.19.406,2026A_exp2,2022.2.4,59.92617094635297,
1000,1,4.9,0.0,0,0,7,7,50,,,,,96.07516140001826,96.72583070001565,96.72583070001565,97.22680230002152,315,45,97.22680230002152,97.22680230002152,97.22680230002152,97.22680230002152,97.22680230002152,97.22680230002152,97.22680230002152,97.22680230002152,97.22680230002152,97.59334850002779,97.59334850002779,97.59334850002779,97.59334850002779,97.59334850002779,97.59334850002779,97.59334850002779,97.59334850002779,97.59334850002779,21,2,"[0.0667879999964498, 0.11687590001383796]","[0.08355729997856542, 0.13329099997645244]",97.59334850002779,97.79360309999902,1000,97.79360309999902,1000,1000,1000,1000,0,num_3,1.8028742999886163,,23,1,2026-03-04_13h10.19.406,2026A_exp2,2022.2.4,59.92617094635297,
1000,1,0.0,4.9,1,0,8,8,55,,,,,99.61189619998913,100.26263060001656,100.26263060001656,100.76373900001636,315,315,100.76373900001636,100.76373900001636,100.76373900001636,100.76373900001636,100.76373900001636,100.76373900001636,100.76373900001636,100.76373900001636,100.76373900001636,101.12992300000042,101.12992300000042,101.12992300000042,101.12992300000042,101.12992300000042,101.12992300000042,101.12992300000042,101.12992300000042,101.12992300000042,12,2,"[0.083499500004109, 0.1337233000085689]","[0.11699230002705008, 0.2833787000272423]",101.12992300000042,101.33022509998409,1000,101.33022509998409,1000,1000,1000,1000,0,num_3,0.5468267999822274,,23,1,2026-03-04_13h10.19.406,2026A_exp2,2022.2.4,59.92617094635297,
1,0,4.9,4.9,0,0,9,9,39,,,,,101.89811200002441,102.54833750001853,102.54833750001853,103.04931099998066,315,45,103.04931099998066,103.04931099998066,103.04931099998066,103.04931099998066,103.04931099998066,103.04931099998066,103.04931099998066,103.04931099998066,103.04931099998066,103.41573509998852,103.41573509998852,103.41573509998852,103.41573509998852,103.41573509998852,103.41573509998852,103.41573509998852,103.41573509998852,103.41573509998852,23,0,,,103.41573509998852,103.61601860000519,4.9,103.61601860000519,1,4.9,1,1,1000,num_4,1.3816718999878503,,23,1,2026-03-04_13h10.19.406,2026A_exp2,2022.2.4,59.92617094635297,
1,0,4.9,3.7,0,0,10,10,9,,,,,105.01770600001328,105.66817760001868,105.66817760001868,106.15237999998499,45,315,106.15237999998499,106.15237999998499,106.15237999998499,106.15237999998499,106.15237999998499,106.15237999998499,106.15237999998499,106.15237999998499,106.15237999998499,106.51883620000444,106.51883620000444,106.51883620000444,106.51883620000444,106.51883620000444,106.51883620000444,106.51883620000444,106.51883620000444,106.51883620000444,23,0,,,106.51883620000444,106.71909010002855,4.9,106.71909010002855,1,4.9,1,1,1000,num_4,1.7334138000151142,,23,1,2026-03-04_13h10.19.406,2026A_exp2,2022.2.4,59.92617094635297,
0,0,0.0,0.0,0,0,11,11,70,,,,,108.47126229997957,109.1215015000198,109.1215015000198,109.6060589000117,315,315,109.6060589000117,109.6060589000117,109.6060589000117,109.6060589000117,109.6060589000117,109.6060589000117,109.6060589000117,109.6060589000117,109.6060589000117,109.972332299978,109.972332299978,109.972332299978,109.972332299978,109.972332299978,109.972332299978,109.972332299978,109.972332299978,109.972332299978,1,2,"[0.001214599993545562, 0.05022939998889342]","[0.03336760000092909, 0.36714419996133074]",109.972332299978,110.17243710003095,0.0,110.17243710003095,0,0.0,0,1,1000,num_1,2.9362718000193126,,23,1,2026-03-04_13h10.19.406,2026A_exp2,2022.2.4,59.92617094635297,
1,0,0.0,3.7,0,0,12,12,61,,,,,113.1254846000229,113.77612870000303,113.77612870000303,114.27710800000932,315,45,114.27710800000932,114.27710800000932,114.27710800000932,114.27710800000932,114.27710800000932,114.27710800000932,114.27710800000932,114.27710800000932,114.27710800000932,114.64374219998717,114.64374219998717,114.64374219998717,114.64374219998717,114.64374219998717,114.64374219998717,114.64374219998717,114.64374219998717,114.64374219998717,17,4,"[0.0012119999737478793, 0.15022579999640584, 0.1834868000005372, 0.25038079998921603]","[0.05011229997035116, 0.16679679998196661, 0.20016100001521409, 0.266893699998036]",114.64374219998717,114.84376650000922,0.0,114.84376650000922,1,0.0,0,0,1000,num_4,2.641968500043731,,23,1,2026-03-04_13h10.19.406,2026A_exp2,2022.2.4,59.92617094635297,
1,0,3.7,4.9,0,0,13,13,76,,,,,117.51326470001368,118.14728059998015,118.14728059998015,118.6482607999933,45,315,118.6482607999933,118.6482607999933,118.6482607999933,118.6482607999933,118.6482607999933,118.6482607999933,118.6482607999933,118.6482607999933,118.6482607999933,119.0146571000223,119.0146571000223,119.0146571000223,119.0146571000223,119.0146571000223,119.0146571000223,119.0146571000223,119.0146571000223,119.0146571000223,7,1,[0.0012458999990485609],[0.26720390003174543],119.0146571000223,119.21502300002612,3.7,119.21502300002612,1,3.7,1,1,1000,num_4,2.062688599980902,,23,1,2026-03-04_13h10.19.406,2026A_exp2,2022.2.4,59.92617094635297,
1000,1,0.0,0.0,1,0,14,14,23,,,,,121.30028770002536,121.95103659998858,121.95103659998858,122.43545560003258,315,45,122.43545560003258,122.43545560003258,122.43545560003258,122.43545560003258,122.43545560003258,122.43545560003258,122.43545560003258,122.43545560003258,122.43545560003258,122.80180419998942,122.80180419998942,122.80180419998942,122.80180419998942,122.80180419998942,122.80180419998942,122.80180419998942,122.80180419998942,122.80180419998942,23,0,,,122.80180419998942,123.00229410000611,1000,123.00229410000611,1000,1000,1000,1000,0,num_3,1.5951816000160761,,23,1,2026-03-04_13h10.19.406,2026A_exp2,2022.2.4,59.92617094635297,
1000,1,6.1,0.0,0,0,15,15,59,,,,,124.62032590003219,125.2710756000015,125.2710756000015,125.7720452999929,315,45,125.7720452999929,125.7720452999929,125.7720452999929,125.7720452999929,125.7720452999929,125.7720452999929,125.7720452999929,125.7720452999929,125.7720452999929,126.12184029998025,126.12184029998025,126.12184029998025,126.12184029998025,126.12184029998025,126.12184029998025,126.12184029998025,126.12184029998025,126.12184029998025,22,0,,,126.12184029998025,126.32375400001183,1000,126.32375400001183,1000,1000,1000,1000,0,num_3,2.553591799980495,,23,1,2026-03-04_13h10.19.406,2026A_exp2,2022.2.4,59.92617094635297,
1000,1,0.0,0.0,0,0,16,16,37,,,,,128.90839729999425,129.5586652000202,129.5586652000202,130.05972920003114,45,45,130.05972920003114,130.05972920003114,130.05972920003114,130.05972920003114,130.05972920003114,130.05972920003114,130.05972920003114,130.05972920003114,130.05972920003114,130.4263304999913,130.4263304999913,130.4263304999913,130.4263304999913,130.4263304999913,130.4263304999913,130.4263304999913,130.4263304999913,130.4263304999913,23,0,,,130.4263304999913,130.6282164999866,1000,130.6282164999866,1000,1000,1000,1000,1,num_2,0.6412414999795146,,23,1,2026-03-04_13h10.19.406,2026A_exp2,2022.2.4,59.92617094635297,
0,0,3.7,6.1,0,0,17,17,73,,,,,131.29368459997931,131.94431430002442,131.94431430002442,132.44524279999314,315,45,132.44524279999314,132.44524279999314,132.44524279999314,132.44524279999314,132.44524279999314,132.44524279999314,132.44524279999314,132.44524279999314,132.44524279999314,132.79510930000106,132.79510930000106,132.79510930000106,132.79510930000106,132.79510930000106,132.79510930000106,132.79510930000106,132.79510930000106,132.79510930000106,22,0,,,132.79510930000106,132.99536230001831,6.1,132.99536230001831,1,6.1,1,1,1000,num_4,1.8573467999813147,,23,1,2026-03-04_13h10.19.406,2026A_exp2,2022.2.4,59.92617094635297,
1,0,0.0,0.0,1,0,18,18,24,,,,,134.88097870000638,135.51456280000275,135.51456280000275,136.0157262000139,45,315,136.0157262000139,136.0157262000139,136.0157262000139,136.0157262000139,136.0157262000139,136.0157262000139,136.0157262000139,136.0157262000139,136.0157262000139,136.3821462999913,136.3821462999913,136.3821462999913,136.3821462999913,136.3821462999913,136.3821462999913,136.3821462999913,136.3821462999913,136.3821462999913,11,2,"[0.03357119997963309, 0.11666559998411685]","[0.06688180001219735, 0.2838550999877043]",136.3821462999913,136.581955200003,0.0,136.581955200003,0,0.0,0,1,1000,num_1,2.4479532000259496,,23,1,2026-03-04_13h10.19.406,2026A_exp2,2022.2.4,59.92617094635297,
1,0,0.0,6.1,0,0,19,19,82,,,,,139.05160160001833,139.70210029999726,139.70210029999726,140.18640210002195,45,315,140.18640210002195,140.18640210002195,140.18640210002195,140.18640210002195,140.18640210002195,140.18640210002195,140.18640210002195,140.18640210002195,140.18640210002195,140.55293990002247,140.55293990002247,140.55293990002247,140.55293990002247,140.55293990002247,140.55293990002247,140.55293990002247,140.55293990002247,140.55293990002247,23,0,,,140.55293990002247,140.7530926000327,0.0,140.7530926000327,1,0.0,0,0,1000,num_4,0.9002669000183232,,23,1,2026-03-04_13h10.19.406,2026A_exp2,2022.2.4,59.92617094635297,
1,0,0.0,0.0,0,0,20,20,44,,,,,141.6707317000255,142.3212658999837,142.3212658999837,142.82265869999537,315,315,142.82265869999537,142.82265869999537,142.82265869999537,142.82265869999537,142.82265869999537,142.82265869999537,142.82265869999537,142.82265869999537,142.82265869999537,143.17216160002863,143.17216160002863,143.17216160002863,143.17216160002863,143.17216160002863,143.17216160002863,143.17216160002863,143.17216160002863,143.17216160002863,22,0,,,143.17216160002863,143.37255949998507,0.0,143.37255949998507,1,0.0,0,0,1000,num_4,1.4560504000401124,,23,1,2026-03-04_13h10.19.406,2026A_exp2,2022.2.4,59.92617094635297,
0,0,0.0,4.9,0,0,21,21,14,,,,,144.85748700000113,145.5079897000105,145.5079897000105,145.9921856999863,45,45,145.9921856999863,145.9921856999863,145.9921856999863,145.9921856999863,145.9921856999863,145.9921856999863,145.9921856999863,145.9921856999863,145.9921856999863,146.35872800002107,146.35872800002107,146.35872800002107,146.35872800002107,146.35872800002107,146.35872800002107,146.35872800002107,146.35872800002107,146.35872800002107,23,0,,,146.35872800002107,146.55906569998479,4.9,146.55906569998479,1,4.9,1,1,1000,num_4,1.1743534000124782,,23,1,2026-03-04_13h10.19.406,2026A_exp2,2022.2.4,59.92617094635297,
1000,1,0.0,6.1,0,0,22,22,75,,,,,147.76007150002988,148.4065941000008,148.4065941000008,148.897079700022,315,315,148.897079700022,148.897079700022,148.897079700022,148.897079700022,148.897079700022,148.897079700022,148.897079700022,148.897079700022,148.897079700022,149.2614145000116,149.2614145000116,149.2614145000116,149.2614145000116,149.2614145000116,149.2614145000116,149.2614145000116,149.2614145000116,149.2614145000116,23,0,,,149.2614145000116,149.46193009999115,1000,149.46193009999115,1000,1000,1000,1000,1,num_2,3.127321900043171,,23,1,2026-03-04_13h10.19.406,2026A_exp2,2022.2.4,59.92617094635297,
1,0,0.0,0.0,0,0,23,23,34,,,,,152.6149986999808,153.26575219997903,153.26575219997903,153.74999179999577,315,45,153.74999179999577,153.74999179999577,153.74999179999577,153.74999179999577,153.74999179999577,153.74999179999577,153.74999179999577,153.74999179999577,153.74999179999577,154.11638969997875,154.11638969997875,154.11638969997875,154.11638969997875,154.11638969997875,154.11638969997875,154.11638969997875,154.11638969997875,154.11638969997875,23,0,,,154.11638969997875,154.31689359998563,0.0,154.31689359998563,1,0.0,0,0,1000,num_4,1.3360133999958634,,23,1,2026-03-04_13h10.19.406,2026A_exp2,2022.2.4,59.92617094635297,
1000,1,0.0,6.1,1,0,24,24,3,,,,,155.68521289998898,156.3354656000156,156.3354656000156,156.8197037000209,45,315,156.8197037000209,156.8197037000209,156.8197037000209,156.8197037000209,156.8197037000209,156.8197037000209,156.8197037000209,156.8197037000209,156.8197037000209,157.1862518999842,157.1862518999842,157.1862518999842,157.1862518999842,157.1862518999842,157.1862518999842,157.1862518999842,157.1862518999842,157.1862518999842,23,0,,,157.1862518999842,157.38669369998388,1000,157.38669369998388,1000,1000,1000,1000,1,num_2,0.8273051000433043,,23,1,2026-03-04_13h10.19.406,2026A_exp2,2022.2.4,59.92617094635297,
1000,1,0.0,4.9,0,0,25,25,74,,,,,158.23723979998613,158.88810540002305,158.88810540002305,159.38900710002054,315,315,159.38900710002054,159.38900710002054,159.38900710002054,159.38900710002054,159.38900710002054,159.38900710002054,159.38900710002054,159.38900710002054,159.38900710002054,159.73877579998225,159.73877579998225,159.73877579998225,159.73877579998225,159.73877579998225,159.73877579998225,159.73877579998225,159.73877579998225,159.73877579998225,22,0,,,159.73877579998225,159.93909100000747,1000,159.93909100000747,1000,1000,1000,1000,0,num_3,1.5700805999804288,,23,1,2026-03-04_13h10.19.406,2026A_exp2,2022.2.4,59.92617094635297,
1,0,6.1,4.9,0,0,26,26,81,,,,,161.5410789999878,162.19125869998243,162.19125869998243,162.69229430000996,45,45,162.69229430000996,162.69229430000996,162.69229430000996,162.69229430000996,162.69229430000996,162.69229430000996,162.69229430000996,162.69229430000996,162.69229430000996,163.05858379998244,163.05858379998244,163.05858379998244,163.05858379998244,163.05858379998244,163.05858379998244,163.05858379998244,163.05858379998244,163.05858379998244,23,0,,,163.05858379998244,163.25900700001512,6.1,163.25900700001512,1,6.1,1,1,1000,num_4,1.0109678999870084,,23,1,2026-03-04_13h10.19.406,2026A_exp2,2022.2.4,59.92617094635297,
1000,1,0.0,0.0,0,0,27,27,15,,,,,164.29330530000152,164.9272554999916,164.9272554999916,165.42838860000484,315,45,165.42838860000484,165.42838860000484,165.42838860000484,165.42838860000484,165.42838860000484,165.42838860000484,165.42838860000484,165.42838860000484,165.42838860000484,165.79490809998242,165.79490809998242,165.79490809998242,165.79490809998242,165.79490809998242,165.79490809998242,165.79490809998242,165.79490809998242,165.79490809998242,23,0,,,165.79490809998242,165.99549950001528,1000,165.99549950001528,1000,1000,1000,1000,0,num_3,0.8261539000086486,,23,1,2026-03-04_13h10.19.406,2026A_exp2,2022.2.4,59.92617094635297,
1000,1,3.7,0.0,1,0,28,28,54,,,,,166.8459137000027,167.49653679999756,167.49653679999756,167.9808503999957,315,315,167.9808503999957,167.9808503999957,167.9808503999957,167.9808503999957,167.9808503999957,167.9808503999957,167.9808503999957,167.9808503999957,167.9808503999957,168.34744480001973,168.34744480001973,168.34744480001973,168.34744480001973,168.34744480001973,168.34744480001973,168.34744480001973,168.34744480001973,168.34744480001973,23,0,,,168.34744480001973,168.5476592000341,1000,168.5476592000341,1000,1000,1000,1000,0,num_3,1.7535913999890909,,23,1,2026-03-04_13h10.19.406,2026A_exp2,2022.2.4,59.92617094635297,
1000,1,6.1,3.7,0,0,29,29,18,,,,,170.33309470000677,170.98330530000385,170.98330530000385,171.4843393000192,45,45,171.4843393000192,171.4843393000192,171.4843393000192,171.4843393000192,171.4843393000192,171.4843393000192,171.4843393000192,171.4843393000192,171.4843393000192,171.85083609999856,171.85083609999856,171.85083609999856,171.85083609999856,171.85083609999856,171.85083609999856,171.85083609999856,171.85083609999856,171.85083609999856,23,0,,,171.85083609999856,172.0512932999991,1000,172.0512932999991,1000,1000,1000,1000,0,num_3,0.7691856999881566,,23,1,2026-03-04_13h10.19.406,2026A_exp2,2022.2.4,59.92617094635297,
1000,1,3.7,4.9,0,0,30,30,80,,,,,172.85210850002477,173.50267890002578,173.50267890002578,174.0035024000099,315,45,174.0035024000099,174.0035024000099,174.0035024000099,174.0035024000099,174.0035024000099,174.0035024000099,174.0035024000099,174.0035024000099,174.0035024000099,174.37016940000467,174.37016940000467,174.37016940000467,174.37016940000467,174.37016940000467,174.37016940000467,174.37016940000467,174.37016940000467,174.37016940000467,23,0,,,174.37016940000467,174.57031660003122,1000,174.57031660003122,1000,1000,1000,1000,1,num_2,0.6829501000465825,,23,1,2026-03-04_13h10.19.406,2026A_exp2,2022.2.4,59.92617094635297,
1,0,4.9,3.7,0,0,31,31,63,,,,,175.2711658999906,175.92181000002893,175.92181000002893,176.40616369998315,315,45,176.40616369998315,176.40616369998315,176.40616369998315,176.40616369998315,176.40616369998315,176.40616369998315,176.40616369998315,176.40616369998315,176.40616369998315,176.77228859998286,176.77228859998286,176.77228859998286,176.77228859998286,176.77228859998286,176.77228859998286,176.77228859998286,176.77228859998286,176.77228859998286,23,0,,,176.77228859998286,176.97282939997967,4.9,176.97282939997967,1,4.9,1,1,1000,num_4,1.1284847999922931,,23,1,2026-03-04_13h10.19.406,2026A_exp2,2022.2.4,59.92617094635297,
1000,1,0.0,6.1,1,0,32,32,62,,,,,178.12431789998664,178.75785370002268,178.75785370002268,179.2589205999975,45,315,179.2589205999975,179.2589205999975,179.2589205999975,179.2589205999975,179.2589205999975,179.2589205999975,179.2589205999975,179.2589205999975,179.2589205999975,179.625343599997,179.625343599997,179.625343599997,179.625343599997,179.625343599997,179.625343599997,179.625343599997,179.625343599997,179.625343599997,7,1,[0.0012531999964267015],[0.26711410004645586],179.625343599997,179.82564880000427,1000,179.82564880000427,1000,1000,1000,1000,0,num_3,1.5392442000447772,,23,1,2026-03-04_13h10.19.406,2026A_exp2,2022.2.4,59.92617094635297,
1,0,4.9,3.7,1,0,33,33,10,,,,,181.39430779998656,182.04448059998685,182.04448059998685,182.5286492999876,45,315,182.5286492999876,182.5286492999876,182.5286492999876,182.5286492999876,182.5286492999876,182.5286492999876,182.5286492999876,182.5286492999876,182.5286492999876,182.8952928999788,182.8952928999788,182.8952928999788,182.8952928999788,182.8952928999788,182.8952928999788,182.8952928999788,182.8952928999788,182.8952928999788,23,0,,,182.8952928999788,183.095570400008,3.7,183.095570400008,0,3.7,1,0,1000,num_1,1.2943871999741532,,23,1,2026-03-04_13h10.19.406,2026A_exp2,2022.2.4,59.92617094635297,
0,0,4.9,4.9,1,0,34,34,48,,,,,184.41352390003158,185.06408480001846,185.06408480001846,185.5485213000211,45,45,185.5485213000211,185.5485213000211,185.5485213000211,185.5485213000211,185.5485213000211,185.5485213000211,185.5485213000211,185.5485213000211,185.5485213000211,185.9148321999819,185.9148321999819,185.9148321999819,185.9148321999819,185.9148321999819,185.9148321999819,185.9148321999819,185.9148321999819,185.9148321999819,23,0,,,185.9148321999819,186.1153962999815,4.9,186.1153962999815,1,4.9,1,1,1000,num_4,1.313503600016702,,23,1,2026-03-04_13h10.19.406,2026A_exp2,2022.2.4,59.92617094635297,
1,0,0.0,0.0,0,0,35,35,17,,,,,187.45008570002392,188.11138359998586,188.11138359998586,188.58492009999463,45,45,188.58492009999463,188.58492009999463,188.58492009999463,188.58492009999463,188.58492009999463,188.58492009999463,188.58492009999463,188.58492009999463,188.58492009999463,188.95133790001273,188.95133790001273,188.95133790001273,188.95133790001273,188.95133790001273,188.95133790001273,188.95133790001273,188.95133790001273,188.95133790001273,23,0,,,188.95133790001273,189.15143000002718,0.0,189.15143000002718,1,0.0,0,0,1000,num_4,1.4693748999852687,,23,1,2026-03-04_13h10.19.406,2026A_exp2,2022.2.4,59.92617094635297,
1000,1,0.0,4.9,0,0,36,36,53,,,,,190.65311740001198,191.30369959998643,191.30369959998643,191.78796799998963,45,315,191.78796799998963,191.78796799998963,191.78796799998963,191.78796799998963,191.78796799998963,191.78796799998963,191.78796799998963,191.78796799998963,191.78796799998963,192.15445760003058,192.15445760003058,192.15445760003058,192.15445760003058,192.15445760003058,192.15445760003058,192.15445760003058,192.15445760003058,192.15445760003058,23,0,,,192.15445760003058,192.35470510000596,1000,192.35470510000596,1000,1000,1000,1000,0,num_3,1.1698591000167653,,23,1,2026-03-04_13h10.19.406,2026A_exp2,2022.2.4,59.92617094635297,
1000,1,6.1,4.9,0,0,37,37,68,,,,,193.55635949998396,194.20627520000562,194.20627520000562,194.70746559998952,315,315,194.70746559998952,194.70746559998952,194.70746559998952,194.70746559998952,194.70746559998952,194.70746559998952,194.70746559998952,194.70746559998952,194.70746559998952,195.05755309999222,195.05755309999222,195.05755309999222,195.05755309999222,195.05755309999222,195.05755309999222,195.05755309999222,195.05755309999222,195.05755309999222,22,0,,,195.05755309999222,195.2578676000121,1000,195.2578676000121,1000,1000,1000,1000,0,num_3,2.746930700028315,,23,1,2026-03-04_13h10.19.406,2026A_exp2,2022.2.4,59.92617094635297,
1000,1,0.0,3.7,0,0,38,38,57,,,,,198.0271266999771,198.67780639999546,198.67780639999546,199.1788927000016,315,45,199.1788927000016,199.1788927000016,199.1788927000016,199.1788927000016,199.1788927000016,199.1788927000016,199.1788927000016,199.1788927000016,199.1788927000016,199.52858029998606,199.52858029998606,199.52858029998606,199.52858029998606,199.52858029998606,199.52858029998606,199.52858029998606,199.52858029998606,199.52858029998606,22,0,,,199.52858029998606,199.72903819999192,1000,199.72903819999192,1000,1000,1000,1000,1,num_2,0.6203227000078186,,23,1,2026-03-04_13h10.19.406,2026A_exp2,2022.2.4,59.92617094635297,
1,0,4.9,4.9,0,0,39,39,84,,,,,200.37972139997873,201.03018210001756,201.03018210001756,201.53116890002275,315,315,201.53116890002275,201.53116890002275,201.53116890002275,201.53116890002275,201.53116890002275,201.53116890002275,201.53116890002275,201.53116890002275,201.53116890002275,201.8974753000075,201.8974753000075,201.8974753000075,201.8974753000075,201.8974753000075,201.8974753000075,201.8974753000075,201.8974753000075,201.8974753000075,23,0,,,201.8974753000075,202.09797000000253,4.9,202.09797000000253,1,4.9,1,1,1000,num_4,0.8831021999940276,,23,1,2026-03-04_13h10.19.406,2026A_exp2,2022.2.4,59.92617094635297,
1000,1,0.0,0.0,0,0,40,40,72,,,,,202.99897429998964,203.64930920000188,203.64930920000188,204.15045110002393,45,315,204.15045110002393,204.15045110002393,204.15045110002393,204.15045110002393,204.15045110002393,204.15045110002393,204.15045110002393,204.15045110002393,204.15045110002393,204.5002621000167,204.5002621000167,204.5002621000167,204.5002621000167,204.5002621000167,204.5002621000167,204.5002621000167,204.5002621000167,204.5002621000167,22,0,,,204.5002621000167,204.70081310003297,1000,204.70081310003297,1000,1000,1000,1000,1,num_2,1.8643532999558374,,23,1,2026-03-04_13h10.19.406,2026A_exp2,2022.2.4,59.92617094635297,
1000,1,0.0,0.0,0,0,41,41,45,,,,,206.5858019000152,207.23622010002146,207.23622010002146,207.72070669999812,315,315,207.72070669999812,207.72070669999812,207.72070669999812,207.72070669999812,207.72070669999812,207.72070669999812,207.72070669999812,207.72070669999812,207.72070669999812,208.08715340000344,208.08715340000344,208.08715340000344,208.08715340000344,208.08715340000344,208.08715340000344,208.08715340000344,208.08715340000344,208.08715340000344,23,0,,,208.08715340000344,208.28732860001037,1000,208.28732860001037,1000,1000,1000,1000,0,num_3,0.6296449000365101,,23,1,2026-03-04_13h10.19.406,2026A_exp2,2022.2.4,59.92617094635297,
1000,1,3.7,0.0,0,0,42,42,66,,,,,208.93834970000898,209.58858540002257,209.58858540002257,210.08959160000086,45,45,210.08959160000086,210.08959160000086,210.08959160000086,210.08959160000086,210.08959160000086,210.08959160000086,210.08959160000086,210.08959160000086,210.08959160000086,210.45617870002752,210.45617870002752,210.45617870002752,210.45617870002752,210.45617870002752,210.45617870002752,210.45617870002752,210.45617870002752,210.45617870002752,23,0,,,210.45617870002752,210.65658549999353,1000,210.65658549999353,1000,1000,1000,1000,0,num_3,0.6601912999758497,,23,1,2026-03-04_13h10.19.406,2026A_exp2,2022.2.4,59.92617094635297,
0,0,0.0,3.7,0,0,43,43,83,,,,,211.3403268000111,211.99105329997838,211.99105329997838,212.49194390000775,315,315,212.49194390000775,212.49194390000775,212.49194390000775,212.49194390000775,212.49194390000775,212.49194390000775,212.49194390000775,212.49194390000775,212.49194390000775,212.84181459998945,212.84181459998945,212.84181459998945,212.84181459998945,212.84181459998945,212.84181459998945,212.84181459998945,212.84181459998945,212.84181459998945,22,0,,,212.84181459998945,213.04211280000163,3.7,213.04211280000163,0,3.7,1,0,1000,num_1,1.1304983999580145,,23,1,2026-03-04_13h10.19.406,2026A_exp2,2022.2.4,59.92617094635297,
1,0,3.7,0.0,0,0,44,44,8,,,,,214.19348860002356,214.84382240002742,214.84382240002742,215.32841020001797,315,315,215.32841020001797,215.32841020001797,215.32841020001797,215.32841020001797,215.32841020001797,215.32841020001797,215.32841020001797,215.32841020001797,215.32841020001797,215.69457559997682,215.69457559997682,215.69457559997682,215.69457559997682,215.69457559997682,215.69457559997682,215.69457559997682,215.69457559997682,215.69457559997682,23,0,,,215.69457559997682,215.8950588000007,3.7,215.8950588000007,1,3.7,1,1,1000,num_4,0.9588340999907814,,23,1,2026-03-04_13h10.19.406,2026A_exp2,2022.2.4,59.92617094635297,
1000,1,0.0,0.0,0,0,45,45,6,,,,,216.8791360000032,217.51357010001084,217.51357010001084,218.0142279000138,45,315,218.0142279000138,218.0142279000138,218.0142279000138,218.0142279000138,218.0142279000138,218.0142279000138,218.0142279000138,218.0142279000138,218.0142279000138,218.38080280000577,218.38080280000577,218.38080280000577,218.38080280000577,218.38080280000577,218.38080280000577,218.38080280000577,218.38080280000577,218.38080280000577,23,0,,,218.38080280000577,218.5811296000029,1000,218.5811296000029,1000,1000,1000,1000,1,num_2,1.0315681000356562,,23,1,2026-03-04_13h10.19.406,2026A_exp2,2022.2.4,59.92617094635297,
1,0,0.0,0.0,0,0,46,46,51,,,,,219.63248050003313,220.28264049999416,220.28264049999416,220.7838062000228,45,315,220.7838062000228,220.7838062000228,220.7838062000228,220.7838062000228,220.7838062000228,220.7838062000228,220.7838062000228,220.7838062000228,220.7838062000228,221.14998940000078,221.14998940000078,221.14998940000078,221.14998940000078,221.14998940000078,221.14998940000078,221.14998940000078,221.14998940000078,221.14998940000078,23,0,,,221.14998940000078,221.35006490000524,0.0,221.35006490000524,1,0.0,0,0,1000,num_4,0.8630957999848761,,23,1,2026-03-04_13h10.19.406,2026A_exp2,2022.2.4,59.92617094635297,
1000,1,0.0,6.1,0,0,47,47,35,,,,,222.23486440000124,222.88531759998295,222.88531759998295,223.36954200000037,315,45,223.36954200000037,223.36954200000037,223.36954200000037,223.36954200000037,223.36954200000037,223.36954200000037,223.36954200000037,223.36954200000037,223.36954200000037,223.7361144000315,223.7361144000315,223.7361144000315,223.7361144000315,223.7361144000315,223.7361144000315,223.7361144000315,223.7361144000315,223.7361144000315,23,0,,,223.7361144000315,223.93630709999707,1000,223.93630709999707,1000,1000,1000,1000,1,num_2,0.5649197999737225,,23,1,2026-03-04_13h10.19.406,2026A_exp2,2022.2.4,59.92617094635297,
1000,1,0.0,6.1,1,0,48,48,69,,,,,224.52062339999247,225.17089690000284,225.17089690000284,225.67228009999963,45,315,225.67228009999963,225.67228009999963,225.67228009999963,225.67228009999963,225.67228009999963,225.67228009999963,225.67228009999963,225.67228009999963,225.67228009999963,226.03829729999416,226.03829729999416,226.03829729999416,226.03829729999416,226.03829729999416,226.03829729999416,226.03829729999416,226.03829729999416,226.03829729999416,23,0,,,226.03829729999416,226.238759400032,1000,226.238759400032,1000,1000,1000,1000,1,num_2,1.4228078000014648,,23,1,2026-03-04_13h10.19.406,2026A_exp2,2022.2.4,59.92617094635297,
1,0,3.7,0.0,1,0,49,49,13,,,,,227.69012360001216,228.3408021000214,228.3408021000214,228.8417653000215,45,45,228.8417653000215,228.8417653000215,228.8417653000215,228.8417653000215,228.8417653000215,228.8417653000215,228.8417653000215,228.8417653000215,228.8417653000215,229.20831720001297,229.20831720001297,229.20831720001297,229.20831720001297,229.20831720001297,229.20831720001297,229.20831720001297,229.20831720001297,229.20831720001297,23,0,,,229.20831720001297,229.4083722999785,0.0,229.4083722999785,0,0.0,0,1,1000,num_1,0.7324018999934196,,23,1,2026-03-04_13h10.19.406,2026A_exp2,2022.2.4,59.92617094635297,
1,0,3.7,3.7,1,0,50,50,86,,,,,230.159390899993,230.80993119999766,230.80993119999766,231.29418600001372,45,45,231.29418600001372,231.29418600001372,231.29418600001372,231.29418600001372,231.29418600001372,231.29418600001372,231.29418600001372,231.29418600001372,231.29418600001372,231.66071110003395,231.66071110003395,231.66071110003395,231.66071110003395,231.66071110003395,231.66071110003395,231.66071110003395,231.66071110003395,231.66071110003395,23,0,,,231.66071110003395,231.86085579998326,3.7,231.86085579998326,0,3.7,1,0,1000,num_1,2.3520427999901585,,23,1,2026-03-04_13h10.19.406,2026A_exp2,2022.2.4,59.92617094635297,
1,0,3.7,0.0,1,0,51,51,12,,,,,234.23014489997877,234.8806564999977,234.8806564999977,235.3651019000099,45,315,235.3651019000099,235.3651019000099,235.3651019000099,235.3651019000099,235.3651019000099,235.3651019000099,235.3651019000099,235.3651019000099,235.3651019000099,235.7313988999813,235.7313988999813,235.7313988999813,235.7313988999813,235.7313988999813,235.7313988999813,235.7313988999813,235.7313988999813,235.7313988999813,23,0,,,235.7313988999813,235.9317066000076,0.0,235.9317066000076,0,0.0,0,1,1000,num_1,0.9461027000215836,,23,1,2026-03-04_13h10.19.406,2026A_exp2,2022.2.4,59.92617094635297,
1000,1,0.0,6.1,1,0,52,52,52,,,,,236.8994967000326,237.54966630000854,237.54966630000854,238.03445470001316,315,315,238.03445470001316,238.03445470001316,238.03445470001316,238.03445470001316,238.03445470001316,238.03445470001316,238.03445470001316,238.03445470001316,238.03445470001316,238.40075740002794,238.40075740002794,238.40075740002794,238.40075740002794,238.40075740002794,238.40075740002794,238.40075740002794,238.40075740002794,238.40075740002794,23,0,,,238.40075740002794,238.60130440001376,1000,238.60130440001376,1000,1000,1000,1000,1,num_2,0.7716694999835454,,23,1,2026-03-04_13h10.19.406,2026A_exp2,2022.2.4,59.92617094635297,
1,0,0.0,4.9,1,0,53,53,1,,,,,239.40218859998276,240.05250300001353,240.05250300001353,240.55362610000884,315,45,240.55362610000884,240.55362610000884,240.55362610000884,240.55362610000884,240.55362610000884,240.55362610000884,240.55362610000884,240.55362610000884,240.55362610000884,240.90318939997815,240.90318939997815,240.90318939997815,240.90318939997815,240.90318939997815,240.90318939997815,240.90318939997815,240.90318939997815,240.90318939997815,22,0,,,240.90318939997815,241.10345500003314,4.9,241.10345500003314,0,4.9,1,0,1000,num_1,2.013927699998021,,23,1,2026-03-04_13h10.19.406,2026A_exp2,2022.2.4,59.92617094635297,
1,0,3.7,6.1,1,0,54,54,77,,,,,243.13895819999743,243.7894299000036,243.7894299000036,244.27387640002416,315,315,244.27387640002416,244.27387640002416,244.27387640002416,244.27387640002416,244.27387640002416,244.27387640002416,244.27387640002416,244.27387640002416,244.27387640002416,244.64051019999897,244.64051019999897,244.64051019999897,244.64051019999897,244.64051019999897,244.64051019999897,244.64051019999897,244.64051019999897,244.64051019999897,23,0,,,244.64051019999897,244.84055870003067,6.1,244.84055870003067,1,6.1,1,1,1000,num_4,1.5168679999769665,,23,1,2026-03-04_13h10.19.406,2026A_exp2,2022.2.4,59.92617094635297,
1000,1,0.0,4.9,0,0,55,55,5,,,,,246.37572100001853,247.02608859998873,247.02608859998873,247.52717930002837,315,45,247.52717930002837,247.52717930002837,247.52717930002837,247.52717930002837,247.52717930002837,247.52717930002837,247.52717930002837,247.52717930002837,247.52717930002837,247.87678019999294,247.87678019999294,247.87678019999294,247.87678019999294,247.87678019999294,247.87678019999294,247.87678019999294,247.87678019999294,247.87678019999294,22,0,,,247.87678019999294,248.07702710002195,1000,248.07702710002195,1000,1000,1000,1000,1,num_2,1.6166082000127062,,23,1,2026-03-04_13h10.19.406,2026A_exp2,2022.2.4,59.92617094635297,
1000,1,0.0,0.0,1,0,56,56,40,,,,,249.71240339998621,250.36279440001817,250.36279440001817,250.86389179999242,45,45,250.86389179999242,250.86389179999242,250.86389179999242,250.86389179999242,250.86389179999242,250.86389179999242,250.86389179999242,250.86389179999242,250.86389179999242,251.23013400001219,251.23013400001219,251.23013400001219,251.23013400001219,251.23013400001219,251.23013400001219,251.23013400001219,251.23013400001219,251.23013400001219,23,0,,,251.23013400001219,251.43073979998007,1000,251.43073979998007,1000,1000,1000,1000,0,num_3,0.7425927000003867,,23,1,2026-03-04_13h10.19.406,2026A_exp2,2022.2.4,59.92617094635297,
1000,1,6.1,4.9,0,0,57,57,49,,,,,252.1979678000207,252.83181459998013,252.83181459998013,253.33284149999963,45,45,253.33284149999963,253.33284149999963,253.33284149999963,253.33284149999963,253.33284149999963,253.33284149999963,253.33284149999963,253.33284149999963,253.33284149999963,253.69938160001766,253.69938160001766,253.69938160001766,253.69938160001766,253.69938160001766,253.69938160001766,253.69938160001766,253.69938160001766,253.69938160001766,23,0,,,253.69938160001766,253.8998517,1000,253.8998517,1000,1000,1000,1000,0,num_3,2.048861699993722,,23,1,2026-03-04_13h10.19.406,2026A_exp2,2022.2.4,59.92617094635297,
1,0,0.0,0.0,1,0,58,58,21,,,,,255.96881059999578,256.6189318000106,256.6189318000106,257.12006360001396,315,315,257.12006360001396,257.12006360001396,257.12006360001396,257.12006360001396,257.12006360001396,257.12006360001396,257.12006360001396,257.12006360001396,257.12006360001396,257.48650470003486,257.48650470003486,257.48650470003486,257.48650470003486,257.48650470003486,257.48650470003486,257.48650470003486,257.48650470003486,257.48650470003486,23,0,,,257.48650470003486,257.6865817999933,0.0,257.6865817999933,1,0.0,0,0,1000,num_4,1.1754311999538913,,23,1,2026-03-04_13h10.19.406,2026A_exp2,2022.2.4,59.92617094635297,
1,0,0.0,3.7,1,0,59,59,0,,,,,258.8878391000326,259.53851340000983,259.53851340000983,260.02302939997753,45,315,260.02302939997753,260.02302939997753,260.02302939997753,260.02302939997753,260.02302939997753,260.02302939997753,260.02302939997753,260.02302939997753,260.02302939997753,260.38949089997914,260.38949089997914,260.38949089997914,260.38949089997914,260.38949089997914,260.38949089997914,260.38949089997914,260.38949089997914,260.38949089997914,23,0,,,260.38949089997914,260.58979940001154,3.7,260.58979940001154,1,3.7,1,1,1000,num_4,2.00768069998594,,23,1,2026-03-04_13h10.19.406,2026A_exp2,2022.2.4,59.92617094635297,
0,0,0.0,0.0,1,0,60,60,38,,,,,262.6249156999984,263.2590338999871,263.2590338999871,263.76003900001524,315,315,263.76003900001524,263.76003900001524,263.76003900001524,263.76003900001524,263.76003900001524,263.76003900001524,263.76003900001524,263.76003900001524,263.76003900001524,264.1263531000004,264.1263531000004,264.1263531000004,264.1263531000004,264.1263531000004,264.1263531000004,264.1263531000004,264.1263531000004,264.1263531000004,10,7,"[0.00119859998812899, 0.05030139995506033, 0.10018289997242391, 0.1503417999483645, 0.20028609997825697, 0.26720030000433326, 0.3337708999752067]","[0.03350659995339811, 0.06690419994993135, 0.13349089998519048, 0.18362480000359938, 0.25029539997922257, 0.3005253999726847, 0.35041969997109845]",264.1263531000004,264.32686879998073,0.0,264.32686879998073,1,0.0,0,0,1000,num_4,1.0225907000130974,,23,1,2026-03-04_13h10.19.406,2026A_exp2,2022.2.4,59.92617094635297,
1000,1,3.7,4.9,1,0,61,61,20,,,,,265.3777955999831,266.0117244999856,266.0117244999856,266.5127941999817,45,315,266.5127941999817,266.5127941999817,266.5127941999817,266.5127941999817,266.5127941999817,266.5127941999817,266.5127941999817,266.5127941999817,266.5127941999817,266.87909160001436,266.87909160001436,266.87909160001436,266.87909160001436,266.87909160001436,266.87909160001436,266.87909160001436,266.87909160001436,266.87909160001436,23,0,,,266.87909160001436,267.0796781000099,1000,267.0796781000099,1000,1000,1000,1000,1,num_2,1.0770844999933615,,23,1,2026-03-04_13h10.19.406,2026A_exp2,2022.2.4,59.92617094635297,
1,0,0.0,6.1,0,0,62,62,43,,,,,268.1806194999954,268.83116900001187,268.83116900001187,269.3322090000147,315,315,269.3322090000147,269.3322090000147,269.3322090000147,269.3322090000147,269.3322090000147,269.3322090000147,269.3322090000147,269.3322090000147,269.3322090000147,269.6986312000081,269.6986312000081,269.6986312000081,269.6986312000081,269.6986312000081,269.6986312000081,269.6986312000081,269.6986312000081,269.6986312000081,23,0,,,269.6986312000081,269.8990072000306,0.0,269.8990072000306,0,0.0,0,1,1000,num_1,1.249972500023432,,23,1,2026-03-04_13h10.19.406,2026A_exp2,2022.2.4,59.92617094635297,
1000,1,0.0,0.0,1,0,63,63,46,,,,,271.1669273999869,271.800861500029,271.800861500029,272.30178889998933,45,315,272.30178889998933,272.30178889998933,272.30178889998933,272.30178889998933,272.30178889998933,272.30178889998933,272.30178889998933,272.30178889998933,272.30178889998933,272.6681963999872,272.6681963999872,272.6681963999872,272.6681963999872,272.6681963999872,272.6681963999872,272.6681963999872,272.6681963999872,272.6681963999872,23,0,,,272.6681963999872,272.8684803000069,1000,272.8684803000069,1000,1000,1000,1000,1,num_2,0.8093985000159591,,23,1,2026-03-04_13h10.19.406,2026A_exp2,2022.2.4,59.92617094635297,
1,0,3.7,0.0,1,0,64,64,28,,,,,273.70277580001857,274.3367556000012,274.3367556000012,274.8544348999858,45,315,274.8544348999858,274.8544348999858,274.8544348999858,274.8544348999858,274.8544348999858,274.8544348999858,274.8544348999858,274.8544348999858,274.8544348999858,275.20422760001384,275.20422760001384,275.20422760001384,275.20422760001384,275.20422760001384,275.20422760001384,275.20422760001384,275.20422760001384,275.20422760001384,22,0,,,275.20422760001384,275.40459320001537,0.0,275.40459320001537,0,0.0,0,1,1000,num_1,1.2079826000262983,,23,1,2026-03-04_13h10.19.406,2026A_exp2,2022.2.4,59.92617094635297,
1,0,6.1,3.7,0,0,65,65,31,,,,,276.6390372000169,277.2730665000272,277.2730665000272,277.77403089997824,45,45,277.77403089997824,277.77403089997824,277.77403089997824,277.77403089997824,277.77403089997824,277.77403089997824,277.77403089997824,277.77403089997824,277.77403089997824,278.1403926999774,278.1403926999774,278.1403926999774,278.1403926999774,278.1403926999774,278.1403926999774,278.1403926999774,278.1403926999774,278.1403926999774,23,0,,,278.1403926999774,278.34078000002773,6.1,278.34078000002773,1,6.1,1,1,1000,num_4,1.8323350999853574,,23,1,2026-03-04_13h10.19.406,2026A_exp2,2022.2.4,59.92617094635297,
1,0,0.0,0.0,1,0,66,66,41,,,,,280.19251060002716,280.8433092000196,280.8433092000196,281.34419249999337,315,45,281.34419249999337,281.34419249999337,281.34419249999337,281.34419249999337,281.34419249999337,281.34419249999337,281.34419249999337,281.34419249999337,281.34419249999337,281.7107862000121,281.7107862000121,281.7107862000121,281.7107862000121,281.7107862000121,281.7107862000121,281.7107862000121,281.7107862000121,281.7107862000121,23,0,,,281.7107862000121,281.91091760003474,0.0,281.91091760003474,0,0.0,0,1,1000,num_1,0.8388469000346959,,23,1,2026-03-04_13h10.19.406,2026A_exp2,2022.2.4,59.92617094635297,
1000,1,3.7,0.0,1,0,67,67,88,,,,,282.77852910000365,283.4290391000104,283.4290391000104,283.9134071000153,315,315,283.9134071000153,283.9134071000153,283.9134071000153,283.9134071000153,283.9134071000153,283.9134071000153,283.9134071000153,283.9134071000153,283.9134071000153,284.2798845000216,284.2798845000216,284.2798845000216,284.2798845000216,284.2798845000216,284.2798845000216,284.2798845000216,284.2798845000216,284.2798845000216,23,0,,,284.2798845000216,284.4802057000343,1000,284.4802057000343,1000,1000,1000,1000,0,num_3,0.8453906999784522,,23,1,2026-03-04_13h10.19.406,2026A_exp2,2022.2.4,59.92617094635297,
1,0,4.9,0.0,0,0,68,68,4,,,,,285.34793990000617,285.998396400013,285.998396400013,286.4994643999962,315,315,286.4994643999962,286.4994643999962,286.4994643999962,286.4994643999962,286.4994643999962,286.4994643999962,286.4994643999962,286.4994643999962,286.4994643999962,286.849286200013,286.849286200013,286.849286200013,286.849286200013,286.849286200013,286.849286200013,286.849286200013,286.849286200013,286.849286200013,22,0,,,286.849286200013,287.04935550002847,4.9,287.04935550002847,1,4.9,1,1,1000,num_4,0.8432609000010416,,23,1,2026-03-04_13h10.19.406,2026A_exp2,2022.2.4,59.92617094635297,
1000,1,0.0,6.1,1,0,69,69,19,,,,,287.91718960000435,288.56763970002066,288.56763970002066,289.0519681000151,315,45,289.0519681000151,289.0519681000151,289.0519681000151,289.0519681000151,289.0519681000151,289.0519681000151,289.0519681000151,289.0519681000151,289.0519681000151,289.4184891000041,289.4184891000041,289.4184891000041,289.4184891000041,289.4184891000041,289.4184891000041,289.4184891000041,289.4184891000041,289.4184891000041,23,0,,,289.4184891000041,289.61897100001806,1000,289.61897100001806,1000,1000,1000,1000,1,num_2,0.6338874000357464,,23,1,2026-03-04_13h10.19.406,2026A_exp2,2022.2.4,59.92617094635297,
1,0,4.9,6.1,0,0,70,70,33,,,,,290.2693251000019,290.9200173999998,290.9200173999998,291.42098250001436,45,45,291.42098250001436,291.42098250001436,291.42098250001436,291.42098250001436,291.42098250001436,291.42098250001436,291.42098250001436,291.42098250001436,291.42098250001436,291.78739620000124,291.78739620000124,291.78739620000124,291.78739620000124,291.78739620000124,291.78739620000124,291.78739620000124,291.78739620000124,291.78739620000124,23,0,,,291.78739620000124,291.9878631000174,4.9,291.9878631000174,1,4.9,1,1,1000,num_4,0.7939862000057474,,23,1,2026-03-04_13h10.19.406,2026A_exp2,2022.2.4,59.92617094635297,
1000,1,3.7,6.1,1,0,71,71,29,,,,,292.805216800014,293.4391088000266,293.4391088000266,293.94037790002767,315,45,293.94037790002767,293.94037790002767,293.94037790002767,293.94037790002767,293.94037790002767,293.94037790002767,293.94037790002767,293.94037790002767,293.94037790002767,294.30674040003214,294.30674040003214,294.30674040003214,294.30674040003214,294.30674040003214,294.30674040003214,294.30674040003214,294.30674040003214,294.30674040003214,23,0,,,294.30674040003214,294.5071209000307,1000,294.5071209000307,1000,1000,1000,1000,1,num_2,1.210248399991542,,23,1,2026-03-04_13h10.19.406,2026A_exp2,2022.2.4,59.92617094635297,
1000,1,0.0,3.7,1,0,72,72,65,,,,,295.7414185000234,296.3920240000007,296.3920240000007,296.87639029999264,45,45,296.87639029999264,296.87639029999264,296.87639029999264,296.87639029999264,296.87639029999264,296.87639029999264,296.87639029999264,296.87639029999264,296.87639029999264,297.24286260001827,297.24286260001827,297.24286260001827,297.24286260001827,297.24286260001827,297.24286260001827,297.24286260001827,297.24286260001827,297.24286260001827,23,0,,,297.24286260001827,297.4430935999844,1000,297.4430935999844,1000,1000,1000,1000,0,num_3,0.9781937999650836,,23,1,2026-03-04_13h10.19.406,2026A_exp2,2022.2.4,59.92617094635297,
0,0,0.0,0.0,0,0,73,73,22,,,,,298.4441506000003,299.09473770001205,299.09473770001205,299.5959110999829,45,45,299.5959110999829,299.5959110999829,299.5959110999829,299.5959110999829,299.5959110999829,299.5959110999829,299.5959110999829,299.5959110999829,299.5959110999829,299.9455240999814,299.9455240999814,299.9455240999814,299.9455240999814,299.9455240999814,299.9455240999814,299.9455240999814,299.9455240999814,299.9455240999814,22,0,,,299.9455240999814,300.145819700032,0.0,300.145819700032,0,0.0,0,1,1000,num_1,2.9961579000228085,,23,1,2026-03-04_13h10.19.406,2026A_exp2,2022.2.4,59.92617094635297,
1000,1,3.7,4.9,0,0,74,74,64,,,,,303.16548050002893,303.79956820001826,303.79956820001826,304.3007648999919,45,315,304.3007648999919,304.3007648999919,304.3007648999919,304.3007648999919,304.3007648999919,304.3007648999919,304.3007648999919,304.3007648999919,304.3007648999919,304.66700800001854,304.66700800001854,304.66700800001854,304.66700800001854,304.66700800001854,304.66700800001854,304.66700800001854,304.66700800001854,304.66700800001854,23,0,,,304.66700800001854,304.86723760003224,1000,304.86723760003224,1000,1000,1000,1000,1,num_2,0.681603399978485,,23,1,2026-03-04_13h10.19.406,2026A_exp2,2022.2.4,59.92617094635297,
0,0,6.1,0.0,1,0,75,75,30,,,,,305.5683125000214,306.2183383000083,306.2183383000083,306.71974979998777,45,315,306.71974979998777,306.71974979998777,306.71974979998777,306.71974979998777,306.71974979998777,306.71974979998777,306.71974979998777,306.71974979998777,306.71974979998777,307.0865156999789,307.0865156999789,307.0865156999789,307.0865156999789,307.0865156999789,307.0865156999789,307.0865156999789,307.0865156999789,307.0865156999789,23,0,,,307.0865156999789,307.2864191000117,6.1,307.2864191000117,1,6.1,1,1,1000,num_4,0.8953222000272945,,23,1,2026-03-04_13h10.19.406,2026A_exp2,2022.2.4,59.92617094635297,
1,0,4.9,3.7,1,0,76,76,26,,,,,308.20397610001964,308.8545687000151,308.8545687000151,309.3388823000132,315,315,309.3388823000132,309.3388823000132,309.3388823000132,309.3388823000132,309.3388823000132,309.3388823000132,309.3388823000132,309.3388823000132,309.3388823000132,309.70546119997744,309.70546119997744,309.70546119997744,309.70546119997744,309.70546119997744,309.70546119997744,309.70546119997744,309.70546119997744,309.70546119997744,23,0,,,309.70546119997744,309.90593419998186,3.7,309.90593419998186,0,3.7,1,0,1000,num_1,1.5554678000044078,,23,1,2026-03-04_13h10.19.406,2026A_exp2,2022.2.4,59.92617094635297,
1000,1,3.7,0.0,0,0,77,77,32,,,,,311.49076329998206,312.1245724000037,312.1245724000037,312.6256242999807,45,315,312.6256242999807,312.6256242999807,312.6256242999807,312.6256242999807,312.6256242999807,312.6256242999807,312.6256242999807,312.6256242999807,312.6256242999807,312.99202669999795,312.99202669999795,312.99202669999795,312.99202669999795,312.99202669999795,312.99202669999795,312.99202669999795,312.99202669999795,312.99202669999795,23,0,,,312.99202669999795,313.19230729999254,1000,313.19230729999254,1000,1000,1000,1000,0,num_3,0.6043691999511793,,23,1,2026-03-04_13h10.19.406,2026A_exp2,2022.2.4,59.92617094635297,
1000,1,0.0,0.0,1,0,78,78,56,,,,,313.8261775000137,314.47689920000266,314.47689920000266,314.9780101000215,315,315,314.9780101000215,314.9780101000215,314.9780101000215,314.9780101000215,314.9780101000215,314.9780101000215,314.9780101000215,314.9780101000215,314.9780101000215,315.3444460000028,315.3444460000028,315.3444460000028,315.3444460000028,315.3444460000028,315.3444460000028,315.3444460000028,315.3444460000028,315.3444460000028,23,0,,,315.3444460000028,315.5447234000312,1000,315.5447234000312,1000,1000,1000,1000,1,num_2,1.7245498999836855,,23,1,2026-03-04_13h10.19.406,2026A_exp2,2022.2.4,59.92617094635297,
1000,1,0.0,4.9,1,0,79,79,79,,,,,317.29642470000545,317.9470073999837,317.9470073999837,318.4481117000105,315,315,318.4481117000105,318.4481117000105,318.4481117000105,318.4481117000105,318.4481117000105,318.4481117000105,318.4481117000105,318.4481117000105,318.4481117000105,318.8144390999805,318.8144390999805,318.8144390999805,318.8144390999805,318.8144390999805,318.8144390999805,318.8144390999805,318.8144390999805,318.8144390999805,23,0,,,318.8144390999805,319.01493230002234,1000,319.01493230002234,1000,1000,1000,1000,1,num_2,0.8859038000227883,,23,1,2026-03-04_13h10.19.406,2026A_exp2,2022.2.4,59.92617094635297,
1000,1,0.0,0.0,0,0,80,80,36,,,,,319.91594949999126,320.5662538000033,320.5662538000033,321.06737300002715,45,45,321.06737300002715,321.06737300002715,321.06737300002715,321.06737300002715,321.06737300002715,321.06737300002715,321.06737300002715,321.06737300002715,321.06737300002715,321.43369530001655,321.43369530001655,321.43369530001655,321.43369530001655,321.43369530001655,321.43369530001655,321.43369530001655,321.43369530001655,321.43369530001655,23,0,,,321.43369530001655,321.63390449999133,1000,321.63390449999133,1000,1000,1000,1000,1,num_2,2.33937820000574,,23,1,2026-03-04_13h10.19.406,2026A_exp2,2022.2.4,59.92617094635297,
1000,1,0.0,0.0,0,0,81,81,67,,,,,324.0034053000272,324.65362850000383,324.65362850000383,325.1547055999981,45,315,325.1547055999981,325.1547055999981,325.1547055999981,325.1547055999981,325.1547055999981,325.1547055999981,325.1547055999981,325.1547055999981,325.1547055999981,325.50457290001214,325.50457290001214,325.50457290001214,325.50457290001214,325.50457290001214,325.50457290001214,325.50457290001214,325.50457290001214,325.50457290001214,22,0,,,325.50457290001214,325.70461670000805,1000,325.70461670000805,1000,1000,1000,1000,1,num_2,1.325035799993202,,23,1,2026-03-04_13h10.19.406,2026A_exp2,2022.2.4,59.92617094635297,
1000,1,0.0,0.0,0,0,82,82,7,,,,,327.0562072999892,327.70677709998563,327.70677709998563,328.20786550000776,315,315,328.20786550000776,328.20786550000776,328.20786550000776,328.20786550000776,328.20786550000776,328.20786550000776,328.20786550000776,328.20786550000776,328.20786550000776,328.5574947000132,328.5574947000132,328.5574947000132,328.5574947000132,328.5574947000132,328.5574947000132,328.5574947000132,328.5574947000132,328.5574947000132,22,0,,,328.5574947000132,328.758651799988,1000,328.7744714000146,1000,1000,1000,1000,0,num_3,0.4630317999981344,,23,1,2026-03-04_13h10.19.406,2026A_exp2,2022.2.4,59.92617094635297,
0,0,6.1,6.1,0,0,83,83,42,,,,,329.25871319998987,329.92016809998313,329.92016809998313,330.4141604999895,315,45,330.4141604999895,330.4141604999895,330.4141604999895,330.4141604999895,330.4141604999895,330.4141604999895,330.4141604999895,330.4141604999895,330.4141604999895,330.75970210001105,330.75970210001105,330.75970210001105,330.75970210001105,330.75970210001105,330.75970210001105,330.75970210001105,330.75970210001105,330.75970210001105,22,0,,,330.75970210001105,330.9601346999989,6.1,330.9766613999964,0,6.1,1,0,1000,num_1,1.10841350001283,,23,1,2026-03-04_13h10.19.406,2026A_exp2,2022.2.4,59.92617094635297,
1,0,4.9,0.0,1,0,84,84,25,,,,,332.111070199986,332.7617081999779,332.7617081999779,333.2463419000269,315,45,333.2463419000269,333.2463419000269,333.2463419000269,333.2463419000269,333.2463419000269,333.2463419000269,333.2463419000269,333.2463419000269,333.2463419000269,333.61247829999775,333.61247829999775,333.61247829999775,333.61247829999775,333.61247829999775,333.61247829999775,333.61247829999775,333.61247829999775,333.61247829999775,23,0,,,333.61247829999775,333.81286469998304,0.0,333.81286469998304,0,0.0,0,1,1000,num_1,0.8166259999852628,,23,1,2026-03-04_13h10.19.406,2026A_exp2,2022.2.4,59.92617094635297,
1,0,3.7,0.0,1,0,85,85,11,,,,,334.64717250003014,335.297556000005,335.297556000005,335.798593399988,315,315,335.798593399988,335.798593399988,335.798593399988,335.798593399988,335.798593399988,335.798593399988,335.798593399988,335.798593399988,335.798593399988,336.14857010002015,336.14857010002015,336.14857010002015,336.14857010002015,336.14857010002015,336.14857010002015,336.14857010002015,336.14857010002015,336.14857010002015,22,0,,,336.14857010002015,336.3488398999907,0.0,336.3488398999907,0,0.0,0,1,1000,num_1,0.7292637000209652,,23,1,2026-03-04_13h10.19.406,2026A_exp2,2022.2.4,59.92617094635297,
1,0,6.1,6.1,0,0,86,86,27,,,,,337.0993620000081,337.7500561000197,337.7500561000197,338.2508721000049,45,315,338.2508721000049,338.2508721000049,338.2508721000049,338.2508721000049,338.2508721000049,338.2508721000049,338.2508721000049,338.2508721000049,338.2508721000049,338.61764250003034,338.61764250003034,338.61764250003034,338.61764250003034,338.61764250003034,338.61764250003034,338.61764250003034,338.61764250003034,338.61764250003034,23,0,,,338.61764250003034,338.8179415999912,6.1,338.8179415999912,1,6.1,1,1,1000,num_4,3.2587078000069596,,23,1,2026-03-04_13h10.19.406,2026A_exp2,2022.2.4,59.92617094635297,
1000,1,6.1,0.0,0,0,87,87,89,,,,,342.1043590999907,342.7383409999893,342.7383409999893,343.2394145000144,315,315,343.2394145000144,343.2394145000144,343.2394145000144,343.2394145000144,343.2394145000144,343.2394145000144,343.2394145000144,343.2394145000144,343.2394145000144,343.6059489999898,343.6059489999898,343.6059489999898,343.6059489999898,343.6059489999898,343.6059489999898,343.6059489999898,343.6059489999898,343.6059489999898,23,0,,,343.6059489999898,343.80629640002735,1000,343.80629640002735,1000,1000,1000,1000,0,num_3,0.6544366999878548,,23,1,2026-03-04_13h10.19.406,2026A_exp2,2022.2.4,59.92617094635297,
1000,1,0.0,0.0,0,0,88,88,87,,,,,344.49045699997805,345.1409256000188,345.1409256000188,345.6419034000137,45,45,345.6419034000137,345.6419034000137,345.6419034000137,345.6419034000137,345.6419034000137,345.6419034000137,345.6419034000137,345.6419034000137,345.6419034000137,346.0082746000262,346.0082746000262,346.0082746000262,346.0082746000262,346.0082746000262,346.0082746000262,346.0082746000262,346.0082746000262,346.0082746000262,23,0,,,346.0082746000262,346.21030400000745,1000,346.21030400000745,1000,1000,1000,1000,0,num_3,1.3462618999765255,,23,1,2026-03-04_13h10.19.406,2026A_exp2,2022.2.4,59.92617094635297,
1000,1,0.0,0.0,1,0,89,89,60,,,,,347.57697719999123,348.2273513000109,348.2273513000109,348.7283074000152,315,45,348.7283074000152,348.7283074000152,348.7283074000152,348.7283074000152,348.7283074000152,348.7283074000152,348.7283074000152,348.7283074000152,348.7283074000152,349.0779996000347,349.0779996000347,349.0779996000347,349.0779996000347,349.0779996000347,349.0779996000347,349.0779996000347,349.0779996000347,349.0779996000347,22,0,,,349.0779996000347,349.2783348999801,1000,349.29521100001875,1000,1000,1000,1000,0,num_3,1.4622009000158869,,23,1,2026-03-04_13h10.19.406,2026A_exp2,2022.2.4,59.92617094635297,
,,,,,,,,,,,,,,,,,,,,,,,,,,,,,,,,,,,,,,,,,,,,,,,,,,,,350.79359040001873,,,,,,,
