validity,detectorcomp,contrastCW,contrastCCW,precueCWorCCW,block_80trials.thisRepN,block_80trials.thisTrialN,block_80trials.thisN,block_80trials.thisIndex,etRecord.started,etRecord.stopped,text.started,text.stopped,text_4.started,text_4.stopped,text_6.started,text_6.stopped,oriCW,oriCCW,roi_2.started,grating_UR.started,grating_UL.started,grating_LR.started,grating_LL.started,noise_UR.started,noise_UL.started,noise_LR.started,noise_LL.started,roi_2.stopped,grating_UR.stopped,grating_UL.stopped,grating_LR.stopped,grating_LL.stopped,noise_UR.stopped,noise_UL.stopped,noise_LR.stopped,noise_LL.stopped,outframe,roi_2.numLooks,roi_2.timesOn,roi_2.timesOff,text_2.started,text_2.stopped,probedcontrast,key_resp.started,respdetect,relevantContrast,correctDetect,TorFdetect,respCWorCCW,key_resp.keys,key_resp.rt,feedback_display_.started,participantNo,blockNo,date,expName,psychopyVersion,frameRate,
1,0,0.0,0.0,1,0,0,0,6,4.96001448482275e-05,4.96001448482275e-05,48.29410699987784,50.30621959990822,50.30621959990822,50.94876790000126,50.94876790000126,51.47006059996784,315,315,51.47006059996784,51.47006059996784,51.47006059996784,51.47006059996784,51.47006059996784,51.47006059996784,51.47006059996784,51.47006059996784,51.47006059996784,51.816174699924886,51.816174699924886,51.816174699924886,51.816174699924886,51.816174699924886,51.816174699924886,51.816174699924886,51.816174699924886,51.816174699924886,2,3,"[0.0010511998552829027, 0.045548300025984645, 0.18432779982686043]","[0.03787699993699789, 0.16764450003392994, 0.36721769999712706]",51.816174699924886,52.01634080009535,0.0,52.01634080009535,0,0.0,0,1,1000,num_1,0.5370732999872416,,34,10,2026-03-13_10h57.32.403,2026A_exp2,2022.2.4,59.9311271544867,
1000,1,0.0,0.0,0,0,1,1,81,,,,,52.5834518999327,53.234249599976465,53.234249599976465,53.73530950001441,315,45,53.73530950001441,53.73530950001441,53.73530950001441,53.73530950001441,53.73530950001441,53.73530950001441,53.73530950001441,53.73530950001441,53.73530950001441,54.1017233999446,54.1017233999446,54.1017233999446,54.1017233999446,54.1017233999446,54.1017233999446,54.1017233999446,54.1017233999446,54.1017233999446,0,1,[0.0016503001097589731],[0.3668911000713706],54.1017233999446,54.30658399988897,1000,54.30658399988897,1000,1000,1000,1000,1,num_2,0.6389079999644309,,34,10,2026-03-13_10h57.32.403,2026A_exp2,2022.2.4,59.9311271544867,
1,0,6.1,4.9,0,0,2,2,39,,,,,54.969289700035006,55.619773800019175,55.619773800019175,56.12090159999207,45,315,56.12090159999207,56.12090159999207,56.12090159999207,56.12090159999207,56.12090159999207,56.12090159999207,56.12090159999207,56.12090159999207,56.12090159999207,56.470756999915466,56.470756999915466,56.470756999915466,56.470756999915466,56.470756999915466,56.470756999915466,56.470756999915466,56.470756999915466,56.470756999915466,0,1,[0.0012056000996381044],[0.35054680006578565],56.470756999915466,56.681720099877566,6.1,56.681720099877566,1,6.1,1,1,1000,num_4,0.7026587999425828,,34,10,2026-03-13_10h57.32.403,2026A_exp2,2022.2.4,59.9311271544867,
1000,1,4.9,0.0,1,0,3,3,22,,,,,57.40506980009377,58.03933910001069,58.03933910001069,58.539899199968204,315,45,58.539899199968204,58.539899199968204,58.539899199968204,58.539899199968204,58.539899199968204,58.539899199968204,58.539899199968204,58.539899199968204,58.539899199968204,58.906309500103816,58.906309500103816,58.906309500103816,58.906309500103816,58.906309500103816,58.906309500103816,58.906309500103816,58.906309500103816,58.906309500103816,0,1,[0.0012486998457461596],[0.3673448998015374],58.906309500103816,59.10685999994166,1000,59.10685999994166,1000,1000,1000,1000,0,num_3,0.597974699921906,,34,10,2026-03-13_10h57.32.403,2026A_exp2,2022.2.4,59.9311271544867,
1,0,0.0,3.7,1,0,4,4,41,,,,,59.72407580004074,60.37465830007568,60.37465830007568,60.87584799993783,45,45,60.87584799993783,60.87584799993783,60.87584799993783,60.87584799993783,60.87584799993783,60.87584799993783,60.87584799993783,60.87584799993783,60.87584799993783,61.24225170002319,61.24225170002319,61.24225170002319,61.24225170002319,61.24225170002319,61.24225170002319,61.24225170002319,61.24225170002319,61.24225170002319,0,1,[0.0012117999140173197],[0.3672076999209821],61.24225170002319,61.442408999893814,3.7,61.442408999893814,1,3.7,1,1,1000,num_4,0.630895699840039,,34,10,2026-03-13_10h57.32.403,2026A_exp2,2022.2.4,59.9311271544867,
1000,1,3.7,0.0,0,0,5,5,45,,,,,62.09296669997275,62.74369499995373,62.74369499995373,63.228171499911696,45,45,63.228171499911696,63.228171499911696,63.228171499911696,63.228171499911696,63.228171499911696,63.228171499911696,63.228171499911696,63.228171499911696,63.228171499911696,63.59450410003774,63.59450410003774,63.59450410003774,63.59450410003774,63.59450410003774,63.59450410003774,63.59450410003774,63.59450410003774,63.59450410003774,0,1,[0.0010054998565465212],[0.3674822999164462],63.59450410003774,63.79670329997316,1000,63.79670329997316,1000,1000,1000,1000,1,num_2,0.5807151000481099,,34,10,2026-03-13_10h57.32.403,2026A_exp2,2022.2.4,59.9311271544867,
1000,1,0.0,0.0,0,0,6,6,85,,,,,64.39536569989286,65.045997899957,65.045997899957,65.54695719992742,315,315,65.54695719992742,65.54695719992742,65.54695719992742,65.54695719992742,65.54695719992742,65.54695719992742,65.54695719992742,65.54695719992742,65.54695719992742,65.91358779999427,65.91358779999427,65.91358779999427,65.91358779999427,65.91358779999427,65.91358779999427,65.91358779999427,65.91358779999427,65.91358779999427,0,1,[0.0008259001187980175],[0.3671524999663234],65.91358779999427,66.11340989987366,1000,66.11340989987366,1000,1000,1000,1000,0,num_3,0.5355798997916281,,34,10,2026-03-13_10h57.32.403,2026A_exp2,2022.2.4,59.9311271544867,
1000,1,0.0,0.0,0,0,7,7,17,,,,,66.66417129989713,67.31495509995148,67.31495509995148,67.81608609994873,315,45,67.81608609994873,67.81608609994873,67.81608609994873,67.81608609994873,67.81608609994873,67.81608609994873,67.81608609994873,67.81608609994873,67.81608609994873,68.18253139988519,68.18253139988519,68.18253139988519,68.18253139988519,68.18253139988519,68.18253139988519,68.18253139988519,68.18253139988519,68.18253139988519,0,1,[0.0012954999692738056],[0.3673049998469651],68.18253139988519,68.3837737001013,1000,68.3837737001013,1000,1000,1000,1000,1,num_2,0.5130646999459714,,34,10,2026-03-13_10h57.32.403,2026A_exp2,2022.2.4,59.9311271544867,
1000,1,0.0,0.0,1,0,8,8,27,,,,,68.91664110007696,69.56719419988804,69.56719419988804,70.06831089989282,45,315,70.06831089989282,70.06831089989282,70.06831089989282,70.06831089989282,70.06831089989282,70.06831089989282,70.06831089989282,70.06831089989282,70.06831089989282,70.43432109989226,70.43432109989226,70.43432109989226,70.43432109989226,70.43432109989226,70.43432109989226,70.43432109989226,70.43432109989226,70.43432109989226,0,1,[0.0012401000130921602],[0.3672443001996726],70.43432109989226,70.63679730007425,1000,70.63679730007425,1000,1000,1000,1000,1,num_2,0.4603951999451965,,34,10,2026-03-13_10h57.32.403,2026A_exp2,2022.2.4,59.9311271544867,
1,0,3.7,3.7,0,0,9,9,13,,,,,71.11857390007935,71.7693940999452,71.7693940999452,72.27026390004903,45,45,72.27026390004903,72.27026390004903,72.27026390004903,72.27026390004903,72.27026390004903,72.27026390004903,72.27026390004903,72.27026390004903,72.27026390004903,72.63675609999336,72.63675609999336,72.63675609999336,72.63675609999336,72.63675609999336,72.63675609999336,72.63675609999336,72.63675609999336,72.63675609999336,0,1,[0.0012086001224815845],[0.3668412999249995],72.63675609999336,72.83713799994439,3.7,72.83713799994439,0,3.7,1,0,1000,num_1,0.5718659998383373,,34,10,2026-03-13_10h57.32.403,2026A_exp2,2022.2.4,59.9311271544867,
1,0,0.0,4.9,1,0,10,10,21,,,,,73.4376105000265,74.088324500015,74.088324500015,74.57795529998839,45,45,74.57795529998839,74.57795529998839,74.57795529998839,74.57795529998839,74.57795529998839,74.57795529998839,74.57795529998839,74.57795529998839,74.57795529998839,74.93922200007364,74.93922200007364,74.93922200007364,74.93922200007364,74.93922200007364,74.93922200007364,74.93922200007364,74.93922200007364,74.93922200007364,23,0,,,74.93922200007364,75.13938970002346,4.9,75.13938970002346,1,4.9,1,1,1000,num_4,0.8210557999555022,,34,10,2026-03-13_10h57.32.403,2026A_exp2,2022.2.4,59.9311271544867,
1000,1,6.1,0.0,1,0,11,11,68,,,,,75.99023319990374,76.62419670005329,76.62419670005329,77.12549649993889,315,315,77.12549649993889,77.12549649993889,77.12549649993889,77.12549649993889,77.12549649993889,77.12549649993889,77.12549649993889,77.12549649993889,77.12549649993889,77.49155319994316,77.49155319994316,77.49155319994316,77.49155319994316,77.49155319994316,77.49155319994316,77.49155319994316,77.49155319994316,77.49155319994316,23,0,,,77.49155319994316,77.69351690006442,1000,77.69351690006442,1000,1000,1000,1000,0,num_3,0.8361543000210077,,34,10,2026-03-13_10h57.32.403,2026A_exp2,2022.2.4,59.9311271544867,
1,0,0.0,4.9,1,0,12,12,53,,,,,78.55968459998257,79.21002019988373,79.21002019988373,79.6946296999231,315,45,79.6946296999231,79.6946296999231,79.6946296999231,79.6946296999231,79.6946296999231,79.6946296999231,79.6946296999231,79.6946296999231,79.6946296999231,80.06099730008282,80.06099730008282,80.06099730008282,80.06099730008282,80.06099730008282,80.06099730008282,80.06099730008282,80.06099730008282,80.06099730008282,23,0,,,80.06099730008282,80.26102129998617,4.9,80.26102129998617,1,4.9,1,1,1000,num_4,0.6992895998992026,,34,10,2026-03-13_10h57.32.403,2026A_exp2,2022.2.4,59.9311271544867,
0,0,4.9,0.0,1,0,13,13,25,,,,,80.97842360008508,81.62911439989693,81.62911439989693,82.1136890000198,45,45,82.1136890000198,82.1136890000198,82.1136890000198,82.1136890000198,82.1136890000198,82.1136890000198,82.1136890000198,82.1136890000198,82.1136890000198,82.48008859995753,82.48008859995753,82.48008859995753,82.48008859995753,82.48008859995753,82.48008859995753,82.48008859995753,82.48008859995753,82.48008859995753,23,0,,,82.48008859995753,82.6803303998895,4.9,82.6803303998895,1,4.9,1,1,1000,num_4,0.7360564998816699,,34,10,2026-03-13_10h57.32.403,2026A_exp2,2022.2.4,59.9311271544867,
1000,1,0.0,0.0,0,0,14,14,15,,,,,83.44763400009833,84.09829819994047,84.09829819994047,84.58287869999185,45,45,84.58287869999185,84.58287869999185,84.58287869999185,84.58287869999185,84.58287869999185,84.58287869999185,84.58287869999185,84.58287869999185,84.58287869999185,84.94882869999856,84.94882869999856,84.94882869999856,84.94882869999856,84.94882869999856,84.94882869999856,84.94882869999856,84.94882869999856,84.94882869999856,23,0,,,84.94882869999856,85.1515800000634,1000,85.1515800000634,1000,1000,1000,1000,1,num_2,0.4901817999780178,,34,10,2026-03-13_10h57.32.403,2026A_exp2,2022.2.4,59.9311271544867,
1,0,0.0,0.0,0,0,15,15,63,,,,,85.6664432999678,86.3172718998976,86.3172718998976,86.81826990004629,45,45,86.81826990004629,86.81826990004629,86.81826990004629,86.81826990004629,86.81826990004629,86.81826990004629,86.81826990004629,86.81826990004629,86.81826990004629,87.1847288000863,87.1847288000863,87.1847288000863,87.1847288000863,87.1847288000863,87.1847288000863,87.1847288000863,87.1847288000863,87.1847288000863,23,0,,,87.1847288000863,87.38488729996607,0.0,87.38488729996607,1,0.0,0,0,1000,num_4,0.6077618000563234,,34,10,2026-03-13_10h57.32.403,2026A_exp2,2022.2.4,59.9311271544867,
1,0,0.0,6.1,1,0,16,16,36,,,,,88.01859849994071,88.66969819995575,88.66969819995575,89.17091699992307,315,45,89.17091699992307,89.17091699992307,89.17091699992307,89.17091699992307,89.17091699992307,89.17091699992307,89.17091699992307,89.17091699992307,89.17091699992307,89.52039780002087,89.52039780002087,89.52039780002087,89.52039780002087,89.52039780002087,89.52039780002087,89.52039780002087,89.52039780002087,89.52039780002087,22,0,,,89.52039780002087,89.72046729992144,6.1,89.72046729992144,1,6.1,1,1,1000,num_4,0.48096109996549785,,34,10,2026-03-13_10h57.32.403,2026A_exp2,2022.2.4,59.9311271544867,
1,0,0.0,6.1,0,0,17,17,34,,,,,90.22090479987673,90.87178490008228,90.87178490008228,91.37278459989466,45,45,91.37278459989466,91.37278459989466,91.37278459989466,91.37278459989466,91.37278459989466,91.37278459989466,91.37278459989466,91.37278459989466,91.37278459989466,91.73937160009518,91.73937160009518,91.73937160009518,91.73937160009518,91.73937160009518,91.73937160009518,91.73937160009518,91.73937160009518,91.73937160009518,23,0,,,91.73937160009518,91.93950040009804,0.0,91.93950040009804,0,0.0,0,1,1000,num_1,0.6859452000353485,,34,10,2026-03-13_10h57.32.403,2026A_exp2,2022.2.4,59.9311271544867,
0,0,0.0,0.0,1,0,18,18,71,,,,,92.65707760001533,93.29072980000637,93.29072980000637,93.79202300007455,315,315,93.79202300007455,93.79202300007455,93.79202300007455,93.79202300007455,93.79202300007455,93.79202300007455,93.79202300007455,93.79202300007455,93.79202300007455,94.15843220008537,94.15843220008537,94.15843220008537,94.15843220008537,94.15843220008537,94.15843220008537,94.15843220008537,94.15843220008537,94.15843220008537,23,0,,,94.15843220008537,94.35854650009423,0.0,94.35854650009423,0,0.0,0,1,1000,num_1,0.594855299917981,,34,10,2026-03-13_10h57.32.403,2026A_exp2,2022.2.4,59.9311271544867,
1,0,0.0,3.7,1,0,19,19,66,,,,,94.97581500001252,95.62645450001583,95.62645450001583,96.1109086999204,45,315,96.1109086999204,96.1109086999204,96.1109086999204,96.1109086999204,96.1109086999204,96.1109086999204,96.1109086999204,96.1109086999204,96.1109086999204,96.47725860006176,96.47725860006176,96.47725860006176,96.47725860006176,96.47725860006176,96.47725860006176,96.47725860006176,96.47725860006176,96.47725860006176,23,0,,,96.47725860006176,96.67768580000848,3.7,96.67768580000848,1,3.7,1,1,1000,num_4,0.939154899911955,,34,10,2026-03-13_10h57.32.403,2026A_exp2,2022.2.4,59.9311271544867,
1,0,0.0,6.1,0,0,20,20,60,,,,,97.6451032999903,98.27923700003885,98.27923700003885,98.7803402999416,45,45,98.7803402999416,98.7803402999416,98.7803402999416,98.7803402999416,98.7803402999416,98.7803402999416,98.7803402999416,98.7803402999416,98.7803402999416,99.14670630008914,99.14670630008914,99.14670630008914,99.14670630008914,99.14670630008914,99.14670630008914,99.14670630008914,99.14670630008914,99.14670630008914,23,0,,,99.14670630008914,99.34684189991094,0.0,99.34684189991094,0,0.0,0,1,1000,num_1,0.6307112998329103,,34,10,2026-03-13_10h57.32.403,2026A_exp2,2022.2.4,59.9311271544867,
1000,1,6.1,0.0,0,0,21,21,14,,,,,99.9974086000584,100.64825819991529,100.64825819991529,101.1326983999461,45,315,101.1326983999461,101.1326983999461,101.1326983999461,101.1326983999461,101.1326983999461,101.1326983999461,101.1326983999461,101.1326983999461,101.1326983999461,101.49880619999021,101.49880619999021,101.49880619999021,101.49880619999021,101.49880619999021,101.49880619999021,101.49880619999021,101.49880619999021,101.49880619999021,23,0,,,101.49880619999021,101.70118060009554,1000,101.70118060009554,1000,1000,1000,1000,0,num_3,0.556551800109446,,34,10,2026-03-13_10h57.32.403,2026A_exp2,2022.2.4,59.9311271544867,
1000,1,3.7,6.1,0,0,22,22,84,,,,,102.28309269994497,102.93380760005675,102.93380760005675,103.43485579988919,45,45,103.43485579988919,103.43485579988919,103.43485579988919,103.43485579988919,103.43485579988919,103.43485579988919,103.43485579988919,103.43485579988919,103.43485579988919,103.80128140002489,103.80128140002489,103.80128140002489,103.80128140002489,103.80128140002489,103.80128140002489,103.80128140002489,103.80128140002489,103.80128140002489,23,0,,,103.80128140002489,104.00330019998364,1000,104.00330019998364,1000,1000,1000,1000,1,num_2,0.6457293999847025,,34,10,2026-03-13_10h57.32.403,2026A_exp2,2022.2.4,59.9311271544867,
1000,1,0.0,0.0,0,0,23,23,74,,,,,104.66898260009475,105.31945480010472,105.31945480010472,105.8207421998959,45,315,105.8207421998959,105.8207421998959,105.8207421998959,105.8207421998959,105.8207421998959,105.8207421998959,105.8207421998959,105.8207421998959,105.8207421998959,106.18701789993793,106.18701789993793,106.18701789993793,106.18701789993793,106.18701789993793,106.18701789993793,106.18701789993793,106.18701789993793,106.18701789993793,23,0,,,106.18701789993793,106.38907140004449,1000,106.38907140004449,1000,1000,1000,1000,1,num_2,0.46005150000564754,,34,10,2026-03-13_10h57.32.403,2026A_exp2,2022.2.4,59.9311271544867,
1,0,3.7,6.1,0,0,24,24,55,,,,,106.87102139997296,107.52166710002348,107.52166710002348,108.02291029994376,45,45,108.02291029994376,108.02291029994376,108.02291029994376,108.02291029994376,108.02291029994376,108.02291029994376,108.02291029994376,108.02291029994376,108.02291029994376,108.38920239987783,108.38920239987783,108.38920239987783,108.38920239987783,108.38920239987783,108.38920239987783,108.38920239987783,108.38920239987783,108.38920239987783,23,0,,,108.38920239987783,108.58958439994603,3.7,108.58958439994603,0,3.7,1,0,1000,num_1,0.7077786999288946,,34,10,2026-03-13_10h57.32.403,2026A_exp2,2022.2.4,59.9311271544867,
1000,1,0.0,0.0,0,0,25,25,80,,,,,109.32349270000122,109.97425130009651,109.97425130009651,110.4587272000499,45,315,110.4587272000499,110.4587272000499,110.4587272000499,110.4587272000499,110.4587272000499,110.4587272000499,110.4587272000499,110.4587272000499,110.4587272000499,110.8251018000301,110.8251018000301,110.8251018000301,110.8251018000301,110.8251018000301,110.8251018000301,110.8251018000301,110.8251018000301,110.8251018000301,23,0,,,110.8251018000301,111.02789649995975,1000,111.02789649995975,1000,1000,1000,1000,1,num_2,0.5329010998830199,,34,10,2026-03-13_10h57.32.403,2026A_exp2,2022.2.4,59.9311271544867,
1000,1,6.1,0.0,0,0,26,26,82,,,,,111.57591979997233,112.22645319998264,112.22645319998264,112.72763919993304,315,315,112.72763919993304,112.72763919993304,112.72763919993304,112.72763919993304,112.72763919993304,112.72763919993304,112.72763919993304,112.72763919993304,112.72763919993304,113.09398890007287,113.09398890007287,113.09398890007287,113.09398890007287,113.09398890007287,113.09398890007287,113.09398890007287,113.09398890007287,113.09398890007287,23,0,,,113.09398890007287,113.29612950002775,1000,113.29612950002775,1000,1000,1000,1000,0,num_3,0.5044199000112712,,34,10,2026-03-13_10h57.32.403,2026A_exp2,2022.2.4,59.9311271544867,
1000,1,0.0,0.0,0,0,27,27,83,,,,,113.8280720000621,114.47897660010494,114.47897660010494,114.97988660004921,315,45,114.97988660004921,114.97988660004921,114.97988660004921,114.97988660004921,114.97988660004921,114.97988660004921,114.97988660004921,114.97988660004921,114.97988660004921,115.34628330008127,115.34628330008127,115.34628330008127,115.34628330008127,115.34628330008127,115.34628330008127,115.34628330008127,115.34628330008127,115.34628330008127,23,0,,,115.34628330008127,115.54892420000397,1000,115.54892420000397,1000,1000,1000,1000,1,num_2,0.43631909997202456,,34,10,2026-03-13_10h57.32.403,2026A_exp2,2022.2.4,59.9311271544867,
1000,1,0.0,0.0,1,0,28,28,23,,,,,116.01360829989426,116.6643109000288,116.6643109000288,117.16523670009337,315,315,117.16523670009337,117.16523670009337,117.16523670009337,117.16523670009337,117.16523670009337,117.16523670009337,117.16523670009337,117.16523670009337,117.16523670009337,117.53178220009431,117.53178220009431,117.53178220009431,117.53178220009431,117.53178220009431,117.53178220009431,117.53178220009431,117.53178220009431,117.53178220009431,23,0,,,117.53178220009431,117.73203269997612,1000,117.73203269997612,1000,1000,1000,1000,1,num_2,1.0295935000758618,,34,10,2026-03-13_10h57.32.403,2026A_exp2,2022.2.4,59.9311271544867,
1000,1,3.7,6.1,0,0,29,29,0,,,,,118.78296149987727,119.43363759992644,119.43363759992644,119.9347496998962,315,45,119.9347496998962,119.9347496998962,119.9347496998962,119.9347496998962,119.9347496998962,119.9347496998962,119.9347496998962,119.9347496998962,119.9347496998962,120.3012854999397,120.3012854999397,120.3012854999397,120.3012854999397,120.3012854999397,120.3012854999397,120.3012854999397,120.3012854999397,120.3012854999397,23,0,,,120.3012854999397,120.50321169989184,1000,120.50321169989184,1000,1000,1000,1000,0,num_3,0.561811099993065,,34,10,2026-03-13_10h57.32.403,2026A_exp2,2022.2.4,59.9311271544867,
1000,1,0.0,0.0,0,0,30,30,64,,,,,121.08536939998157,121.73608510009944,121.73608510009944,122.23707420006394,45,45,122.23707420006394,122.23707420006394,122.23707420006394,122.23707420006394,122.23707420006394,122.23707420006394,122.23707420006394,122.23707420006394,122.23707420006394,122.60359359998256,122.60359359998256,122.60359359998256,122.60359359998256,122.60359359998256,122.60359359998256,122.60359359998256,122.60359359998256,122.60359359998256,23,0,,,122.60359359998256,122.80564619996585,1000,122.80564619996585,1000,1000,1000,1000,1,num_2,0.45150700001977384,,34,10,2026-03-13_10h57.32.403,2026A_exp2,2022.2.4,59.9311271544867,
1,0,3.7,0.0,0,0,31,31,65,,,,,123.28761160001159,123.94071729993448,123.94071729993448,124.43915860005654,45,45,124.43915860005654,124.43915860005654,124.43915860005654,124.43915860005654,124.43915860005654,124.43915860005654,124.43915860005654,124.43915860005654,124.43915860005654,124.80573679995723,124.80573679995723,124.80573679995723,124.80573679995723,124.80573679995723,124.80573679995723,124.80573679995723,124.80573679995723,124.80573679995723,23,0,,,124.80573679995723,125.01673789997585,3.7,125.01673789997585,1,3.7,1,1,1000,num_4,1.391974400030449,,34,10,2026-03-13_10h57.32.403,2026A_exp2,2022.2.4,59.9311271544867,
1000,1,0.0,4.9,1,0,32,32,59,,,,,126.4408275000751,127.091233599931,127.091233599931,127.57579890009947,45,45,127.57579890009947,127.57579890009947,127.57579890009947,127.57579890009947,127.57579890009947,127.57579890009947,127.57579890009947,127.57579890009947,127.57579890009947,127.94224469992332,127.94224469992332,127.94224469992332,127.94224469992332,127.94224469992332,127.94224469992332,127.94224469992332,127.94224469992332,127.94224469992332,23,0,,,127.94224469992332,128.14243360003456,1000,128.14243360003456,1000,1000,1000,1000,1,num_2,0.5790013999212533,,34,10,2026-03-13_10h57.32.403,2026A_exp2,2022.2.4,59.9311271544867,
1000,1,6.1,0.0,1,0,33,33,75,,,,,128.74287449987605,129.39370810007676,129.39370810007676,129.89470340008847,315,45,129.89470340008847,129.89470340008847,129.89470340008847,129.89470340008847,129.89470340008847,129.89470340008847,129.89470340008847,129.89470340008847,129.89470340008847,130.26080449996516,130.26080449996516,130.26080449996516,130.26080449996516,130.26080449996516,130.26080449996516,130.26080449996516,130.26080449996516,130.26080449996516,23,0,,,130.26080449996516,130.46328660007566,1000,130.46328660007566,1000,1000,1000,1000,0,num_3,0.5065132000017911,,34,10,2026-03-13_10h57.32.403,2026A_exp2,2022.2.4,59.9311271544867,
1000,1,6.1,0.0,1,0,34,34,30,,,,,130.99513459997252,131.64584650006145,131.64584650006145,132.14705600007437,45,45,132.14705600007437,132.14705600007437,132.14705600007437,132.14705600007437,132.14705600007437,132.14705600007437,132.14705600007437,132.14705600007437,132.14705600007437,132.51343879988417,132.51343879988417,132.51343879988417,132.51343879988417,132.51343879988417,132.51343879988417,132.51343879988417,132.51343879988417,132.51343879988417,23,0,,,132.51343879988417,132.71386089990847,1000,132.71386089990847,1000,1000,1000,1000,0,num_3,0.48743270011618733,,34,10,2026-03-13_10h57.32.403,2026A_exp2,2022.2.4,59.9311271544867,
1000,1,4.9,0.0,0,0,35,35,26,,,,,133.2308165000286,133.88153939996846,133.88153939996846,134.38263930007815,315,315,134.38263930007815,134.38263930007815,134.38263930007815,134.38263930007815,134.38263930007815,134.38263930007815,134.38263930007815,134.38263930007815,134.38263930007815,134.74896580004133,134.74896580004133,134.74896580004133,134.74896580004133,134.74896580004133,134.74896580004133,134.74896580004133,134.74896580004133,134.74896580004133,23,0,,,134.74896580004133,134.94982809992507,1000,134.94982809992507,1000,1000,1000,1000,0,num_3,0.45071200001984835,,34,10,2026-03-13_10h57.32.403,2026A_exp2,2022.2.4,59.9311271544867,
1,0,3.7,0.0,0,0,36,36,42,,,,,135.41626029997133,136.0670739999041,136.0670739999041,136.56820060010068,315,315,136.56820060010068,136.56820060010068,136.56820060010068,136.56820060010068,136.56820060010068,136.56820060010068,136.56820060010068,136.56820060010068,136.56820060010068,136.93449770007282,136.93449770007282,136.93449770007282,136.93449770007282,136.93449770007282,136.93449770007282,136.93449770007282,136.93449770007282,136.93449770007282,23,0,,,136.93449770007282,137.13468590006232,3.7,137.13468590006232,1,3.7,1,1,1000,num_4,0.6826223998796195,,34,10,2026-03-13_10h57.32.403,2026A_exp2,2022.2.4,59.9311271544867,
1000,1,3.7,0.0,1,0,37,37,48,,,,,137.83534039999358,138.48602559999563,138.48602559999563,138.97054419992492,315,315,138.97054419992492,138.97054419992492,138.97054419992492,138.97054419992492,138.97054419992492,138.97054419992492,138.97054419992492,138.97054419992492,138.97054419992492,139.33686949987896,139.33686949987896,139.33686949987896,139.33686949987896,139.33686949987896,139.33686949987896,139.33686949987896,139.33686949987896,139.33686949987896,23,0,,,139.33686949987896,139.53906339989044,1000,139.53906339989044,1000,1000,1000,1000,1,num_2,0.5414393001701683,,34,10,2026-03-13_10h57.32.403,2026A_exp2,2022.2.4,59.9311271544867,
1000,1,0.0,6.1,0,0,38,38,9,,,,,140.10433820006438,140.7549598000478,140.7549598000478,141.25601110002026,45,315,141.25601110002026,141.25601110002026,141.25601110002026,141.25601110002026,141.25601110002026,141.25601110002026,141.25601110002026,141.25601110002026,141.25601110002026,141.6223452000413,141.6223452000413,141.6223452000413,141.6223452000413,141.6223452000413,141.6223452000413,141.6223452000413,141.6223452000413,141.6223452000413,2,1,[0.0012165000662207603],[0.3503682999871671],141.6223452000413,141.82444990007207,1000,141.82444990007207,1000,1000,1000,1000,1,num_2,0.6803338001482189,,34,10,2026-03-13_10h57.32.403,2026A_exp2,2022.2.4,59.9311271544867,
1000,1,3.7,0.0,0,0,39,39,2,,,,,142.5233436000999,143.17412859993055,143.17412859993055,143.67516250000335,315,315,143.67516250000335,143.67516250000335,143.67516250000335,143.67516250000335,143.67516250000335,143.67516250000335,143.67516250000335,143.67516250000335,143.67516250000335,144.02499810000882,144.02499810000882,144.02499810000882,144.02499810000882,144.02499810000882,144.02499810000882,144.02499810000882,144.02499810000882,144.02499810000882,22,0,,,144.02499810000882,144.2268431999255,1000,144.2268431999255,1000,1000,1000,1000,0,num_3,0.6300594001077116,,34,10,2026-03-13_10h57.32.403,2026A_exp2,2022.2.4,59.9311271544867,
1000,1,0.0,0.0,0,0,40,40,18,,,,,144.87589400005527,145.52647230005823,145.52647230005823,146.0107875999529,315,315,146.0107875999529,146.0107875999529,146.0107875999529,146.0107875999529,146.0107875999529,146.0107875999529,146.0107875999529,146.0107875999529,146.0107875999529,146.37728310003877,146.37728310003877,146.37728310003877,146.37728310003877,146.37728310003877,146.37728310003877,146.37728310003877,146.37728310003877,146.37728310003877,23,0,,,146.37728310003877,146.5790492000524,1000,146.5790492000524,1000,1000,1000,1000,1,num_2,0.5821636999025941,,34,10,2026-03-13_10h57.32.403,2026A_exp2,2022.2.4,59.9311271544867,
1000,1,0.0,0.0,1,0,41,41,12,,,,,147.17786829988472,147.82873780000955,147.82873780000955,148.32990900008008,315,45,148.32990900008008,148.32990900008008,148.32990900008008,148.32990900008008,148.32990900008008,148.32990900008008,148.32990900008008,148.32990900008008,148.32990900008008,148.69613340008073,148.69613340008073,148.69613340008073,148.69613340008073,148.69613340008073,148.69613340008073,148.69613340008073,148.69613340008073,148.69613340008073,23,0,,,148.69613340008073,148.89821129990742,1000,148.89821129990742,1000,1000,1000,1000,1,num_2,0.527155099902302,,34,10,2026-03-13_10h57.32.403,2026A_exp2,2022.2.4,59.9311271544867,
1000,1,0.0,6.1,1,0,42,42,88,,,,,149.4469161001034,150.0974119999446,150.0974119999446,150.59870809991844,315,45,150.59870809991844,150.59870809991844,150.59870809991844,150.59870809991844,150.59870809991844,150.59870809991844,150.59870809991844,150.59870809991844,150.59870809991844,150.96522910008207,150.96522910008207,150.96522910008207,150.96522910008207,150.96522910008207,150.96522910008207,150.96522910008207,150.96522910008207,150.96522910008207,23,0,,,150.96522910008207,151.16794899990782,1000,151.16794899990782,1000,1000,1000,1000,1,num_2,0.5851355001796037,,34,10,2026-03-13_10h57.32.403,2026A_exp2,2022.2.4,59.9311271544867,
1,0,3.7,0.0,1,0,43,43,50,,,,,151.7826165999286,152.4332665000111,152.4332665000111,152.93438920006156,315,315,152.93438920006156,152.93438920006156,152.93438920006156,152.93438920006156,152.93438920006156,152.93438920006156,152.93438920006156,152.93438920006156,152.93438920006156,153.30073480005376,153.30073480005376,153.30073480005376,153.30073480005376,153.30073480005376,153.30073480005376,153.30073480005376,153.30073480005376,153.30073480005376,23,0,,,153.30073480005376,153.50119169987738,0.0,153.50119169987738,1,0.0,0,0,1000,num_4,1.0675516999326646,,34,10,2026-03-13_10h57.32.403,2026A_exp2,2022.2.4,59.9311271544867,
1000,1,3.7,4.9,1,0,44,44,46,,,,,154.58548579993658,155.2360725000035,155.2360725000035,155.73715210007504,315,45,155.73715210007504,155.73715210007504,155.73715210007504,155.73715210007504,155.73715210007504,155.73715210007504,155.73715210007504,155.73715210007504,155.73715210007504,156.08704470004886,156.08704470004886,156.08704470004886,156.08704470004886,156.08704470004886,156.08704470004886,156.08704470004886,156.08704470004886,156.08704470004886,22,0,,,156.08704470004886,156.28734069992788,1000,156.30397000000812,1000,1000,1000,1000,1,num_2,0.6411764998920262,,34,10,2026-03-13_10h57.32.403,2026A_exp2,2022.2.4,59.9311271544867,
1000,1,0.0,6.1,1,0,45,45,62,,,,,156.97105609998107,157.6218959998805,157.6218959998805,158.1229721000418,315,315,158.1229721000418,158.1229721000418,158.1229721000418,158.1229721000418,158.1229721000418,158.1229721000418,158.1229721000418,158.1229721000418,158.1229721000418,158.4894123999402,158.4894123999402,158.4894123999402,158.4894123999402,158.4894123999402,158.4894123999402,158.4894123999402,158.4894123999402,158.4894123999402,23,0,,,158.4894123999402,158.69165479997173,1000,158.69165479997173,1000,1000,1000,1000,1,num_2,0.6697428000625223,,34,10,2026-03-13_10h57.32.403,2026A_exp2,2022.2.4,59.9311271544867,
1000,1,4.9,0.0,1,0,46,46,5,,,,,159.39024559990503,160.0408868000377,160.0408868000377,160.54201279999688,315,315,160.54201279999688,160.54201279999688,160.54201279999688,160.54201279999688,160.54201279999688,160.54201279999688,160.54201279999688,160.54201279999688,160.54201279999688,160.90844990010373,160.90844990010373,160.90844990010373,160.90844990010373,160.90844990010373,160.90844990010373,160.90844990010373,160.90844990010373,160.90844990010373,23,0,,,160.90844990010373,161.11047010007314,1000,161.11047010007314,1000,1000,1000,1000,1,num_2,0.578418199904263,,34,10,2026-03-13_10h57.32.403,2026A_exp2,2022.2.4,59.9311271544867,
1000,1,4.9,6.1,0,0,47,47,20,,,,,161.7092178000603,162.3600186998956,162.3600186998956,162.86112500005402,45,45,162.86112500005402,162.86112500005402,162.86112500005402,162.86112500005402,162.86112500005402,162.86112500005402,162.86112500005402,162.86112500005402,162.86112500005402,163.22748950007372,163.22748950007372,163.22748950007372,163.22748950007372,163.22748950007372,163.22748950007372,163.22748950007372,163.22748950007372,163.22748950007372,23,0,,,163.22748950007372,163.4296601000242,1000,163.4296601000242,1000,1000,1000,1000,1,num_2,0.48306590015999973,,34,10,2026-03-13_10h57.32.403,2026A_exp2,2022.2.4,59.9311271544867,
1,0,0.0,4.9,0,0,48,48,4,,,,,163.9449932000134,164.59555339999497,164.59555339999497,165.0799986999482,315,45,165.0799986999482,165.0799986999482,165.0799986999482,165.0799986999482,165.0799986999482,165.0799986999482,165.0799986999482,165.0799986999482,165.0799986999482,165.44631580007263,165.44631580007263,165.44631580007263,165.44631580007263,165.44631580007263,165.44631580007263,165.44631580007263,165.44631580007263,165.44631580007263,23,0,,,165.44631580007263,165.6465489999391,0.0,165.6465489999391,0,0.0,0,1,1000,num_1,0.8748982001561671,,34,10,2026-03-13_10h57.32.403,2026A_exp2,2022.2.4,59.9311271544867,
1000,1,0.0,3.7,0,0,49,49,51,,,,,166.54730259999633,167.19814780005254,167.19814780005254,167.68270569993183,45,315,167.68270569993183,167.68270569993183,167.68270569993183,167.68270569993183,167.68270569993183,167.68270569993183,167.68270569993183,167.68270569993183,167.68270569993183,168.0487283000257,168.0487283000257,168.0487283000257,168.0487283000257,168.0487283000257,168.0487283000257,168.0487283000257,168.0487283000257,168.0487283000257,23,0,,,168.0487283000257,168.25437909993343,1000,168.25437909993343,1000,1000,1000,1000,1,num_2,0.45821100007742643,,34,10,2026-03-13_10h57.32.403,2026A_exp2,2022.2.4,59.9311271544867,
0,0,0.0,6.1,0,0,50,50,7,,,,,168.73286979994737,169.38357859989628,169.38357859989628,169.88463769992813,45,315,169.88463769992813,169.88463769992813,169.88463769992813,169.88463769992813,169.88463769992813,169.88463769992813,169.88463769992813,169.88463769992813,169.88463769992813,170.25139510002919,170.25139510002919,170.25139510002919,170.25139510002919,170.25139510002919,170.25139510002919,170.25139510002919,170.25139510002919,170.25139510002919,23,0,,,170.25139510002919,170.45139109995216,6.1,170.45139109995216,1,6.1,1,1,1000,num_4,0.8857130999676883,,34,10,2026-03-13_10h57.32.403,2026A_exp2,2022.2.4,59.9311271544867,
0,0,6.1,3.7,1,0,51,51,49,,,,,171.3689061999321,172.01949519990012,172.01949519990012,172.50391569989733,315,315,172.50391569989733,172.50391569989733,172.50391569989733,172.50391569989733,172.50391569989733,172.50391569989733,172.50391569989733,172.50391569989733,172.50391569989733,172.87038680003025,172.87038680003025,172.87038680003025,172.87038680003025,172.87038680003025,172.87038680003025,172.87038680003025,172.87038680003025,172.87038680003025,23,0,,,172.87038680003025,173.07066969992593,6.1,173.07066969992593,0,6.1,1,0,1000,num_1,1.0096432999707758,,34,10,2026-03-13_10h57.32.403,2026A_exp2,2022.2.4,59.9311271544867,
1000,1,0.0,4.9,1,0,52,52,31,,,,,174.10475729987957,174.7555577000603,174.7555577000603,175.24004819989204,315,45,175.24004819989204,175.24004819989204,175.24004819989204,175.24004819989204,175.24004819989204,175.24004819989204,175.24004819989204,175.24004819989204,175.24004819989204,175.60656030010432,175.60656030010432,175.60656030010432,175.60656030010432,175.60656030010432,175.60656030010432,175.60656030010432,175.60656030010432,175.60656030010432,23,0,,,175.60656030010432,175.8085229001008,1000,175.8085229001008,1000,1000,1000,1000,1,num_2,0.6642106999643147,,34,10,2026-03-13_10h57.32.403,2026A_exp2,2022.2.4,59.9311271544867,
1000,1,0.0,4.9,1,0,53,53,79,,,,,176.4907394000329,177.14126909989864,177.14126909989864,177.64258109987713,45,45,177.64258109987713,177.64258109987713,177.64258109987713,177.64258109987713,177.64258109987713,177.64258109987713,177.64258109987713,177.64258109987713,177.64258109987713,178.00891519989818,178.00891519989818,178.00891519989818,178.00891519989818,178.00891519989818,178.00891519989818,178.00891519989818,178.00891519989818,178.00891519989818,23,0,,,178.00891519989818,178.20880599995144,1000,178.20880599995144,1000,1000,1000,1000,1,num_2,0.5047660998534411,,34,10,2026-03-13_10h57.32.403,2026A_exp2,2022.2.4,59.9311271544867,
1000,1,0.0,4.9,1,0,54,54,76,,,,,178.74296090006828,179.39365720003843,179.39365720003843,179.89481780002825,315,315,179.89481780002825,179.89481780002825,179.89481780002825,179.89481780002825,179.89481780002825,179.89481780002825,179.89481780002825,179.89481780002825,179.89481780002825,180.26079339999706,180.26079339999706,180.26079339999706,180.26079339999706,180.26079339999706,180.26079339999706,180.26079339999706,180.26079339999706,180.26079339999706,0,1,[0.0012536998838186264],[0.3672796997707337],180.26079339999706,180.4632300999947,1000,180.4632300999947,1000,1000,1000,1000,1,num_2,0.5223251001443714,,34,10,2026-03-13_10h57.32.403,2026A_exp2,2022.2.4,59.9311271544867,
1,0,0.0,3.7,0,0,55,55,61,,,,,181.01187229994684,181.6625580000691,181.6625580000691,182.16350169992074,45,315,182.16350169992074,182.16350169992074,182.16350169992074,182.16350169992074,182.16350169992074,182.16350169992074,182.16350169992074,182.16350169992074,182.16350169992074,182.52997300005518,182.52997300005518,182.52997300005518,182.52997300005518,182.52997300005518,182.52997300005518,182.52997300005518,182.52997300005518,182.52997300005518,23,0,,,182.52997300005518,182.73038690001704,0.0,182.73038690001704,0,0.0,0,1,1000,num_1,0.6231360000092536,,34,10,2026-03-13_10h57.32.403,2026A_exp2,2022.2.4,59.9311271544867,
1,0,0.0,0.0,0,0,56,56,1,,,,,183.38077459996566,184.0316975999158,184.0316975999158,184.51607410004362,315,45,184.51607410004362,184.51607410004362,184.51607410004362,184.51607410004362,184.51607410004362,184.51607410004362,184.51607410004362,184.51607410004362,184.51607410004362,184.88244309998117,184.88244309998117,184.88244309998117,184.88244309998117,184.88244309998117,184.88244309998117,184.88244309998117,184.88244309998117,184.88244309998117,23,0,,,184.88244309998117,185.08269619988278,0.0,185.08269619988278,0,0.0,0,1,1000,num_1,0.766447699861601,,34,10,2026-03-13_10h57.32.403,2026A_exp2,2022.2.4,59.9311271544867,
1,0,6.1,0.0,0,0,57,57,56,,,,,185.86662509990856,186.500676299911,186.500676299911,187.00164699996822,45,315,187.00164699996822,187.00164699996822,187.00164699996822,187.00164699996822,187.00164699996822,187.00164699996822,187.00164699996822,187.00164699996822,187.00164699996822,187.36822669999674,187.36822669999674,187.36822669999674,187.36822669999674,187.36822669999674,187.36822669999674,187.36822669999674,187.36822669999674,187.36822669999674,0,1,[0.0011974000371992588],[0.3670353000052273],187.36822669999674,187.56844169995748,6.1,187.56844169995748,1,6.1,1,1,1000,num_4,1.2642868999391794,,34,10,2026-03-13_10h57.32.403,2026A_exp2,2022.2.4,59.9311271544867,
1000,1,0.0,0.0,1,0,58,58,33,,,,,188.85308500006795,189.50386380008422,189.50386380008422,189.98810010007583,45,45,189.98810010007583,189.98810010007583,189.98810010007583,189.98810010007583,189.98810010007583,189.98810010007583,189.98810010007583,189.98810010007583,189.98810010007583,190.35457729990594,190.35457729990594,190.35457729990594,190.35457729990594,190.35457729990594,190.35457729990594,190.35457729990594,190.35457729990594,190.35457729990594,23,0,,,190.35457729990594,190.55687110009603,1000,190.55687110009603,1000,1000,1000,1000,1,num_2,2.4523341997992247,,34,10,2026-03-13_10h57.32.403,2026A_exp2,2022.2.4,59.9311271544867,
0,0,0.0,3.7,1,0,59,59,10,,,,,193.0406984000001,193.69129149988294,193.69129149988294,194.19229790009558,45,45,194.19229790009558,194.19229790009558,194.19229790009558,194.19229790009558,194.19229790009558,194.19229790009558,194.19229790009558,194.19229790009558,194.19229790009558,194.5587595999241,194.5587595999241,194.5587595999241,194.5587595999241,194.5587595999241,194.5587595999241,194.5587595999241,194.5587595999241,194.5587595999241,23,0,,,194.5587595999241,194.75876430002972,0.0,194.75876430002972,0,0.0,0,1,1000,num_1,0.5860504999291152,,34,10,2026-03-13_10h57.32.403,2026A_exp2,2022.2.4,59.9311271544867,
1000,1,4.9,6.1,1,0,60,60,28,,,,,195.3762006999459,196.02697800006717,196.02697800006717,196.5113413000945,45,45,196.5113413000945,196.5113413000945,196.5113413000945,196.5113413000945,196.5113413000945,196.5113413000945,196.5113413000945,196.5113413000945,196.5113413000945,196.87777250004,196.87777250004,196.87777250004,196.87777250004,196.87777250004,196.87777250004,196.87777250004,196.87777250004,196.87777250004,23,0,,,196.87777250004,197.08011449989863,1000,197.08011449989863,1000,1000,1000,1000,1,num_2,0.5850687001366168,,34,10,2026-03-13_10h57.32.403,2026A_exp2,2022.2.4,59.9311271544867,
1,0,4.9,0.0,1,0,61,61,8,,,,,197.69522299990058,198.34588399995118,198.34588399995118,198.84686710010283,315,45,198.84686710010283,198.84686710010283,198.84686710010283,198.84686710010283,198.84686710010283,198.84686710010283,198.84686710010283,198.84686710010283,198.84686710010283,199.21347859990783,199.21347859990783,199.21347859990783,199.21347859990783,199.21347859990783,199.21347859990783,199.21347859990783,199.21347859990783,199.21347859990783,23,0,,,199.21347859990783,199.4137361999601,0.0,199.4137361999601,1,0.0,0,0,1000,num_4,0.7715292999055237,,34,10,2026-03-13_10h57.32.403,2026A_exp2,2022.2.4,59.9311271544867,
1,0,4.9,0.0,1,0,62,62,38,,,,,200.21432600007392,200.8651199999731,200.8651199999731,201.34954319987446,315,315,201.34954319987446,201.34954319987446,201.34954319987446,201.34954319987446,201.34954319987446,201.34954319987446,201.34954319987446,201.34954319987446,201.34954319987446,201.71585040003993,201.71585040003993,201.71585040003993,201.71585040003993,201.71585040003993,201.71585040003993,201.71585040003993,201.71585040003993,201.71585040003993,23,0,,,201.71585040003993,201.91611350001767,0.0,201.91611350001767,0,0.0,0,1,1000,num_1,0.9004027000628412,,34,10,2026-03-13_10h57.32.403,2026A_exp2,2022.2.4,59.9311271544867,
1000,1,6.1,0.0,1,0,63,63,16,,,,,202.83365070004947,203.48432669998147,203.48432669998147,203.96876570000313,45,45,203.96876570000313,203.96876570000313,203.96876570000313,203.96876570000313,203.96876570000313,203.96876570000313,203.96876570000313,203.96876570000313,203.96876570000313,204.33524829987437,204.33524829987437,204.33524829987437,204.33524829987437,204.33524829987437,204.33524829987437,204.33524829987437,204.33524829987437,204.33524829987437,23,0,,,204.33524829987437,204.53728460008278,1000,204.53728460008278,1000,1000,1000,1000,0,num_3,0.44808349991217256,,34,10,2026-03-13_10h57.32.403,2026A_exp2,2022.2.4,59.9311271544867,
1,0,0.0,0.0,1,0,64,64,73,,,,,205.00259199994616,205.65303079993464,205.65303079993464,206.15458269999363,45,45,206.15458269999363,206.15458269999363,206.15458269999363,206.15458269999363,206.15458269999363,206.15458269999363,206.15458269999363,206.15458269999363,206.15458269999363,206.52074300008826,206.52074300008826,206.52074300008826,206.52074300008826,206.52074300008826,206.52074300008826,206.52074300008826,206.52074300008826,206.52074300008826,0,1,[0.0012423000298440456],[0.36690030014142394],206.52074300008826,206.720953800017,0.0,206.720953800017,1,0.0,0,0,1000,num_4,1.1361384000629187,,34,10,2026-03-13_10h57.32.403,2026A_exp2,2022.2.4,59.9311271544867,
1000,1,4.9,3.7,0,0,65,65,32,,,,,207.88870220002718,208.53943519992754,208.53943519992754,209.0239269998856,315,315,209.0239269998856,209.0239269998856,209.0239269998856,209.0239269998856,209.0239269998856,209.0239269998856,209.0239269998856,209.0239269998856,209.0239269998856,209.3902241999749,209.3902241999749,209.3902241999749,209.3902241999749,209.3902241999749,209.3902241999749,209.3902241999749,209.3902241999749,209.3902241999749,23,0,,,209.3902241999749,209.59222940006293,1000,209.59222940006293,1000,1000,1000,1000,0,num_3,0.5603117998689413,,34,10,2026-03-13_10h57.32.403,2026A_exp2,2022.2.4,59.9311271544867,
1,0,3.7,0.0,0,0,66,66,3,,,,,210.17440990009345,210.82511319988407,210.82511319988407,211.3261072000023,45,45,211.3261072000023,211.3261072000023,211.3261072000023,211.3261072000023,211.3261072000023,211.3261072000023,211.3261072000023,211.3261072000023,211.3261072000023,211.69261869997717,211.69261869997717,211.69261869997717,211.69261869997717,211.69261869997717,211.69261869997717,211.69261869997717,211.69261869997717,211.69261869997717,21,1,[0.31718759983778],[0.3505539000034332],211.69261869997717,211.89268859988078,3.7,211.89268859988078,0,3.7,1,0,1000,num_1,0.5883681999985129,,34,10,2026-03-13_10h57.32.403,2026A_exp2,2022.2.4,59.9311271544867,
1000,1,0.0,0.0,0,0,67,67,86,,,,,212.51039059995674,213.14415060007013,213.14415060007013,213.6450855000876,45,315,213.6450855000876,213.6450855000876,213.6450855000876,213.6450855000876,213.6450855000876,213.6450855000876,213.6450855000876,213.6450855000876,213.6450855000876,214.01160149998032,214.01160149998032,214.01160149998032,214.01160149998032,214.01160149998032,214.01160149998032,214.01160149998032,214.01160149998032,214.01160149998032,23,0,,,214.01160149998032,214.21351610007696,1000,214.21351610007696,1000,1000,1000,1000,0,num_3,0.47545189992524683,,34,10,2026-03-13_10h57.32.403,2026A_exp2,2022.2.4,59.9311271544867,
1,0,3.7,0.0,1,0,68,68,19,,,,,214.71223829989322,215.36293619987555,215.36293619987555,215.84732909989543,315,315,215.84732909989543,215.84732909989543,215.84732909989543,215.84732909989543,215.84732909989543,215.84732909989543,215.84732909989543,215.84732909989543,215.84732909989543,216.2304265999701,216.2304265999701,216.2304265999701,216.2304265999701,216.2304265999701,216.2304265999701,216.2304265999701,216.2304265999701,216.2304265999701,14,1,[0.0009737000800669193],[0.16434439993463457],216.2304265999701,216.43069040006958,0.0,216.43069040006958,0,0.0,0,1,1000,num_1,0.5857841998804361,,34,10,2026-03-13_10h57.32.403,2026A_exp2,2022.2.4,59.9311271544867,
1000,1,4.9,0.0,1,0,69,69,72,,,,,217.0478322999552,217.69865989987738,217.69865989987738,218.18303840002045,45,45,218.18303840002045,218.18303840002045,218.18303840002045,218.18303840002045,218.18303840002045,218.18303840002045,218.18303840002045,218.18303840002045,218.18303840002045,218.54954629996791,218.54954629996791,218.54954629996791,218.54954629996791,218.54954629996791,218.54954629996791,218.54954629996791,218.54954629996791,218.54954629996791,18,1,[0.0012510002125054598],[0.08354760007932782],218.54954629996791,218.751355699962,1000,218.751355699962,1000,1000,1000,1000,0,num_3,0.4338704999536276,,34,10,2026-03-13_10h57.32.403,2026A_exp2,2022.2.4,59.9311271544867,
1,0,0.0,6.1,0,0,70,70,11,,,,,219.21695889998227,219.86756050004624,219.86756050004624,220.36862149997614,45,315,220.36862149997614,220.36862149997614,220.36862149997614,220.36862149997614,220.36862149997614,220.36862149997614,220.36862149997614,220.36862149997614,220.36862149997614,220.71832300000824,220.71832300000824,220.71832300000824,220.71832300000824,220.71832300000824,220.71832300000824,220.71832300000824,220.71832300000824,220.71832300000824,1,2,"[0.0012042000889778137, 0.11684269993565977]","[0.10024060006253421, 0.35054829996079206]",220.71832300000824,220.91843939991668,0.0,220.9352557999082,0,0.0,0,1,1000,num_1,0.5141975998412818,,34,10,2026-03-13_10h57.32.403,2026A_exp2,2022.2.4,59.9311271544867,
1000,1,6.1,0.0,1,0,71,71,69,,,,,221.4690539999865,222.11978049995378,222.11978049995378,222.60414159996435,45,45,222.60414159996435,222.60414159996435,222.60414159996435,222.60414159996435,222.60414159996435,222.60414159996435,222.60414159996435,222.60414159996435,222.60414159996435,222.9705012999475,222.9705012999475,222.9705012999475,222.9705012999475,222.9705012999475,222.9705012999475,222.9705012999475,222.9705012999475,222.9705012999475,23,0,,,222.9705012999475,223.17275590007193,1000,223.17275590007193,1000,1000,1000,1000,0,num_3,0.452782099833712,,34,10,2026-03-13_10h57.32.403,2026A_exp2,2022.2.4,59.9311271544867,
1,0,6.1,4.9,0,0,72,72,24,,,,,223.65449730004184,224.30528079997748,224.30528079997748,224.8062853999436,315,315,224.8062853999436,224.8062853999436,224.8062853999436,224.8062853999436,224.8062853999436,224.8062853999436,224.8062853999436,224.8062853999436,224.8062853999436,225.172715799883,225.172715799883,225.172715799883,225.172715799883,225.172715799883,225.172715799883,225.172715799883,225.172715799883,225.172715799883,6,3,"[0.001294800080358982, 0.16680729994550347, 0.3004034000914544]","[0.10014869994483888, 0.2503207998815924, 0.3670892999507487]",225.172715799883,225.37283400003798,6.1,225.37283400003798,1,6.1,1,1,1000,num_4,0.7156990000512451,,34,10,2026-03-13_10h57.32.403,2026A_exp2,2022.2.4,59.9311271544867,
1000,1,6.1,6.1,1,0,73,73,77,,,,,226.10680619999766,226.75771329994313,226.75771329994313,227.24201889988035,45,45,227.24201889988035,227.24201889988035,227.24201889988035,227.24201889988035,227.24201889988035,227.24201889988035,227.24201889988035,227.24201889988035,227.24201889988035,227.60844179987907,227.60844179987907,227.60844179987907,227.60844179987907,227.60844179987907,227.60844179987907,227.60844179987907,227.60844179987907,227.60844179987907,8,6,"[0.0012110001407563686, 0.116805300116539, 0.16701290011405945, 0.2502063999418169, 0.3171113000717014, 0.3505554001312703]","[0.10022519994527102, 0.13351180008612573, 0.2004939999897033, 0.30034850002266467, 0.33372410014271736, 0.3671325999312103]",227.60844179987907,227.8104473000858,1000,227.8104473000858,1000,1000,1000,1000,1,num_2,0.5982019000221044,,34,10,2026-03-13_10h57.32.403,2026A_exp2,2022.2.4,59.9311271544867,
1000,1,3.7,0.0,0,0,74,74,57,,,,,228.42607789998874,229.07660480006598,229.07660480006598,229.57772019994445,315,315,229.57772019994445,229.57772019994445,229.57772019994445,229.57772019994445,229.57772019994445,229.57772019994445,229.57772019994445,229.57772019994445,229.57772019994445,229.94406139990315,229.94406139990315,229.94406139990315,229.94406139990315,229.94406139990315,229.94406139990315,229.94406139990315,229.94406139990315,229.94406139990315,23,0,,,229.94406139990315,230.14446390001103,1000,230.14446390001103,1000,1000,1000,1000,0,num_3,0.4892712999135256,,34,10,2026-03-13_10h57.32.403,2026A_exp2,2022.2.4,59.9311271544867,
1000,1,3.7,4.9,1,0,75,75,43,,,,,230.6614927998744,231.31215170002542,231.31215170002542,231.81337899994105,45,315,231.81337899994105,231.81337899994105,231.81337899994105,231.81337899994105,231.81337899994105,231.81337899994105,231.81337899994105,231.81337899994105,231.81337899994105,232.17966830008663,232.17966830008663,232.17966830008663,232.17966830008663,232.17966830008663,232.17966830008663,232.17966830008663,232.17966830008663,232.17966830008663,23,0,,,232.17966830008663,232.38165759993717,1000,232.38165759993717,1000,1000,1000,1000,1,num_2,0.540062100160867,,34,10,2026-03-13_10h57.32.403,2026A_exp2,2022.2.4,59.9311271544867,
1000,1,0.0,0.0,1,0,76,76,67,,,,,232.9471664999146,233.59782409993932,233.59782409993932,234.0989552999381,45,45,234.0989552999381,234.0989552999381,234.0989552999381,234.0989552999381,234.0989552999381,234.0989552999381,234.0989552999381,234.0989552999381,234.0989552999381,234.465548499953,234.465548499953,234.465548499953,234.465548499953,234.465548499953,234.465548499953,234.465548499953,234.465548499953,234.465548499953,23,0,,,234.465548499953,234.6672948000487,1000,234.6672948000487,1000,1000,1000,1000,1,num_2,0.5814972999505699,,34,10,2026-03-13_10h57.32.403,2026A_exp2,2022.2.4,59.9311271544867,
1,0,0.0,6.1,1,0,77,77,52,,,,,235.26623279997148,235.91696839989163,235.91696839989163,236.41793369990773,315,315,236.41793369990773,236.41793369990773,236.41793369990773,236.41793369990773,236.41793369990773,236.41793369990773,236.41793369990773,236.41793369990773,236.41793369990773,236.78428829996847,236.78428829996847,236.78428829996847,236.78428829996847,236.78428829996847,236.78428829996847,236.78428829996847,236.78428829996847,236.78428829996847,23,0,,,236.78428829996847,236.9844859999139,6.1,236.9844859999139,1,6.1,1,1,1000,num_4,0.7681448000948876,,34,10,2026-03-13_10h57.32.403,2026A_exp2,2022.2.4,59.9311271544867,
1,0,6.1,0.0,0,0,78,78,70,,,,,237.76869979989715,238.4192172999028,238.4192172999028,238.90379310003482,45,315,238.90379310003482,238.90379310003482,238.90379310003482,238.90379310003482,238.90379310003482,238.90379310003482,238.90379310003482,238.90379310003482,238.90379310003482,239.27019109996036,239.27019109996036,239.27019109996036,239.27019109996036,239.27019109996036,239.27019109996036,239.27019109996036,239.27019109996036,239.27019109996036,23,0,,,239.27019109996036,239.47054559993558,6.1,239.47054559993558,1,6.1,1,1,1000,num_4,0.6822417001239955,,34,10,2026-03-13_10h57.32.403,2026A_exp2,2022.2.4,59.9311271544867,
1,0,0.0,0.0,1,0,79,79,87,,,,,240.17096940008923,240.82179640000686,240.82179640000686,241.30606630002148,315,315,241.30606630002148,241.30606630002148,241.30606630002148,241.30606630002148,241.30606630002148,241.30606630002148,241.30606630002148,241.30606630002148,241.30606630002148,241.672482999973,241.672482999973,241.672482999973,241.672482999973,241.672482999973,241.672482999973,241.672482999973,241.672482999973,241.672482999973,23,0,,,241.672482999973,241.87288939999416,0.0,241.87288939999416,1,0.0,0,0,1000,num_4,0.7762482999823987,,34,10,2026-03-13_10h57.32.403,2026A_exp2,2022.2.4,59.9311271544867,
1,0,4.9,0.0,0,0,80,80,58,,,,,242.6733504999429,243.32419140008278,243.32419140008278,243.82526309997775,315,45,243.82526309997775,243.82526309997775,243.82526309997775,243.82526309997775,243.82526309997775,243.82526309997775,243.82526309997775,243.82526309997775,243.82526309997775,244.19176930002868,244.19176930002868,244.19176930002868,244.19176930002868,244.19176930002868,244.19176930002868,244.19176930002868,244.19176930002868,244.19176930002868,23,0,,,244.19176930002868,244.39201160008088,4.9,244.39201160008088,0,4.9,1,0,1000,num_1,0.5528752999380231,,34,10,2026-03-13_10h57.32.403,2026A_exp2,2022.2.4,59.9311271544867,
1000,1,4.9,0.0,0,0,81,81,54,,,,,244.9758589998819,245.62619929993525,245.62619929993525,246.11096600000747,315,315,246.11096600000747,246.11096600000747,246.11096600000747,246.11096600000747,246.11096600000747,246.11096600000747,246.11096600000747,246.11096600000747,246.11096600000747,246.47743940004148,246.47743940004148,246.47743940004148,246.47743940004148,246.47743940004148,246.47743940004148,246.47743940004148,246.47743940004148,246.47743940004148,23,0,,,246.47743940004148,246.6775154999923,1000,246.6775154999923,1000,1000,1000,1000,0,num_3,0.5560546999331564,,34,10,2026-03-13_10h57.32.403,2026A_exp2,2022.2.4,59.9311271544867,
1000,1,0.0,3.7,1,0,82,82,47,,,,,247.2614555999171,247.91214230004698,247.91214230004698,248.413345299894,45,45,248.413345299894,248.413345299894,248.413345299894,248.413345299894,248.413345299894,248.413345299894,248.413345299894,248.413345299894,248.413345299894,248.77981620002538,248.77981620002538,248.77981620002538,248.77981620002538,248.77981620002538,248.77981620002538,248.77981620002538,248.77981620002538,248.77981620002538,23,0,,,248.77981620002538,248.9814603999257,1000,248.9814603999257,1000,1000,1000,1000,1,num_2,0.5149668001104146,,34,10,2026-03-13_10h57.32.403,2026A_exp2,2022.2.4,59.9311271544867,
1000,1,0.0,3.7,0,0,83,83,78,,,,,249.5137380999513,250.16448340006173,250.16448340006173,250.66558560007252,45,45,250.66558560007252,250.66558560007252,250.66558560007252,250.66558560007252,250.66558560007252,250.66558560007252,250.66558560007252,250.66558560007252,250.66558560007252,251.03198820003308,251.03198820003308,251.03198820003308,251.03198820003308,251.03198820003308,251.03198820003308,251.03198820003308,251.03198820003308,251.03198820003308,23,0,,,251.03198820003308,251.23400749987923,1000,251.23400749987923,1000,1000,1000,1000,1,num_2,0.4949158001691103,,34,10,2026-03-13_10h57.32.403,2026A_exp2,2022.2.4,59.9311271544867,
1000,1,3.7,4.9,1,0,84,84,44,,,,,251.74901619995944,252.40001529990695,252.40001529990695,252.90124560007825,315,45,252.90124560007825,252.90124560007825,252.90124560007825,252.90124560007825,252.90124560007825,252.90124560007825,252.90124560007825,252.90124560007825,252.90124560007825,253.26752769993618,253.26752769993618,253.26752769993618,253.26752769993618,253.26752769993618,253.26752769993618,253.26752769993618,253.26752769993618,253.26752769993618,23,0,,,253.26752769993618,253.46944759995677,1000,253.46944759995677,1000,1000,1000,1000,1,num_2,0.4752214001491666,,34,10,2026-03-13_10h57.32.403,2026A_exp2,2022.2.4,59.9311271544867,
0,0,0.0,0.0,1,0,85,85,89,,,,,253.96812330000103,254.61882070009597,254.61882070009597,255.1199582000263,45,45,255.1199582000263,255.1199582000263,255.1199582000263,255.1199582000263,255.1199582000263,255.1199582000263,255.1199582000263,255.1199582000263,255.1199582000263,255.48640260007232,255.48640260007232,255.48640260007232,255.48640260007232,255.48640260007232,255.48640260007232,255.48640260007232,255.48640260007232,255.48640260007232,15,1,[0.0012337998487055302],[0.13348959991708398],255.48640260007232,255.6866806000471,0.0,255.6866806000471,0,0.0,0,1,1000,num_1,0.5617739998269826,,34,10,2026-03-13_10h57.32.403,2026A_exp2,2022.2.4,59.9311271544867,
1,0,0.0,0.0,0,0,86,86,29,,,,,256.27041959995404,256.9211782000493,256.9211782000493,257.405652299989,45,315,257.405652299989,257.405652299989,257.405652299989,257.405652299989,257.405652299989,257.405652299989,257.405652299989,257.405652299989,257.405652299989,257.77206850005314,257.77206850005314,257.77206850005314,257.77206850005314,257.77206850005314,257.77206850005314,257.77206850005314,257.77206850005314,257.77206850005314,23,0,,,257.77206850005314,257.972131999908,0.0,257.972131999908,1,0.0,0,0,1000,num_4,0.7170783998444676,,34,10,2026-03-13_10h57.32.403,2026A_exp2,2022.2.4,59.9311271544867,
1,0,0.0,6.1,1,0,87,87,40,,,,,258.7060773000121,259.34032720001414,259.34032720001414,259.8411804998759,315,315,259.8411804998759,259.8411804998759,259.8411804998759,259.8411804998759,259.8411804998759,259.8411804998759,259.8411804998759,259.8411804998759,259.8411804998759,260.20784349995665,260.20784349995665,260.20784349995665,260.20784349995665,260.20784349995665,260.20784349995665,260.20784349995665,260.20784349995665,260.20784349995665,23,0,,,260.20784349995665,260.4080379998777,6.1,260.4080379998777,1,6.1,1,1,1000,num_4,0.5525092000607401,,34,10,2026-03-13_10h57.32.403,2026A_exp2,2022.2.4,59.9311271544867,
1,0,0.0,3.7,0,0,88,88,35,,,,,260.99177489988506,261.6425765999593,261.6425765999593,262.1270236999262,45,45,262.1270236999262,262.1270236999262,262.1270236999262,262.1270236999262,262.1270236999262,262.1270236999262,262.1270236999262,262.1270236999262,262.1270236999262,262.49338810006157,262.49338810006157,262.49338810006157,262.49338810006157,262.49338810006157,262.49338810006157,262.49338810006157,262.49338810006157,262.49338810006157,1,2,"[0.0012010999489575624, 0.367094200104475]","[0.3505609000567347, 0.36709939991123974]",262.49338810006157,262.69360190001316,0.0,262.69360190001316,0,0.0,0,1,1000,num_1,0.5629898000042886,,34,10,2026-03-13_10h57.32.403,2026A_exp2,2022.2.4,59.9311271544867,
1000,1,0.0,6.1,0,0,89,89,37,,,,,263.2774765000213,263.92808689991944,263.92808689991944,264.4125330999959,45,45,264.4125330999959,264.4125330999959,264.4125330999959,264.4125330999959,264.4125330999959,264.4125330999959,264.4125330999959,264.4125330999959,264.4125330999959,264.7790647998918,264.7790647998918,264.7790647998918,264.7790647998918,264.7790647998918,264.7790647998918,264.7790647998918,264.7790647998918,264.7790647998918,0,1,[0.0012103000190109015],[0.36715040006674826],264.7790647998918,264.9809473999776,1000,264.9809473999776,1000,1000,1000,1000,1,num_2,0.611756999976933,,34,10,2026-03-13_10h57.32.403,2026A_exp2,2022.2.4,59.9311271544867,
,,,,,,,,,,,,,,,,,,,,,,,,,,,,,,,,,,,,,,,,,,,,,,,,,,,,265.6224932000041,,,,,,,
