validity,detectorcomp,contrastCW,contrastCCW,precueCWorCCW,block_80trials.thisRepN,block_80trials.thisTrialN,block_80trials.thisN,block_80trials.thisIndex,etRecord.started,etRecord.stopped,text.started,text.stopped,text_4.started,text_4.stopped,text_6.started,text_6.stopped,oriCW,oriCCW,roi_2.started,grating_UR.started,grating_UL.started,grating_LR.started,grating_LL.started,noise_UR.started,noise_UL.started,noise_LR.started,noise_LL.started,roi_2.stopped,grating_UR.stopped,grating_UL.stopped,grating_LR.stopped,grating_LL.stopped,noise_UR.stopped,noise_UL.stopped,noise_LR.stopped,noise_LL.stopped,outframe,roi_2.numLooks,roi_2.timesOn,roi_2.timesOff,text_2.started,text_2.stopped,probedcontrast,key_resp.started,respdetect,relevantContrast,correctDetect,TorFdetect,respCWorCCW,key_resp.keys,key_resp.rt,feedback_display_.started,participantNo,blockNo,date,expName,psychopyVersion,frameRate,
1000,1,0.0,0.0,1,0,0,0,8,4.229997284710407e-05,4.229997284710407e-05,46.98885429999791,48.998830599943176,48.998830599943176,49.643294299952686,49.643294299952686,50.16432849992998,315,45,50.16432849992998,50.16432849992998,50.16432849992998,50.16432849992998,50.16432849992998,50.16432849992998,50.16432849992998,50.16432849992998,50.16432849992998,50.49419769993983,50.49419769993983,50.49419769993983,50.49419769993983,50.49419769993983,50.49419769993983,50.49419769993983,50.49419769993983,50.49419769993983,0,1,[0.000942600192502141],[0.35227260016836226],50.49419769993983,50.704719099914655,1000,50.704719099914655,1000,1000,1000,1000,1,num_2,0.2742255001794547,,33,14,2026-03-12_18h28.46.039,2026A_exp2,2022.2.4,60.15793866422991,
1,0,6.1,0.0,0,0,1,1,58,,,,,50.99466189998202,51.6454113998916,51.6454113998916,52.14648699993268,45,45,52.14648699993268,52.14648699993268,52.14648699993268,52.14648699993268,52.14648699993268,52.14648699993268,52.14648699993268,52.14648699993268,52.14648699993268,52.512774099828675,52.512774099828675,52.512774099828675,52.512774099828675,52.512774099828675,52.512774099828675,52.512774099828675,52.512774099828675,52.512774099828675,0,1,[0.0013713000807911158],[0.36733700009062886],52.512774099828675,52.71304449997842,6.1,52.71304449997842,1,6.1,1,1,1000,num_4,0.5944413000252098,,33,14,2026-03-12_18h28.46.039,2026A_exp2,2022.2.4,60.15793866422991,
1000,1,4.9,4.9,0,0,2,2,36,,,,,53.33037399989553,53.98097989987582,53.98097989987582,54.46546749980189,45,315,54.46546749980189,54.46546749980189,54.46546749980189,54.46546749980189,54.46546749980189,54.46546749980189,54.46546749980189,54.46546749980189,54.46546749980189,54.831801999825984,54.831801999825984,54.831801999825984,54.831801999825984,54.831801999825984,54.831801999825984,54.831801999825984,54.831801999825984,54.831801999825984,0,1,[0.0012302000541239977],[0.36672109994105995],54.831801999825984,55.032102999975905,1000,55.0485162998084,1000,1000,1000,1000,1,num_2,0.17018020013347268,,33,14,2026-03-12_18h28.46.039,2026A_exp2,2022.2.4,60.15793866422991,
1,0,0.0,6.1,1,0,3,3,39,,,,,55.248690199805424,55.908209199784324,55.908209199784324,56.38430629996583,45,45,56.38430629996583,56.38430629996583,56.38430629996583,56.38430629996583,56.38430629996583,56.38430629996583,56.38430629996583,56.38430629996583,56.38430629996583,56.75046069989912,56.75046069989912,56.75046069989912,56.75046069989912,56.75046069989912,56.75046069989912,56.75046069989912,56.75046069989912,56.75046069989912,0,1,[0.0014720000326633453],[0.36690080002881587],56.75046069989912,56.95062549994327,6.1,56.95062549994327,1,6.1,1,1,1000,num_4,0.6445464000571519,,33,14,2026-03-12_18h28.46.039,2026A_exp2,2022.2.4,60.15793866422991,
0,0,4.9,4.9,0,0,4,4,88,,,,,57.61795259988867,58.268541699973866,58.268541699973866,58.75307809980586,315,45,58.75307809980586,58.75307809980586,58.75307809980586,58.75307809980586,58.75307809980586,58.75307809980586,58.75307809980586,58.75307809980586,58.75307809980586,59.119463599985465,59.119463599985465,59.119463599985465,59.119463599985465,59.119463599985465,59.119463599985465,59.119463599985465,59.119463599985465,59.119463599985465,0,1,[0.0012153999414294958],[0.3667309999000281],59.119463599985465,59.31969009991735,4.9,59.33625609986484,1,4.9,1,1,1000,num_4,0.5703594998922199,,33,14,2026-03-12_18h28.46.039,2026A_exp2,2022.2.4,60.15793866422991,
1000,1,3.7,0.0,0,0,5,5,28,,,,,59.93683899985626,60.58761279983446,60.58761279983446,61.072095499839634,315,315,61.072095499839634,61.072095499839634,61.072095499839634,61.072095499839634,61.072095499839634,61.072095499839634,61.072095499839634,61.072095499839634,61.072095499839634,61.43849469977431,61.43849469977431,61.43849469977431,61.43849469977431,61.43849469977431,61.43849469977431,61.43849469977431,61.43849469977431,61.43849469977431,0,1,[0.001173499971628189],[0.36719590006396174],61.43849469977431,61.640093699796125,1000,61.640093699796125,1000,1000,1000,1000,0,num_3,0.2988561000674963,,33,14,2026-03-12_18h28.46.039,2026A_exp2,2022.2.4,60.15793866422991,
1,0,0.0,0.0,0,0,6,6,31,,,,,61.95556429983117,62.60641979984939,62.60641979984939,63.107435499783605,315,315,63.107435499783605,63.107435499783605,63.107435499783605,63.107435499783605,63.107435499783605,63.107435499783605,63.107435499783605,63.107435499783605,63.107435499783605,63.47389129991643,63.47389129991643,63.47389129991643,63.47389129991643,63.47389129991643,63.47389129991643,63.47389129991643,63.47389129991643,63.47389129991643,0,1,[0.0012403998989611864],[0.36684829997830093],63.47389129991643,63.67409979994409,0.0,63.67409979994409,1,0.0,0,0,1000,num_4,0.6569815999828279,,33,14,2026-03-12_18h28.46.039,2026A_exp2,2022.2.4,60.15793866422991,
1,0,6.1,0.0,0,0,7,7,22,,,,,64.35966309998184,65.00877269986086,65.00877269986086,65.5097158998251,315,315,65.5097158998251,65.5097158998251,65.5097158998251,65.5097158998251,65.5097158998251,65.5097158998251,65.5097158998251,65.5097158998251,65.5097158998251,65.87621659995057,65.87621659995057,65.87621659995057,65.87621659995057,65.87621659995057,65.87621659995057,65.87621659995057,65.87621659995057,65.87621659995057,0,1,[0.0012056000996381044],[0.36692780000157654],65.87621659995057,66.07649839995429,6.1,66.07649839995429,1,6.1,1,1,1000,num_4,0.4308845999184996,,33,14,2026-03-12_18h28.46.039,2026A_exp2,2022.2.4,60.15793866422991,
1,0,3.7,3.7,0,0,8,8,69,,,,,66.52696139994077,67.17750949994661,67.17750949994661,67.66201749979518,45,45,67.66201749979518,67.66201749979518,67.66201749979518,67.66201749979518,67.66201749979518,67.66201749979518,67.66201749979518,67.66201749979518,67.66201749979518,68.02842389978468,68.02842389978468,68.02842389978468,68.02842389978468,68.02842389978468,68.02842389978468,68.02842389978468,68.02842389978468,68.02842389978468,0,1,[0.0012129000388085842],[0.3672913999762386],68.02842389978468,68.22852869983763,3.7,68.22852869983763,1,3.7,1,1,1000,num_4,0.6634903000667691,,33,14,2026-03-12_18h28.46.039,2026A_exp2,2022.2.4,60.15793866422991,
1,0,6.1,3.7,1,0,9,9,45,,,,,68.91240819985978,69.56334019987844,69.56334019987844,70.04765969980508,45,315,70.04765969980508,70.04765969980508,70.04765969980508,70.04765969980508,70.04765969980508,70.04765969980508,70.04765969980508,70.04765969980508,70.04765969980508,70.41423389990814,70.41423389990814,70.41423389990814,70.41423389990814,70.41423389990814,70.41423389990814,70.41423389990814,70.41423389990814,70.41423389990814,0,1,[0.0012002000585198402],[0.36701629986055195],70.41423389990814,70.6143181999214,3.7,70.6143181999214,1,3.7,1,1,1000,num_4,0.7968371000606567,,33,14,2026-03-12_18h28.46.039,2026A_exp2,2022.2.4,60.15793866422991,
0,0,0.0,6.1,0,0,10,10,30,,,,,71.43161390000023,72.08251039986499,72.08251039986499,72.56682499987073,45,45,72.56682499987073,72.56682499987073,72.56682499987073,72.56682499987073,72.56682499987073,72.56682499987073,72.56682499987073,72.56682499987073,72.56682499987073,72.93332339986227,72.93332339986227,72.93332339986227,72.93332339986227,72.93332339986227,72.93332339986227,72.93332339986227,72.93332339986227,72.93332339986227,0,1,[0.0017256001010537148],[0.36709160008467734],72.93332339986227,73.13346899999306,6.1,73.13346899999306,1,6.1,1,1,1000,num_4,0.46923570008948445,,33,14,2026-03-12_18h28.46.039,2026A_exp2,2022.2.4,60.15793866422991,
1000,1,0.0,0.0,1,0,11,11,72,,,,,73.63397909980267,74.28470329986885,74.28470329986885,74.76902849995531,45,45,74.76902849995531,74.76902849995531,74.76902849995531,74.76902849995531,74.76902849995531,74.76902849995531,74.76902849995531,74.76902849995531,74.76902849995531,75.13542969990522,75.13542969990522,75.13542969990522,75.13542969990522,75.13542969990522,75.13542969990522,75.13542969990522,75.13542969990522,75.13542969990522,0,1,[0.0012229999992996454],[0.3674826000351459],75.13542969990522,75.33769259997644,1000,75.33769259997644,1000,1000,1000,1000,0,num_3,0.24118429981172085,,33,14,2026-03-12_18h28.46.039,2026A_exp2,2022.2.4,60.15793866422991,
1,0,0.0,0.0,0,0,12,12,64,,,,,75.60301759978756,76.25324209989049,76.25324209989049,76.73766639991663,315,315,76.73766639991663,76.73766639991663,76.73766639991663,76.73766639991663,76.73766639991663,76.73766639991663,76.73766639991663,76.73766639991663,76.73766639991663,77.10402469988912,77.10402469988912,77.10402469988912,77.10402469988912,77.10402469988912,77.10402469988912,77.10402469988912,77.10402469988912,77.10402469988912,0,1,[0.001195700140669942],[0.3671718002296984],77.10402469988912,77.30437139980495,0.0,77.30437139980495,0,0.0,0,1,1000,num_1,0.8824666000436991,,33,14,2026-03-12_18h28.46.039,2026A_exp2,2022.2.4,60.15793866422991,
1,0,0.0,4.9,0,0,13,13,48,,,,,78.20521269994788,78.85595709993504,78.85595709993504,79.35706559987739,315,315,79.35706559987739,79.35706559987739,79.35706559987739,79.35706559987739,79.35706559987739,79.35706559987739,79.35706559987739,79.35706559987739,79.35706559987739,79.7232954998035,79.7232954998035,79.7232954998035,79.7232954998035,79.7232954998035,79.7232954998035,79.7232954998035,79.7232954998035,79.7232954998035,0,1,[0.0012056000996381044],[0.367276499979198],79.7232954998035,79.92344419984147,0.0,79.92344419984147,0,0.0,0,1,1000,num_1,0.5833872000221163,,33,14,2026-03-12_18h28.46.039,2026A_exp2,2022.2.4,60.15793866422991,
1000,1,6.1,0.0,1,0,14,14,71,,,,,80.52404649998061,81.17481069988571,81.17481069988571,81.6593031999655,315,45,81.6593031999655,81.6593031999655,81.6593031999655,81.6593031999655,81.6593031999655,81.6593031999655,81.6593031999655,81.6593031999655,81.6593031999655,82.02570669981651,82.02570669981651,82.02570669981651,82.02570669981651,82.02570669981651,82.02570669981651,82.02570669981651,82.02570669981651,82.02570669981651,9,2,"[0.11702780006453395, 0.16697690007276833]","[0.1336676999926567, 0.3671014001592994]",82.02570669981651,82.22747389995493,1000,82.22747389995493,1000,1000,1000,1000,0,num_3,0.4717606999911368,,33,14,2026-03-12_18h28.46.039,2026A_exp2,2022.2.4,60.15793866422991,
1000,1,3.7,0.0,1,0,15,15,54,,,,,82.72653849981725,83.37703829980455,83.37703829980455,83.87813909980468,315,45,83.87813909980468,83.87813909980468,83.87813909980468,83.87813909980468,83.87813909980468,83.87813909980468,83.87813909980468,83.87813909980468,83.87813909980468,84.24465219979174,84.24465219979174,84.24465219979174,84.24465219979174,84.24465219979174,84.24465219979174,84.24465219979174,84.24465219979174,84.24465219979174,0,1,[0.0011432000901550055],[0.36731850006617606],84.24465219979174,84.44655809993856,1000,84.44655809993856,1000,1000,1000,1000,0,num_3,0.16511679999530315,,33,14,2026-03-12_18h28.46.039,2026A_exp2,2022.2.4,60.15793866422991,
1,0,0.0,4.9,0,0,16,16,9,,,,,84.62826249981299,85.27872939989902,85.27872939989902,85.78010489977896,45,315,85.78010489977896,85.78010489977896,85.78010489977896,85.78010489977896,85.78010489977896,85.78010489977896,85.78010489977896,85.78010489977896,85.78010489977896,86.14650329994038,86.14650329994038,86.14650329994038,86.14650329994038,86.14650329994038,86.14650329994038,86.14650329994038,86.14650329994038,86.14650329994038,0,1,[0.001235899981111288],[0.3680083998478949],86.14650329994038,86.34677279996686,0.0,86.34677279996686,0,0.0,0,1,1000,num_1,0.5771652997937053,,33,14,2026-03-12_18h28.46.039,2026A_exp2,2022.2.4,60.15793866422991,
1,0,0.0,3.7,0,0,17,17,34,,,,,86.94727859995328,87.59796419995837,87.59796419995837,88.09900489985012,45,315,88.09900489985012,88.09900489985012,88.09900489985012,88.09900489985012,88.09900489985012,88.09900489985012,88.09900489985012,88.09900489985012,88.09900489985012,88.46554189990275,88.46554189990275,88.46554189990275,88.46554189990275,88.46554189990275,88.46554189990275,88.46554189990275,88.46554189990275,88.46554189990275,0,1,[0.0012898000422865152],[0.3672134999651462],88.46554189990275,88.6656993997749,0.0,88.6656993997749,0,0.0,0,1,1000,num_1,0.7293302998878062,,33,14,2026-03-12_18h28.46.039,2026A_exp2,2022.2.4,60.15793866422991,
1,0,4.9,3.7,0,0,18,18,89,,,,,89.41657429980114,90.06711299996823,90.06711299996823,90.55155909992754,45,315,90.55155909992754,90.55155909992754,90.55155909992754,90.55155909992754,90.55155909992754,90.55155909992754,90.55155909992754,90.55155909992754,90.55155909992754,90.91793179977685,90.91793179977685,90.91793179977685,90.91793179977685,90.91793179977685,90.91793179977685,90.91793179977685,90.91793179977685,90.91793179977685,0,1,[0.0012040999718010426],[0.36702600005082786],90.91793179977685,91.11820409982465,4.9,91.11820409982465,0,4.9,1,0,1000,num_1,0.7169720998499542,,33,14,2026-03-12_18h28.46.039,2026A_exp2,2022.2.4,60.15793866422991,
1,0,3.7,6.1,0,0,19,19,74,,,,,91.85210399981588,92.50288469996303,92.50288469996303,93.00268179993145,45,315,93.00268179993145,93.00268179993145,93.00268179993145,93.00268179993145,93.00268179993145,93.00268179993145,93.00268179993145,93.00268179993145,93.00268179993145,93.3538498999551,93.3538498999551,93.3538498999551,93.3538498999551,93.3538498999551,93.3538498999551,93.3538498999551,93.3538498999551,93.3538498999551,0,1,[0.00415709987282753],[0.36373189999721944],93.3538498999551,93.55389119987376,3.7,93.55389119987376,0,3.7,1,0,1000,num_1,0.7530744997784495,,33,14,2026-03-12_18h28.46.039,2026A_exp2,2022.2.4,60.15793866422991,
1,0,4.9,0.0,1,0,20,20,52,,,,,94.3380198997911,94.98865809990093,94.98865809990093,95.4732046998106,45,45,95.4732046998106,95.4732046998106,95.4732046998106,95.4732046998106,95.4732046998106,95.4732046998106,95.4732046998106,95.4732046998106,95.4732046998106,95.8395357998088,95.8395357998088,95.8395357998088,95.8395357998088,95.8395357998088,95.8395357998088,95.8395357998088,95.8395357998088,95.8395357998088,0,1,[0.0012054999824613333],[0.3672346000093967],95.8395357998088,96.03979349997826,0.0,96.03979349997826,0,0.0,0,1,1000,num_1,0.683453599922359,,33,14,2026-03-12_18h28.46.039,2026A_exp2,2022.2.4,60.15793866422991,
1,0,0.0,0.0,0,0,21,21,87,,,,,96.74025539983995,97.3909938998986,97.3909938998986,97.87557919998653,45,315,97.87557919998653,97.87557919998653,97.87557919998653,97.87557919998653,97.87557919998653,97.87557919998653,97.87557919998653,97.87557919998653,97.87557919998653,98.24191179987974,98.24191179987974,98.24191179987974,98.24191179987974,98.24191179987974,98.24191179987974,98.24191179987974,98.24191179987974,98.24191179987974,15,1,[0.25025319983251393],[0.36724699987098575],98.24191179987974,98.44219209998846,0.0,98.44219209998846,0,0.0,0,1,1000,num_1,0.8646470999810845,,33,14,2026-03-12_18h28.46.039,2026A_exp2,2022.2.4,60.15793866422991,
1,0,6.1,3.7,0,0,22,22,79,,,,,99.32628349983133,99.97700859978795,99.97700859978795,100.46148379985243,45,45,100.46148379985243,100.46148379985243,100.46148379985243,100.46148379985243,100.46148379985243,100.46148379985243,100.46148379985243,100.46148379985243,100.46148379985243,100.8278157999739,100.8278157999739,100.8278157999739,100.8278157999739,100.8278157999739,100.8278157999739,100.8278157999739,100.8278157999739,100.8278157999739,0,1,[0.0011991998180747032],[0.3674435999710113],100.8278157999739,101.02782959979959,6.1,101.02782959979959,1,6.1,1,1,1000,num_4,0.6470004001166672,,33,14,2026-03-12_18h28.46.039,2026A_exp2,2022.2.4,60.15793866422991,
1,0,0.0,6.1,0,0,23,23,3,,,,,101.69524189992808,102.3458864998538,102.3458864998538,102.83046729979105,315,45,102.83046729979105,102.83046729979105,102.83046729979105,102.83046729979105,102.83046729979105,102.83046729979105,102.83046729979105,102.83046729979105,102.83046729979105,103.1968153999187,103.1968153999187,103.1968153999187,103.1968153999187,103.1968153999187,103.1968153999187,103.1968153999187,103.1968153999187,103.1968153999187,0,1,[0.0012424997985363007],[0.3668142999522388],103.1968153999187,103.39704689988866,0.0,103.39704689988866,0,0.0,0,1,1000,num_1,1.6949970999266952,,33,14,2026-03-12_18h28.46.039,2026A_exp2,2022.2.4,60.15793866422991,
1000,1,4.9,3.7,1,0,24,24,46,,,,,105.11516279983334,105.76615829998627,105.76615829998627,106.25055929995142,315,45,106.25055929995142,106.25055929995142,106.25055929995142,106.25055929995142,106.25055929995142,106.25055929995142,106.25055929995142,106.25055929995142,106.25055929995142,106.61696629994549,106.61696629994549,106.61696629994549,106.61696629994549,106.61696629994549,106.61696629994549,106.61696629994549,106.61696629994549,106.61696629994549,22,1,[0.15041449991986156],[0.16703710006549954],106.61696629994549,106.81910309987143,1000,106.81910309987143,1000,1000,1000,1000,0,num_3,0.5597906999755651,,33,14,2026-03-12_18h28.46.039,2026A_exp2,2022.2.4,60.15793866422991,
1000,1,0.0,4.9,1,0,25,25,51,,,,,107.40102649992332,108.05179529986344,108.05179529986344,108.5527694998309,45,315,108.5527694998309,108.5527694998309,108.5527694998309,108.5527694998309,108.5527694998309,108.5527694998309,108.5527694998309,108.5527694998309,108.5527694998309,108.91922309994698,108.91922309994698,108.91922309994698,108.91922309994698,108.91922309994698,108.91922309994698,108.91922309994698,108.91922309994698,108.91922309994698,2,2,"[0.0012358000967651606, 0.300293100066483]","[0.2669331000652164, 0.3670539001468569]",108.91922309994698,109.12170129991136,1000,109.12170129991136,1000,1000,1000,1000,1,num_2,0.38505110004916787,,33,14,2026-03-12_18h28.46.039,2026A_exp2,2022.2.4,60.15793866422991,
1000,1,4.9,6.1,0,0,26,26,49,,,,,109.53656539996155,110.18701979983598,110.18701979983598,110.6883115998935,45,315,110.6883115998935,110.6883115998935,110.6883115998935,110.6883115998935,110.6883115998935,110.6883115998935,110.6883115998935,110.6883115998935,110.6883115998935,111.05469959997572,111.05469959997572,111.05469959997572,111.05469959997572,111.05469959997572,111.05469959997572,111.05469959997572,111.05469959997572,111.05469959997572,0,1,[0.001125900074839592],[0.3671021999325603],111.05469959997572,111.25685629993677,1000,111.25685629993677,1000,1000,1000,1000,1,num_2,0.2259539000224322,,33,14,2026-03-12_18h28.46.039,2026A_exp2,2022.2.4,60.15793866422991,
1000,1,0.0,4.9,0,0,27,27,50,,,,,111.50506289978512,112.15590049978346,112.15590049978346,112.65682839998044,45,315,112.65682839998044,112.65682839998044,112.65682839998044,112.65682839998044,112.65682839998044,112.65682839998044,112.65682839998044,112.65682839998044,112.65682839998044,113.02331139985472,113.02331139985472,113.02331139985472,113.02331139985472,113.02331139985472,113.02331139985472,113.02331139985472,113.02331139985472,113.02331139985472,17,3,"[0.05015359981916845, 0.21701009990647435, 0.3336846998427063]","[0.06688719987869263, 0.25054049980826676, 0.36718309996649623]",113.02331139985472,113.22561289998703,1000,113.22561289998703,1000,1000,1000,1000,1,num_2,0.20965689979493618,,33,14,2026-03-12_18h28.46.039,2026A_exp2,2022.2.4,60.15793866422991,
1,0,6.1,0.0,1,0,28,28,29,,,,,113.45717449998483,114.10781389987096,114.10781389987096,114.60886399983428,45,315,114.60886399983428,114.60886399983428,114.60886399983428,114.60886399983428,114.60886399983428,114.60886399983428,114.60886399983428,114.60886399983428,114.60886399983428,114.95850909990259,114.95850909990259,114.95850909990259,114.95850909990259,114.95850909990259,114.95850909990259,114.95850909990259,114.95850909990259,114.95850909990259,9,4,"[0.08382959989830852, 0.1338638998568058, 0.1840575998649001, 0.2674351998139173]","[0.10049859993159771, 0.1672919997945428, 0.2507046000100672, 0.35076659987680614]",114.95850909990259,115.1586467998568,0.0,115.17538049980067,0,0.0,0,1,1000,num_1,0.6520102000795305,,33,14,2026-03-12_18h28.46.039,2026A_exp2,2022.2.4,60.15793866422991,
1,0,0.0,0.0,1,0,29,29,60,,,,,115.85961980000138,116.51023069978692,116.51023069978692,116.99466819991358,45,315,116.99466819991358,116.99466819991358,116.99466819991358,116.99466819991358,116.99466819991358,116.99466819991358,116.99466819991358,116.99466819991358,116.99466819991358,117.3610262000002,117.3610262000002,117.3610262000002,117.3610262000002,117.3610262000002,117.3610262000002,117.3610262000002,117.3610262000002,117.3610262000002,1,2,"[0.0012215001042932272, 0.28384350007399917]","[0.2670829000417143, 0.3670765000861138]",117.3610262000002,117.56113539985381,0.0,117.56113539985381,1,0.0,0,0,1000,num_4,0.9384733999613672,,33,14,2026-03-12_18h28.46.039,2026A_exp2,2022.2.4,60.15793866422991,
1000,1,0.0,3.7,0,0,30,30,21,,,,,118.52874559978954,119.17954479996115,119.17954479996115,119.68071659980342,315,315,119.68071659980342,119.68071659980342,119.68071659980342,119.68071659980342,119.68071659980342,119.68071659980342,119.68071659980342,119.68071659980342,119.68071659980342,120.03040999989025,120.03040999989025,120.03040999989025,120.03040999989025,120.03040999989025,120.03040999989025,120.03040999989025,120.03040999989025,120.03040999989025,3,4,"[0.0010214000940322876, 0.050516300136223435, 0.13433370017446578, 0.2509437999688089]","[0.03374260012060404, 0.11754860007204115, 0.23430130002088845, 0.3510137000121176]",120.03040999989025,120.23255689977668,1000,120.23255689977668,1000,1000,1000,1000,1,num_2,0.682980400044471,,33,14,2026-03-12_18h28.46.039,2026A_exp2,2022.2.4,60.15793866422991,
1,0,4.9,0.0,0,0,31,31,14,,,,,120.93120399978943,121.58194129983895,121.58194129983895,122.08296159980819,45,315,122.08296159980819,122.08296159980819,122.08296159980819,122.08296159980819,122.08296159980819,122.08296159980819,122.08296159980819,122.08296159980819,122.08296159980819,122.44917629985139,122.44917629985139,122.44917629985139,122.44917629985139,122.44917629985139,122.44917629985139,122.44917629985139,122.44917629985139,122.44917629985139,23,0,,,122.44917629985139,122.64949959982187,4.9,122.64949959982187,1,4.9,1,1,1000,num_4,0.6097975000739098,,33,14,2026-03-12_18h28.46.039,2026A_exp2,2022.2.4,60.15793866422991,
1,0,4.9,6.1,1,0,32,32,62,,,,,123.28359279991128,123.9343633998651,123.9343633998651,124.41856799996458,45,315,124.41856799996458,124.41856799996458,124.41856799996458,124.41856799996458,124.41856799996458,124.41856799996458,124.41856799996458,124.41856799996458,124.41856799996458,124.78492349991575,124.78492349991575,124.78492349991575,124.78492349991575,124.78492349991575,124.78492349991575,124.78492349991575,124.78492349991575,124.78492349991575,23,0,,,124.78492349991575,124.9850108998362,6.1,124.9850108998362,1,6.1,1,1,1000,num_4,0.5855914999265224,,33,14,2026-03-12_18h28.46.039,2026A_exp2,2022.2.4,60.15793866422991,
0,0,3.7,0.0,0,0,33,33,16,,,,,125.60275479988195,126.25282389996573,126.25282389996573,126.75413399981335,315,45,126.75413399981335,126.75413399981335,126.75413399981335,126.75413399981335,126.75413399981335,126.75413399981335,126.75413399981335,126.75413399981335,126.75413399981335,127.10385419987142,127.10385419987142,127.10385419987142,127.10385419987142,127.10385419987142,127.10385419987142,127.10385419987142,127.10385419987142,127.10385419987142,8,4,"[0.000721900025382638, 0.10028300015255809, 0.18363950005732477, 0.2838903001975268]","[0.017637500073760748, 0.15031320019625127, 0.26725800009444356, 0.3505077001173049]",127.10385419987142,127.30415949993767,0.0,127.30415949993767,0,0.0,0,1,1000,num_1,0.6670787001494318,,33,14,2026-03-12_18h28.46.039,2026A_exp2,2022.2.4,60.15793866422991,
1,0,4.9,4.9,1,0,34,34,32,,,,,127.98818689980544,128.62232470000163,128.62232470000163,129.1233802998904,45,45,129.1233802998904,129.1233802998904,129.1233802998904,129.1233802998904,129.1233802998904,129.1233802998904,129.1233802998904,129.1233802998904,129.1233802998904,129.48984919977374,129.48984919977374,129.48984919977374,129.48984919977374,129.48984919977374,129.48984919977374,129.48984919977374,129.48984919977374,129.48984919977374,0,1,[0.0012632000725716352],[0.3670240000355989],129.48984919977374,129.69010079978034,4.9,129.69010079978034,1,4.9,1,1,1000,num_4,0.5689929001964629,,33,14,2026-03-12_18h28.46.039,2026A_exp2,2022.2.4,60.15793866422991,
1000,1,0.0,3.7,1,0,35,35,81,,,,,130.2904939998407,130.94126219977625,130.94126219977625,131.42564209992997,45,315,131.42564209992997,131.42564209992997,131.42564209992997,131.42564209992997,131.42564209992997,131.42564209992997,131.42564209992997,131.42564209992997,131.42564209992997,131.7920998998452,131.7920998998452,131.7920998998452,131.7920998998452,131.7920998998452,131.7920998998452,131.7920998998452,131.7920998998452,131.7920998998452,23,0,,,131.7920998998452,131.99435409996659,1000,131.99435409996659,1000,1000,1000,1000,1,num_2,0.24882959993556142,,33,14,2026-03-12_18h28.46.039,2026A_exp2,2022.2.4,60.15793866422991,
0,0,4.9,6.1,0,0,36,36,1,,,,,132.2592449998483,132.90988659998402,132.90988659998402,133.4195751999505,315,315,133.4195751999505,133.4195751999505,133.4195751999505,133.4195751999505,133.4195751999505,133.4195751999505,133.4195751999505,133.4195751999505,133.4195751999505,133.77749049989507,133.77749049989507,133.77749049989507,133.77749049989507,133.77749049989507,133.77749049989507,133.77749049989507,133.77749049989507,133.77749049989507,3,2,"[0.034825999988242984, 0.06510029989294708]","[0.048467299900949, 0.3653934998437762]",133.77749049989507,133.9777094000019,6.1,133.9777094000019,1,6.1,1,1,1000,num_4,0.7218237000051886,,33,14,2026-03-12_18h28.46.039,2026A_exp2,2022.2.4,60.15793866422991,
1,0,0.0,0.0,1,0,37,37,66,,,,,134.72833209997043,135.37908669980243,135.37908669980243,135.86337009980343,315,45,135.86337009980343,135.86337009980343,135.86337009980343,135.86337009980343,135.86337009980343,135.86337009980343,135.86337009980343,135.86337009980343,135.86337009980343,136.22992549999617,136.22992549999617,136.22992549999617,136.22992549999617,136.22992549999617,136.22992549999617,136.22992549999617,136.22992549999617,136.22992549999617,18,3,"[0.0012701000086963177, 0.05006100004538894, 0.18373270006850362]","[0.017030100105330348, 0.06672090012580156, 0.21694579999893904]",136.22992549999617,136.43007659981959,0.0,136.43007659981959,1,0.0,0,0,1000,num_4,0.8208079000469297,,33,14,2026-03-12_18h28.46.039,2026A_exp2,2022.2.4,60.15793866422991,
0,0,3.7,0.0,1,0,38,38,0,,,,,137.28107749996707,137.93179669999518,137.93179669999518,138.41599059989676,45,315,138.41599059989676,138.41599059989676,138.41599059989676,138.41599059989676,138.41599059989676,138.41599059989676,138.41599059989676,138.41599059989676,138.41599059989676,138.78243849985301,138.78243849985301,138.78243849985301,138.78243849985301,138.78243849985301,138.78243849985301,138.78243849985301,138.78243849985301,138.78243849985301,23,0,,,138.78243849985301,138.98262529983185,3.7,138.98262529983185,1,3.7,1,1,1000,num_4,0.7734693998936564,,33,14,2026-03-12_18h28.46.039,2026A_exp2,2022.2.4,60.15793866422991,
1000,1,0.0,6.1,0,0,39,39,85,,,,,139.78337069996633,140.4341002998408,140.4341002998408,140.91845389991067,315,45,140.91845389991067,140.91845389991067,140.91845389991067,140.91845389991067,140.91845389991067,140.91845389991067,140.91845389991067,140.91845389991067,140.91845389991067,141.28489629994147,141.28489629994147,141.28489629994147,141.28489629994147,141.28489629994147,141.28489629994147,141.28489629994147,141.28489629994147,141.28489629994147,0,1,[0.0010760000441223383],[0.3674363000318408],141.28489629994147,141.48721849988215,1000,141.48721849988215,1000,1000,1000,1000,1,num_2,0.22083819983527064,,33,14,2026-03-12_18h28.46.039,2026A_exp2,2022.2.4,60.15793866422991,
1,0,0.0,0.0,1,0,40,40,24,,,,,141.73546819994226,142.3859317000024,142.3859317000024,142.88712399988435,45,315,142.88712399988435,142.88712399988435,142.88712399988435,142.88712399988435,142.88712399988435,142.88712399988435,142.88712399988435,142.88712399988435,142.88712399988435,143.25356509978883,143.25356509978883,143.25356509978883,143.25356509978883,143.25356509978883,143.25356509978883,143.25356509978883,143.25356509978883,143.25356509978883,5,3,"[0.03349200007505715, 0.08354509994387627, 0.2003218000754714]","[0.06703029992058873, 0.16693189996294677, 0.36726609990000725]",143.25356509978883,143.45383609994315,0.0,143.45383609994315,0,0.0,0,1,1000,num_1,0.6689317999407649,,33,14,2026-03-12_18h28.46.039,2026A_exp2,2022.2.4,60.15793866422991,
1,0,3.7,0.0,0,0,41,41,15,,,,,144.15435859980062,144.80519389989786,144.80519389989786,145.30613019992597,315,45,145.30613019992597,145.30613019992597,145.30613019992597,145.30613019992597,145.30613019992597,145.30613019992597,145.30613019992597,145.30613019992597,145.30613019992597,145.65581029979512,145.65581029979512,145.65581029979512,145.65581029979512,145.65581029979512,145.65581029979512,145.65581029979512,145.65581029979512,145.65581029979512,0,1,[0.0007210001349449158],[0.3504113999661058],145.65581029979512,145.85624739993364,3.7,145.85624739993364,1,3.7,1,1,1000,num_4,0.634917699964717,,33,14,2026-03-12_18h28.46.039,2026A_exp2,2022.2.4,60.15793866422991,
1000,1,4.9,6.1,1,0,42,42,4,,,,,146.5237771999091,147.17426719982177,147.17426719982177,147.65870289993472,45,315,147.65870289993472,147.65870289993472,147.65870289993472,147.65870289993472,147.65870289993472,147.65870289993472,147.65870289993472,147.65870289993472,147.65870289993472,148.02499209996313,148.02499209996313,148.02499209996313,148.02499209996313,148.02499209996313,148.02499209996313,148.02499209996313,148.02499209996313,148.02499209996313,0,1,[0.001157199963927269],[0.3668414999265224],148.02499209996313,148.22706679999828,1000,148.22706679999828,1000,1000,1000,1000,1,num_2,0.3036897999700159,,33,14,2026-03-12_18h28.46.039,2026A_exp2,2022.2.4,60.15793866422991,
0,0,0.0,6.1,1,0,43,43,84,,,,,148.55870739999227,149.20953319990076,149.20953319990076,149.7105834998656,315,315,149.7105834998656,149.7105834998656,149.7105834998656,149.7105834998656,149.7105834998656,149.7105834998656,149.7105834998656,149.7105834998656,149.7105834998656,150.07714680000208,150.07714680000208,150.07714680000208,150.07714680000208,150.07714680000208,150.07714680000208,150.07714680000208,150.07714680000208,150.07714680000208,0,1,[0.0008071002084761858],[0.3674182000104338],150.07714680000208,150.27736849989742,0.0,150.27736849989742,0,0.0,0,1,1000,num_1,0.5266895999666303,,33,14,2026-03-12_18h28.46.039,2026A_exp2,2022.2.4,60.15793866422991,
1000,1,4.9,6.1,0,0,44,44,59,,,,,150.82770989998244,151.47845549997874,151.47845549997874,151.96280349977314,315,315,151.96280349977314,151.96280349977314,151.96280349977314,151.96280349977314,151.96280349977314,151.96280349977314,151.96280349977314,151.96280349977314,151.96280349977314,152.32937029981986,152.32937029981986,152.32937029981986,152.32937029981986,152.32937029981986,152.32937029981986,152.32937029981986,152.32937029981986,152.32937029981986,15,5,"[0.13368400000035763, 0.20020059985108674, 0.2502725999802351, 0.300417099846527, 0.33369759982451797]","[0.15013209986500442, 0.21690019988454878, 0.2836907999590039, 0.31696789991110563, 0.36713949986733496]",152.32937029981986,152.53117419988848,1000,152.53117419988848,1000,1000,1000,1000,1,num_2,0.19990910007618368,,33,14,2026-03-12_18h28.46.039,2026A_exp2,2022.2.4,60.15793866422991,
1000,1,3.7,3.7,1,0,45,45,25,,,,,152.74633619980887,153.39710459997877,153.39710459997877,153.8981913998723,315,315,153.8981913998723,153.8981913998723,153.8981913998723,153.8981913998723,153.8981913998723,153.8981913998723,153.8981913998723,153.8981913998723,153.8981913998723,154.26466929982416,154.26466929982416,154.26466929982416,154.26466929982416,154.26466929982416,154.26466929982416,154.26466929982416,154.26466929982416,154.26466929982416,21,1,[0.3510992999654263],[0.3676231000572443],154.26466929982416,154.4667830998078,1000,154.4667830998078,1000,1000,1000,1000,0,num_3,0.48020530003122985,,33,14,2026-03-12_18h28.46.039,2026A_exp2,2022.2.4,60.15793866422991,
1,0,4.9,0.0,0,0,46,46,57,,,,,154.96520679979585,155.6158666999545,155.6158666999545,156.11704119993374,45,45,156.11704119993374,156.11704119993374,156.11704119993374,156.11704119993374,156.11704119993374,156.11704119993374,156.11704119993374,156.11704119993374,156.11704119993374,156.48353249998763,156.48353249998763,156.48353249998763,156.48353249998763,156.48353249998763,156.48353249998763,156.48353249998763,156.48353249998763,156.48353249998763,23,0,,,156.48353249998763,156.68366290000267,4.9,156.68366290000267,1,4.9,1,1,1000,num_4,0.5836183000355959,,33,14,2026-03-12_18h28.46.039,2026A_exp2,2022.2.4,60.15793866422991,
1,0,0.0,0.0,1,0,47,47,68,,,,,157.28426289977506,157.93495679995976,157.93495679995976,158.41933239996433,45,45,158.41933239996433,158.41933239996433,158.41933239996433,158.41933239996433,158.41933239996433,158.41933239996433,158.41933239996433,158.41933239996433,158.41933239996433,158.78576429979876,158.78576429979876,158.78576429979876,158.78576429979876,158.78576429979876,158.78576429979876,158.78576429979876,158.78576429979876,158.78576429979876,0,1,[0.0012116001453250647],[0.3672334000002593],158.78576429979876,158.98630899982527,0.0,158.98630899982527,0,0.0,0,1,1000,num_1,0.5688082999549806,,33,14,2026-03-12_18h28.46.039,2026A_exp2,2022.2.4,60.15793866422991,
0,0,0.0,0.0,0,0,48,48,10,,,,,159.58666029991582,160.23730199993588,160.23730199993588,160.72158859996125,45,315,160.72158859996125,160.72158859996125,160.72158859996125,160.72158859996125,160.72158859996125,160.72158859996125,160.72158859996125,160.72158859996125,160.72158859996125,161.08813749998808,161.08813749998808,161.08813749998808,161.08813749998808,161.08813749998808,161.08813749998808,161.08813749998808,161.08813749998808,161.08813749998808,0,1,[0.0006975000724196434],[0.3669561999849975],161.08813749998808,161.28823750000447,0.0,161.28823750000447,0,0.0,0,1,1000,num_1,0.5144530001562089,,33,14,2026-03-12_18h28.46.039,2026A_exp2,2022.2.4,60.15793866422991,
1,0,6.1,0.0,1,0,49,49,53,,,,,161.822136499919,162.47283629979938,162.47283629979938,162.95728459977545,45,315,162.95728459977545,162.95728459977545,162.95728459977545,162.95728459977545,162.95728459977545,162.95728459977545,162.95728459977545,162.95728459977545,162.95728459977545,163.32364419987425,163.32364419987425,163.32364419987425,163.32364419987425,163.32364419987425,163.32364419987425,163.32364419987425,163.32364419987425,163.32364419987425,0,1,[0.0012569001410156488],[0.36719300015829504],163.32364419987425,163.52396069979295,0.0,163.52396069979295,0,0.0,0,1,1000,num_1,0.5509045999497175,,33,14,2026-03-12_18h28.46.039,2026A_exp2,2022.2.4,60.15793866422991,
1000,1,6.1,0.0,1,0,50,50,61,,,,,164.0910107998643,164.74173009977676,164.74173009977676,165.22617239993997,45,315,165.22617239993997,165.22617239993997,165.22617239993997,165.22617239993997,165.22617239993997,165.22617239993997,165.22617239993997,165.22617239993997,165.22617239993997,165.5926441999618,165.5926441999618,165.5926441999618,165.5926441999618,165.5926441999618,165.5926441999618,165.5926441999618,165.5926441999618,165.5926441999618,0,1,[0.001235700212419033],[0.3671328001655638],165.5926441999618,165.79446409991942,1000,165.79446409991942,1000,1000,1000,1000,0,num_3,0.37723980005830526,,33,14,2026-03-12_18h28.46.039,2026A_exp2,2022.2.4,60.15793866422991,
1,0,6.1,0.0,1,0,51,51,23,,,,,166.19309889990836,166.8437403999269,166.8437403999269,167.34504819987342,315,45,167.34504819987342,167.34504819987342,167.34504819987342,167.34504819987342,167.34504819987342,167.34504819987342,167.34504819987342,167.34504819987342,167.34504819987342,167.7114460999146,167.7114460999146,167.7114460999146,167.7114460999146,167.7114460999146,167.7114460999146,167.7114460999146,167.7114460999146,167.7114460999146,0,1,[0.0010234001092612743],[0.367284300038591],167.7114460999146,167.91165769984946,0.0,167.91165769984946,0,0.0,0,1,1000,num_1,0.42776609980501235,,33,14,2026-03-12_18h28.46.039,2026A_exp2,2022.2.4,60.15793866422991,
1000,1,4.9,4.9,1,0,52,52,67,,,,,168.36208139988594,169.01270919991657,169.01270919991657,169.51367049990222,315,315,169.51367049990222,169.51367049990222,169.51367049990222,169.51367049990222,169.51367049990222,169.51367049990222,169.51367049990222,169.51367049990222,169.51367049990222,169.8635659997817,169.8635659997817,169.8635659997817,169.8635659997817,169.8635659997817,169.8635659997817,169.8635659997817,169.8635659997817,169.8635659997817,0,1,[0.0011950000189244747],[0.3505987001117319],169.8635659997817,170.06551939994097,1000,170.06551939994097,1000,1000,1000,1000,1,num_2,0.3223168000113219,,33,14,2026-03-12_18h28.46.039,2026A_exp2,2022.2.4,60.15793866422991,
1000,1,0.0,0.0,1,0,53,53,80,,,,,170.41404909989797,171.06483429996297,171.06483429996297,171.5657598997932,315,315,171.5657598997932,171.5657598997932,171.5657598997932,171.5657598997932,171.5657598997932,171.5657598997932,171.5657598997932,171.5657598997932,171.5657598997932,171.9323106999509,171.9323106999509,171.9323106999509,171.9323106999509,171.9323106999509,171.9323106999509,171.9323106999509,171.9323106999509,171.9323106999509,11,1,[0.18338790000416338],[0.3671456999145448],171.9323106999509,172.1343050999567,1000,172.1343050999567,1000,1000,1000,1000,1,num_2,0.34840060002170503,,33,14,2026-03-12_18h28.46.039,2026A_exp2,2022.2.4,60.15793866422991,
1,0,4.9,0.0,0,0,54,54,47,,,,,172.49937759991735,173.15008099982515,173.15008099982515,173.651077499846,45,45,173.651077499846,173.651077499846,173.651077499846,173.651077499846,173.651077499846,173.651077499846,173.651077499846,173.651077499846,173.651077499846,174.01771349995397,174.01771349995397,174.01771349995397,174.01771349995397,174.01771349995397,174.01771349995397,174.01771349995397,174.01771349995397,174.01771349995397,22,0,,,174.01771349995397,174.21794289979152,4.9,174.21794289979152,1,4.9,1,1,1000,num_4,0.6092425000388175,,33,14,2026-03-12_18h28.46.039,2026A_exp2,2022.2.4,60.15793866422991,
1000,1,6.1,3.7,0,0,55,55,43,,,,,174.851811299799,175.48650419991463,175.48650419991463,175.98682059999555,315,315,175.98682059999555,175.98682059999555,175.98682059999555,175.98682059999555,175.98682059999555,175.98682059999555,175.98682059999555,175.98682059999555,175.98682059999555,176.35341319977306,176.35341319977306,176.35341319977306,176.35341319977306,176.35341319977306,176.35341319977306,176.35341319977306,176.35341319977306,176.35341319977306,17,3,"[0.05027189990505576, 0.10006759990938008, 0.18373050005175173]","[0.06694509997032583, 0.13379219989292324, 0.2170945000834763]",176.35341319977306,176.5552436998114,1000,176.5552436998114,1000,1000,1000,1000,0,num_3,0.3993900001514703,,33,14,2026-03-12_18h28.46.039,2026A_exp2,2022.2.4,60.15793866422991,
1,0,3.7,0.0,1,0,56,56,55,,,,,176.97068489994854,177.6213829999324,177.6213829999324,178.12221689987928,315,315,178.12221689987928,178.12221689987928,178.12221689987928,178.12221689987928,178.12221689987928,178.12221689987928,178.12221689987928,178.12221689987928,178.12221689987928,178.47190949996002,178.47190949996002,178.47190949996002,178.47190949996002,178.47190949996002,178.47190949996002,178.47190949996002,178.47190949996002,178.47190949996002,12,5,"[0.03383069997653365, 0.0998935999814421, 0.15042530000209808, 0.2671456001698971, 0.3170863001141697]","[0.050345700001344085, 0.13363170018419623, 0.23401450016535819, 0.2838142002001405, 0.33386110002174973]",178.47190949996002,178.67234779987484,0.0,178.67234779987484,0,0.0,0,1,1000,num_1,0.7234548998530954,,33,14,2026-03-12_18h28.46.039,2026A_exp2,2022.2.4,60.15793866422991,
1,0,3.7,0.0,1,0,57,57,73,,,,,179.42317949980497,180.05709669995122,180.05709669995122,180.55812459997833,315,45,180.55812459997833,180.55812459997833,180.55812459997833,180.55812459997833,180.55812459997833,180.55812459997833,180.55812459997833,180.55812459997833,180.55812459997833,180.92443419992924,180.92443419992924,180.92443419992924,180.92443419992924,180.92443419992924,180.92443419992924,180.92443419992924,180.92443419992924,180.92443419992924,6,4,"[0.0007997001521289349, 0.06737340008839965, 0.15076020010747015, 0.33373589999973774]","[0.050331100123003125, 0.13408900005742908, 0.3005554999690503, 0.3504501001443714]",180.92443419992924,181.12472739978693,0.0,181.12472739978693,0,0.0,0,1,1000,num_1,0.6947472000028938,,33,14,2026-03-12_18h28.46.039,2026A_exp2,2022.2.4,60.15793866422991,
1,0,0.0,6.1,1,0,58,58,17,,,,,181.84212919999845,182.4928784999065,182.4928784999065,182.9773207998369,315,315,182.9773207998369,182.9773207998369,182.9773207998369,182.9773207998369,182.9773207998369,182.9773207998369,182.9773207998369,182.9773207998369,182.9773207998369,183.34352759993635,183.34352759993635,183.34352759993635,183.34352759993635,183.34352759993635,183.34352759993635,183.34352759993635,183.34352759993635,183.34352759993635,0,1,[0.0012481000740081072],[0.3671584001276642],183.34352759993635,183.5439481998328,6.1,183.5439481998328,1,6.1,1,1,1000,num_4,0.5716383999679238,,33,14,2026-03-12_18h28.46.039,2026A_exp2,2022.2.4,60.15793866422991,
1,0,0.0,0.0,1,0,59,59,56,,,,,184.1443614999298,184.79517079982907,184.79517079982907,185.28010549978353,45,315,185.28010549978353,185.28010549978353,185.28010549978353,185.28010549978353,185.28010549978353,185.28010549978353,185.28010549978353,185.28010549978353,185.28010549978353,185.6460289999377,185.6460289999377,185.6460289999377,185.6460289999377,185.6460289999377,185.6460289999377,185.6460289999377,185.6460289999377,185.6460289999377,13,5,"[0.0018446000758558512, 0.13337990012951195, 0.16710290010087192, 0.2496466999873519, 0.3161898001562804]","[0.05008110008202493, 0.15029469993896782, 0.18347200006246567, 0.2996956999413669, 0.34978760010562837]",185.6460289999377,185.8459674997721,0.0,185.8459674997721,0,0.0,0,1,1000,num_1,0.5968428999185562,,33,14,2026-03-12_18h28.46.039,2026A_exp2,2022.2.4,60.15793866422991,
1000,1,0.0,0.0,1,0,60,60,63,,,,,186.46334559982643,187.11410569981672,187.11410569981672,187.59842039993964,45,45,187.59842039993964,187.59842039993964,187.59842039993964,187.59842039993964,187.59842039993964,187.59842039993964,187.59842039993964,187.59842039993964,187.59842039993964,187.96513059991412,187.96513059991412,187.96513059991412,187.96513059991412,187.96513059991412,187.96513059991412,187.96513059991412,187.96513059991412,187.96513059991412,18,3,"[0.0012390001211315393, 0.10014370013959706, 0.16685000015422702]","[0.05014490010216832, 0.11684689996764064, 0.1835241001099348]",187.96513059991412,188.16697719995864,1000,188.16697719995864,1000,1000,1000,1000,0,num_3,0.42098579998128116,,33,14,2026-03-12_18h28.46.039,2026A_exp2,2022.2.4,60.15793866422991,
1,0,0.0,0.0,0,0,61,61,75,,,,,188.61575569980778,189.26623229985125,189.26623229985125,189.767681799829,315,315,189.767681799829,189.767681799829,189.767681799829,189.767681799829,189.767681799829,189.767681799829,189.767681799829,189.767681799829,189.767681799829,190.13372489996254,190.13372489996254,190.13372489996254,190.13372489996254,190.13372489996254,190.13372489996254,190.13372489996254,190.13372489996254,190.13372489996254,0,1,[0.000762800220400095],[0.3672198001295328],190.13372489996254,190.3339208997786,0.0,190.3339208997786,1,0.0,0,0,1000,num_4,0.6535689001902938,,33,14,2026-03-12_18h28.46.039,2026A_exp2,2022.2.4,60.15793866422991,
0,0,0.0,0.0,0,0,62,62,20,,,,,191.01800329983234,191.65206809993833,191.65206809993833,192.15310739981942,45,45,192.15310739981942,192.15310739981942,192.15310739981942,192.15310739981942,192.15310739981942,192.15310739981942,192.15310739981942,192.15310739981942,192.15310739981942,192.5194801997859,192.5194801997859,192.5194801997859,192.5194801997859,192.5194801997859,192.5194801997859,192.5194801997859,192.5194801997859,192.5194801997859,0,1,[0.0007920002099126577],[0.36750610009767115],192.5194801997859,192.71957459999248,0.0,192.71957459999248,1,0.0,0,0,1000,num_4,1.4433236999902874,,33,14,2026-03-12_18h28.46.039,2026A_exp2,2022.2.4,60.15793866422991,
0,0,4.9,3.7,1,0,63,63,13,,,,,194.1878481998574,194.8384943997953,194.8384943997953,195.32292439998128,315,315,195.32292439998128,195.32292439998128,195.32292439998128,195.32292439998128,195.32292439998128,195.32292439998128,195.32292439998128,195.32292439998128,195.32292439998128,195.68951639998704,195.68951639998704,195.68951639998704,195.68951639998704,195.68951639998704,195.68951639998704,195.68951639998704,195.68951639998704,195.68951639998704,1,2,"[0.0012030999641865492, 0.3500486998818815]","[0.3335988000035286, 0.36651759990490973]",195.68951639998704,195.8894339997787,4.9,195.8894339997787,1,4.9,1,1,1000,num_4,0.5628871000371873,,33,14,2026-03-12_18h28.46.039,2026A_exp2,2022.2.4,60.15793866422991,
1000,1,0.0,6.1,0,0,64,64,5,,,,,196.47518219985068,197.1240806998685,197.1240806998685,197.62528179981746,315,45,197.62528179981746,197.62528179981746,197.62528179981746,197.62528179981746,197.62528179981746,197.62528179981746,197.62528179981746,197.62528179981746,197.62528179981746,197.99157519987784,197.99157519987784,197.99157519987784,197.99157519987784,197.99157519987784,197.99157519987784,197.99157519987784,197.99157519987784,197.99157519987784,13,7,"[0.0012025998439639807, 0.03358199982903898, 0.09959309990517795, 0.21704999986104667, 0.25050179986283183, 0.31710819993168116, 0.36712439986877143]","[0.017379999859258533, 0.06679509999230504, 0.11653329990804195, 0.23367360001429915, 0.30042349989525974, 0.333872799994424, 0.36712950002402067]",197.99157519987784,198.19355019996874,1000,198.19355019996874,1000,1000,1000,1000,1,num_2,0.4975002999417484,,33,14,2026-03-12_18h28.46.039,2026A_exp2,2022.2.4,60.15793866422991,
1,0,3.7,4.9,0,0,65,65,70,,,,,198.70894749998115,199.35973479994573,199.35973479994573,199.8608263998758,315,315,199.8608263998758,199.8608263998758,199.8608263998758,199.8608263998758,199.8608263998758,199.8608263998758,199.8608263998758,199.8608263998758,199.8608263998758,200.22729399986565,200.22729399986565,200.22729399986565,200.22729399986565,200.22729399986565,200.22729399986565,200.22729399986565,200.22729399986565,200.22729399986565,7,1,[0.11699280003085732],[0.3673978999722749],200.22729399986565,200.42744789994322,3.7,200.42744789994322,0,3.7,1,0,1000,num_1,0.6877498999238014,,33,14,2026-03-12_18h28.46.039,2026A_exp2,2022.2.4,60.15793866422991,
1,0,6.1,4.9,1,0,66,66,38,,,,,201.1448827998247,201.79536019987427,201.79536019987427,202.2799862998072,45,45,202.2799862998072,202.2799862998072,202.2799862998072,202.2799862998072,202.2799862998072,202.2799862998072,202.2799862998072,202.2799862998072,202.2799862998072,202.6463163997978,202.6463163997978,202.6463163997978,202.6463163997978,202.6463163997978,202.6463163997978,202.6463163997978,202.6463163997978,202.6463163997978,22,1,[0.08360250014811754],[0.10019430005922914],202.6463163997978,202.8465726999566,4.9,202.8465726999566,1,4.9,1,1,1000,num_4,0.7243597998749465,,33,14,2026-03-12_18h28.46.039,2026A_exp2,2022.2.4,60.15793866422991,
0,0,6.1,0.0,0,0,67,67,65,,,,,203.5973203999456,204.2479562999215,204.2479562999215,204.7323995998595,315,45,204.7323995998595,204.7323995998595,204.7323995998595,204.7323995998595,204.7323995998595,204.7323995998595,204.7323995998595,204.7323995998595,204.7323995998595,205.09868889977224,205.09868889977224,205.09868889977224,205.09868889977224,205.09868889977224,205.09868889977224,205.09868889977224,205.09868889977224,205.09868889977224,10,6,"[0.0012161999475210905, 0.0669836001470685, 0.1337315000128001, 0.20041469996795058, 0.23339820001274347, 0.316421200055629]","[0.017437499947845936, 0.10030740010552108, 0.16693260008469224, 0.2169654001481831, 0.2832003999501467, 0.3665484001394361]",205.09868889977224,205.2992606998887,0.0,205.2992606998887,0,0.0,0,1,1000,num_1,0.6083527998998761,,33,14,2026-03-12_18h28.46.039,2026A_exp2,2022.2.4,60.15793866422991,
1000,1,0.0,3.7,0,0,68,68,18,,,,,205.93302419991232,206.58383959997445,206.58383959997445,207.0843850998208,45,45,207.0843850998208,207.0843850998208,207.0843850998208,207.0843850998208,207.0843850998208,207.0843850998208,207.0843850998208,207.0843850998208,207.0843850998208,207.434493499808,207.434493499808,207.434493499808,207.434493499808,207.434493499808,207.434493499808,207.434493499808,207.434493499808,207.434493499808,0,1,[0.0007831999100744724],[0.3511856999248266],207.434493499808,207.63634749990888,1000,207.63634749990888,1000,1000,1000,1000,1,num_2,0.4868203999940306,,33,14,2026-03-12_18h28.46.039,2026A_exp2,2022.2.4,60.15793866422991,
1000,1,4.9,6.1,0,0,69,69,35,,,,,208.15177779993974,208.80238129990175,208.80238129990175,209.3035275998991,45,45,209.3035275998991,209.3035275998991,209.3035275998991,209.3035275998991,209.3035275998991,209.3035275998991,209.3035275998991,209.3035275998991,209.3035275998991,209.67000129981898,209.67000129981898,209.67000129981898,209.67000129981898,209.67000129981898,209.67000129981898,209.67000129981898,209.67000129981898,209.67000129981898,23,0,,,209.67000129981898,209.87208219990134,1000,209.87208219990134,1000,1000,1000,1000,1,num_2,0.33111850009299815,,33,14,2026-03-12_18h28.46.039,2026A_exp2,2022.2.4,60.15793866422991,
1,0,0.0,0.0,1,0,70,70,77,,,,,210.2206409999635,210.87121039978229,210.87121039978229,211.3722589998506,45,315,211.3722589998506,211.3722589998506,211.3722589998506,211.3722589998506,211.3722589998506,211.3722589998506,211.3722589998506,211.3722589998506,211.3722589998506,211.73858019988984,211.73858019988984,211.73858019988984,211.73858019988984,211.73858019988984,211.73858019988984,211.73858019988984,211.73858019988984,211.73858019988984,23,0,,,211.73858019988984,211.93892439990304,0.0,211.93892439990304,0,0.0,0,1,1000,num_1,0.5522357001900673,,33,14,2026-03-12_18h28.46.039,2026A_exp2,2022.2.4,60.15793866422991,
1000,1,0.0,3.7,1,0,71,71,7,,,,,212.52275069989264,213.17351359990425,213.17351359990425,213.65789889986627,45,45,213.65789889986627,213.65789889986627,213.65789889986627,213.65789889986627,213.65789889986627,213.65789889986627,213.65789889986627,213.65789889986627,213.65789889986627,214.0241864998825,214.0241864998825,214.0241864998825,214.0241864998825,214.0241864998825,214.0241864998825,214.0241864998825,214.0241864998825,214.0241864998825,2,3,"[0.0012154998257756233, 0.08362409984692931, 0.3167777999769896]","[0.0667675998993218, 0.300054999999702, 0.3671267000027001]",214.0241864998825,214.22669539996423,1000,214.22669539996423,1000,1000,1000,1000,1,num_2,0.35275800013914704,,33,14,2026-03-12_18h28.46.039,2026A_exp2,2022.2.4,60.15793866422991,
1000,1,0.0,6.1,1,0,72,72,40,,,,,214.60841849981807,215.2590201999992,215.2590201999992,215.7600475999061,315,45,215.7600475999061,215.7600475999061,215.7600475999061,215.7600475999061,215.7600475999061,215.7600475999061,215.7600475999061,215.7600475999061,215.7600475999061,216.1265395998489,216.1265395998489,216.1265395998489,216.1265395998489,216.1265395998489,216.1265395998489,216.1265395998489,216.1265395998489,216.1265395998489,7,6,"[0.001262499950826168, 0.1336402001325041, 0.16696870001032948, 0.26724239997565746, 0.3006713001523167, 0.33378710015676916]","[0.11705600004643202, 0.1502324000466615, 0.2501807000953704, 0.28380520013161004, 0.3172820000909269, 0.35052650002762675]",216.1265395998489,216.32866209978238,1000,216.32866209978238,1000,1000,1000,1000,1,num_2,0.39401679998263717,,33,14,2026-03-12_18h28.46.039,2026A_exp2,2022.2.4,60.15793866422991,
1,0,0.0,4.9,1,0,73,73,44,,,,,216.74373919982463,217.3943800998386,217.3943800998386,217.89550879993476,45,45,217.89550879993476,217.89550879993476,217.89550879993476,217.89550879993476,217.89550879993476,217.89550879993476,217.89550879993476,217.89550879993476,217.89550879993476,218.261917399941,218.261917399941,218.261917399941,218.261917399941,218.261917399941,218.261917399941,218.261917399941,218.261917399941,218.261917399941,20,2,"[0.001215500058606267, 0.06685029994696379]","[0.033674800070002675, 0.08342320006340742]",218.261917399941,218.46202099998482,4.9,218.46202099998482,1,4.9,1,1,1000,num_4,0.5816770000383258,,33,14,2026-03-12_18h28.46.039,2026A_exp2,2022.2.4,60.15793866422991,
1,0,0.0,0.0,1,0,74,74,42,,,,,219.06275419984013,219.7133843000047,219.7133843000047,220.1978538997937,315,45,220.1978538997937,220.1978538997937,220.1978538997937,220.1978538997937,220.1978538997937,220.1978538997937,220.1978538997937,220.1978538997937,220.1978538997937,220.5642727999948,220.5642727999948,220.5642727999948,220.5642727999948,220.5642727999948,220.5642727999948,220.5642727999948,220.5642727999948,220.5642727999948,17,2,"[0.0011096999514847994, 0.3009293999057263]","[0.05036719981580973, 0.3340385998599231]",220.5642727999948,220.7644401998259,0.0,220.7644401998259,0,0.0,0,1,1000,num_1,0.5510085001587868,,33,14,2026-03-12_18h28.46.039,2026A_exp2,2022.2.4,60.15793866422991,
1,0,0.0,3.7,1,0,75,75,83,,,,,221.33175169979222,221.98237279988825,221.98237279988825,222.48332439991646,315,45,222.48332439991646,222.48332439991646,222.48332439991646,222.48332439991646,222.48332439991646,222.48332439991646,222.48332439991646,222.48332439991646,222.48332439991646,222.84977669990622,222.84977669990622,222.84977669990622,222.84977669990622,222.84977669990622,222.84977669990622,222.84977669990622,222.84977669990622,222.84977669990622,2,2,"[0.000719199888408184, 0.2677470000926405]","[0.23403649986721575, 0.3678210999350995]",222.84977669990622,223.0500624999404,3.7,223.0500624999404,1,3.7,1,1,1000,num_4,0.593188300030306,,33,14,2026-03-12_18h28.46.039,2026A_exp2,2022.2.4,60.15793866422991,
1,0,0.0,4.9,1,0,76,76,2,,,,,223.6671642998699,224.318070899928,224.318070899928,224.80234669987112,45,315,224.80234669987112,224.80234669987112,224.80234669987112,224.80234669987112,224.80234669987112,224.80234669987112,224.80234669987112,224.80234669987112,224.80234669987112,225.1687965998426,225.1687965998426,225.1687965998426,225.1687965998426,225.1687965998426,225.1687965998426,225.1687965998426,225.1687965998426,225.1687965998426,23,0,,,225.1687965998426,225.36906779999845,4.9,225.36906779999845,1,4.9,1,1,1000,num_4,0.5936457000207156,,33,14,2026-03-12_18h28.46.039,2026A_exp2,2022.2.4,60.15793866422991,
1000,1,0.0,0.0,1,0,77,77,27,,,,,225.9864121999126,226.63722209981643,226.63722209981643,227.12126799998805,45,45,227.12126799998805,227.12126799998805,227.12126799998805,227.12126799998805,227.12126799998805,227.12126799998805,227.12126799998805,227.12126799998805,227.12126799998805,227.48776649986394,227.48776649986394,227.48776649986394,227.48776649986394,227.48776649986394,227.48776649986394,227.48776649986394,227.48776649986394,227.48776649986394,23,0,,,227.48776649986394,227.69006219995208,1000,227.69006219995208,1000,1000,1000,1000,0,num_3,0.4731922000646591,,33,14,2026-03-12_18h28.46.039,2026A_exp2,2022.2.4,60.15793866422991,
1,0,3.7,3.7,1,0,78,78,11,,,,,228.18866919982247,228.83912179991603,228.83912179991603,229.34001219994389,45,45,229.34001219994389,229.34001219994389,229.34001219994389,229.34001219994389,229.34001219994389,229.34001219994389,229.34001219994389,229.34001219994389,229.34001219994389,229.70673119998537,229.70673119998537,229.70673119998537,229.70673119998537,229.70673119998537,229.70673119998537,229.70673119998537,229.70673119998537,229.70673119998537,21,2,"[0.1333327000029385, 0.20040059997700155]","[0.1501714000478387, 0.2172205001115799]",229.70673119998537,229.90690059983172,3.7,229.90690059983172,1,3.7,1,1,1000,num_4,0.5202495998237282,,33,14,2026-03-12_18h28.46.039,2026A_exp2,2022.2.4,60.15793866422991,
1000,1,4.9,3.7,0,0,79,79,26,,,,,230.45751909981482,231.10819249995984,231.10819249995984,231.5925462997984,315,315,231.5925462997984,231.5925462997984,231.5925462997984,231.5925462997984,231.5925462997984,231.5925462997984,231.5925462997984,231.5925462997984,231.5925462997984,231.95888979989104,231.95888979989104,231.95888979989104,231.95888979989104,231.95888979989104,231.95888979989104,231.95888979989104,231.95888979989104,231.95888979989104,23,0,,,231.95888979989104,232.16107559995726,1000,232.16107559995726,1000,1000,1000,1000,0,num_3,0.17855269997380674,,33,14,2026-03-12_18h28.46.039,2026A_exp2,2022.2.4,60.15793866422991,
1000,1,4.9,4.9,0,0,80,80,6,,,,,232.35938469995745,233.010008999845,233.010008999845,233.5108718997799,315,45,233.5108718997799,233.5108718997799,233.5108718997799,233.5108718997799,233.5108718997799,233.5108718997799,233.5108718997799,233.5108718997799,233.5108718997799,233.87753769988194,233.87753769988194,233.87753769988194,233.87753769988194,233.87753769988194,233.87753769988194,233.87753769988194,233.87753769988194,233.87753769988194,23,0,,,233.87753769988194,234.07980680000037,1000,234.07980680000037,1000,1000,1000,1000,1,num_2,0.2434348000679165,,33,14,2026-03-12_18h28.46.039,2026A_exp2,2022.2.4,60.15793866422991,
1000,1,3.7,3.7,0,0,81,81,76,,,,,234.3446864997968,234.99503479991108,234.99503479991108,235.49627009988762,45,315,235.49627009988762,235.49627009988762,235.49627009988762,235.49627009988762,235.49627009988762,235.49627009988762,235.49627009988762,235.49627009988762,235.49627009988762,235.86282509984449,235.86282509984449,235.86282509984449,235.86282509984449,235.86282509984449,235.86282509984449,235.86282509984449,235.86282509984449,235.86282509984449,5,4,"[0.033009600127115846, 0.10116850002668798, 0.13336229999549687, 0.16683929995633662]","[0.0842059999704361, 0.116825400153175, 0.15023330016992986, 0.36733270017430186]",235.86282509984449,236.0656183999963,1000,236.0656183999963,1000,1000,1000,1000,1,num_2,0.42545400001108646,,33,14,2026-03-12_18h28.46.039,2026A_exp2,2022.2.4,60.15793866422991,
1000,1,4.9,0.0,0,0,82,82,82,,,,,236.5135274999775,237.16416649986058,237.16416649986058,237.665341099957,45,45,237.665341099957,237.665341099957,237.665341099957,237.665341099957,237.665341099957,237.665341099957,237.665341099957,237.665341099957,237.665341099957,238.0316773999948,238.0316773999948,238.0316773999948,238.0316773999948,238.0316773999948,238.0316773999948,238.0316773999948,238.0316773999948,238.0316773999948,23,0,,,238.0316773999948,238.2336626998149,1000,238.2336626998149,1000,1000,1000,1000,0,num_3,0.441709800157696,,33,14,2026-03-12_18h28.46.039,2026A_exp2,2022.2.4,60.15793866422991,
1000,1,0.0,0.0,0,0,83,83,33,,,,,238.699175799964,239.34971909993328,239.34971909993328,239.85076939989813,45,45,239.85076939989813,239.85076939989813,239.85076939989813,239.85076939989813,239.85076939989813,239.85076939989813,239.85076939989813,239.85076939989813,239.85076939989813,240.2172148998361,240.2172148998361,240.2172148998361,240.2172148998361,240.2172148998361,240.2172148998361,240.2172148998361,240.2172148998361,240.2172148998361,23,0,,,240.2172148998361,240.4191106997896,1000,240.4191106997896,1000,1000,1000,1000,1,num_2,0.5521457998547703,,33,14,2026-03-12_18h28.46.039,2026A_exp2,2022.2.4,60.15793866422991,
1000,1,0.0,0.0,1,0,84,84,78,,,,,241.00139150000177,241.6519211998675,241.6519211998675,242.15311719989404,45,315,242.15311719989404,242.15311719989404,242.15311719989404,242.15311719989404,242.15311719989404,242.15311719989404,242.15311719989404,242.15311719989404,242.15311719989404,242.51955079985783,242.51955079985783,242.51955079985783,242.51955079985783,242.51955079985783,242.51955079985783,242.51955079985783,242.51955079985783,242.51955079985783,23,0,,,242.51955079985783,242.72140759998,1000,242.72140759998,1000,1000,1000,1000,0,num_3,0.4585380000062287,,33,14,2026-03-12_18h28.46.039,2026A_exp2,2022.2.4,60.15793866422991,
1,0,6.1,0.0,1,0,85,85,41,,,,,243.2035766998306,243.85405109985732,243.85405109985732,244.35526109999046,45,45,244.35526109999046,244.35526109999046,244.35526109999046,244.35526109999046,244.35526109999046,244.35526109999046,244.35526109999046,244.35526109999046,244.35526109999046,244.7218028998468,244.7218028998468,244.7218028998468,244.7218028998468,244.7218028998468,244.7218028998468,244.7218028998468,244.7218028998468,244.7218028998468,15,5,"[0.0012676999904215336, 0.21708390000276268, 0.2670573000796139, 0.3004707999061793, 0.3504802000243217]","[0.0173418999183923, 0.2503990000113845, 0.28382560005411506, 0.3173402000684291, 0.36715959990397096]",244.7218028998468,244.92201839992777,0.0,244.92201839992777,0,0.0,0,1,1000,num_1,0.6092757999431342,,33,14,2026-03-12_18h28.46.039,2026A_exp2,2022.2.4,60.15793866422991,
1000,1,0.0,0.0,1,0,86,86,37,,,,,245.5558415998239,246.2065905998461,246.2065905998461,246.70758349983953,45,45,246.70758349983953,246.70758349983953,246.70758349983953,246.70758349983953,246.70758349983953,246.70758349983953,246.70758349983953,246.70758349983953,246.70758349983953,247.05730879982002,247.05730879982002,247.05730879982002,247.05730879982002,247.05730879982002,247.05730879982002,247.05730879982002,247.05730879982002,247.05730879982002,17,4,"[0.017385999904945493, 0.1337268000934273, 0.21708320011384785, 0.30064540007151663]","[0.0336907000746578, 0.15042990003712475, 0.23377620009705424, 0.3339509000070393]",247.05730879982002,247.2597844998818,1000,247.2597844998818,1000,1000,1000,1000,0,num_3,0.5439126000273973,,33,14,2026-03-12_18h28.46.039,2026A_exp2,2022.2.4,60.15793866422991,
0,0,0.0,6.1,0,0,87,87,12,,,,,247.82475599995814,248.4755526999943,248.4755526999943,248.976646799827,45,45,248.976646799827,248.976646799827,248.976646799827,248.976646799827,248.976646799827,248.976646799827,248.976646799827,248.976646799827,248.976646799827,249.34306250000373,249.34306250000373,249.34306250000373,249.34306250000373,249.34306250000373,249.34306250000373,249.34306250000373,249.34306250000373,249.34306250000373,3,3,"[0.01748859998770058, 0.13370900019071996, 0.18373679998330772]","[0.11691340012475848, 0.16705400007776916, 0.367189500015229]",249.34306250000373,249.54327599983662,6.1,249.54327599983662,1,6.1,1,1,1000,num_4,0.5479945000261068,,33,14,2026-03-12_18h28.46.039,2026A_exp2,2022.2.4,60.15793866422991,
1,0,4.9,0.0,0,0,88,88,19,,,,,250.1105174999684,250.76117289997637,250.76117289997637,251.24550369987264,315,45,251.24550369987264,251.24550369987264,251.24550369987264,251.24550369987264,251.24550369987264,251.24550369987264,251.24550369987264,251.24550369987264,251.24550369987264,251.6119652998168,251.6119652998168,251.6119652998168,251.6119652998168,251.6119652998168,251.6119652998168,251.6119652998168,251.6119652998168,251.6119652998168,2,2,"[0.0011938000097870827, 0.06697489996440709]","[0.05032859998755157, 0.3673280000220984]",251.6119652998168,251.81214209995233,4.9,251.81214209995233,1,4.9,1,1,1000,num_4,0.5114883999340236,,33,14,2026-03-12_18h28.46.039,2026A_exp2,2022.2.4,60.15793866422991,
1000,1,0.0,3.7,1,0,89,89,86,,,,,252.3459865998011,252.996683599893,252.996683599893,253.4978346999269,315,45,253.4978346999269,253.4978346999269,253.4978346999269,253.4978346999269,253.4978346999269,253.4978346999269,253.4978346999269,253.4978346999269,253.4978346999269,253.84741099993698,253.84741099993698,253.84741099993698,253.84741099993698,253.84741099993698,253.84741099993698,253.84741099993698,253.84741099993698,253.84741099993698,17,4,"[0.05016250000335276, 0.13347110012546182, 0.1835495000705123, 0.2668788000009954]","[0.10022460017353296, 0.15060350019484758, 0.20019850018434227, 0.2835890999995172]",253.84741099993698,254.0494107999839,1000,254.0494107999839,1000,1000,1000,1000,1,num_2,0.4573491998016834,,33,14,2026-03-12_18h28.46.039,2026A_exp2,2022.2.4,60.15793866422991,
,,,,,,,,,,,,,,,,,,,,,,,,,,,,,,,,,,,,,,,,,,,,,,,,,,,,254.5406970998738,,,,,,,
