validity,detectorcomp,contrastCW,contrastCCW,precueCWorCCW,block_80trials.thisRepN,block_80trials.thisTrialN,block_80trials.thisN,block_80trials.thisIndex,etRecord.started,etRecord.stopped,text.started,text.stopped,text_4.started,text_4.stopped,text_6.started,text_6.stopped,oriCW,oriCCW,roi_2.started,grating_UR.started,grating_UL.started,grating_LR.started,grating_LL.started,noise_UR.started,noise_UL.started,noise_LR.started,noise_LL.started,roi_2.stopped,grating_UR.stopped,grating_UL.stopped,grating_LR.stopped,grating_LL.stopped,noise_UR.stopped,noise_UL.stopped,noise_LR.stopped,noise_LL.stopped,outframe,roi_2.numLooks,roi_2.timesOn,roi_2.timesOff,text_2.started,text_2.stopped,probedcontrast,key_resp.started,respdetect,relevantContrast,correctDetect,TorFdetect,respCWorCCW,key_resp.keys,key_resp.rt,feedback_display_.started,participantNo,blockNo,date,expName,psychopyVersion,frameRate,
1000,1,4.9,0.0,0,0,0,0,36,8.190004155039787e-05,8.190004155039787e-05,57.6975836000056,59.70204519998515,59.70204519998515,60.351012800005265,60.351012800005265,60.85291479999432,45,45,60.85291479999432,60.85291479999432,60.85291479999432,60.85291479999432,60.85291479999432,60.85291479999432,60.85291479999432,60.85291479999432,60.85291479999432,61.201985399995465,61.201985399995465,61.201985399995465,61.201985399995465,61.201985399995465,61.201985399995465,61.201985399995465,61.201985399995465,61.201985399995465,23,0,,,61.201985399995465,61.40919589996338,1000,61.40919589996338,1000,1000,1000,1000,1,num_2,0.849876599968411,,28,3,2026-03-05_15h31.06.787,2026A_exp2,2022.2.4,59.94413206918887,
1,0,4.9,4.9,0,0,1,1,63,,,,,62.28643519995967,62.937134800013155,62.937134800013155,63.438116599980276,315,315,63.438116599980276,63.438116599980276,63.438116599980276,63.438116599980276,63.438116599980276,63.438116599980276,63.438116599980276,63.438116599980276,63.438116599980276,63.80457639996894,63.80457639996894,63.80457639996894,63.80457639996894,63.80457639996894,63.80457639996894,63.80457639996894,63.80457639996894,63.80457639996894,0,1,[0.0012215999886393547],[0.3671514999587089],63.80457639996894,64.00461499998346,4.9,64.00461499998346,1,4.9,1,1,1000,num_4,1.2877848999924026,,28,3,2026-03-05_15h31.06.787,2026A_exp2,2022.2.4,59.94413206918887,
1000,1,0.0,0.0,0,0,2,2,69,,,,,65.3226832000073,65.97337429999607,65.97337429999607,66.45772030000808,45,315,66.45772030000808,66.45772030000808,66.45772030000808,66.45772030000808,66.45772030000808,66.45772030000808,66.45772030000808,66.45772030000808,66.45772030000808,66.82417699997313,66.82417699997313,66.82417699997313,66.82417699997313,66.82417699997313,66.82417699997313,66.82417699997313,66.82417699997313,66.82417699997313,0,1,[0.001228800043463707],[0.3683924000361003],66.82417699997313,67.0264143999666,1000,67.0264143999666,1000,1000,1000,1000,1,num_2,0.42498380003962666,,28,3,2026-03-05_15h31.06.787,2026A_exp2,2022.2.4,59.94413206918887,
1000,1,6.1,3.7,0,0,3,3,87,,,,,67.47492599999532,68.1253754000063,68.1253754000063,68.62677029997576,315,45,68.62677029997576,68.62677029997576,68.62677029997576,68.62677029997576,68.62677029997576,68.62677029997576,68.62677029997576,68.62677029997576,68.62677029997576,68.99322439997923,68.99322439997923,68.99322439997923,68.99322439997923,68.99322439997923,68.99322439997923,68.99322439997923,68.99322439997923,68.99322439997923,0,1,[0.001014699984807521],[0.3670666000107303],68.99322439997923,69.19543069996871,1000,69.19543069996871,1000,1000,1000,1000,1,num_2,0.8637773999944329,,28,3,2026-03-05_15h31.06.787,2026A_exp2,2022.2.4,59.94413206918887,
1,0,4.9,0.0,1,0,4,4,6,,,,,70.07750839996152,70.72803299996303,70.72803299996303,71.22930720000295,45,315,71.22930720000295,71.22930720000295,71.22930720000295,71.22930720000295,71.22930720000295,71.22930720000295,71.22930720000295,71.22930720000295,71.22930720000295,71.59565470000962,71.59565470000962,71.59565470000962,71.59565470000962,71.59565470000962,71.59565470000962,71.59565470000962,71.59565470000962,71.59565470000962,6,1,[0.0012339999666437507],[0.2836676999577321],71.59565470000962,71.79574739997042,0.0,71.79574739997042,1,0.0,0,0,1000,num_4,1.1832999999751337,,28,3,2026-03-05_15h31.06.787,2026A_exp2,2022.2.4,59.94413206918887,
1,0,0.0,0.0,0,0,5,5,2,,,,,72.99695010000141,73.63102979998803,73.63102979998803,74.13207870000042,315,45,74.13207870000042,74.13207870000042,74.13207870000042,74.13207870000042,74.13207870000042,74.13207870000042,74.13207870000042,74.13207870000042,74.13207870000042,74.49864120001439,74.49864120001439,74.49864120001439,74.49864120001439,74.49864120001439,74.49864120001439,74.49864120001439,74.49864120001439,74.49864120001439,0,1,[0.0011018000077456236],[0.3673496000119485],74.49864120001439,74.69860860001063,0.0,74.69860860001063,1,0.0,0,0,1000,num_4,0.9935218999744393,,28,3,2026-03-05_15h31.06.787,2026A_exp2,2022.2.4,59.94413206918887,
1,0,4.9,6.1,1,0,6,6,46,,,,,75.7162480999832,76.36715339997318,76.36715339997318,76.85165819997201,45,315,76.85165819997201,76.85165819997201,76.85165819997201,76.85165819997201,76.85165819997201,76.85165819997201,76.85165819997201,76.85165819997201,76.85165819997201,77.21797369996784,77.21797369996784,77.21797369996784,77.21797369996784,77.21797369996784,77.21797369996784,77.21797369996784,77.21797369996784,77.21797369996784,0,1,[0.0011986999888904393],[0.36685260001104325],77.21797369996784,77.41820610000286,6.1,77.41820610000286,1,6.1,1,1,1000,num_4,3.7049810999887995,,28,3,2026-03-05_15h31.06.787,2026A_exp2,2022.2.4,59.94413206918887,
0,0,0.0,6.1,1,0,7,7,76,,,,,81.15516600001138,81.78924989997176,81.78924989997176,82.29039380000904,45,315,82.29039380000904,82.29039380000904,82.29039380000904,82.29039380000904,82.29039380000904,82.29039380000904,82.29039380000904,82.29039380000904,82.29039380000904,82.65670579997823,82.65670579997823,82.65670579997823,82.65670579997823,82.65670579997823,82.65670579997823,82.65670579997823,82.65670579997823,82.65670579997823,0,1,[0.001222599996253848],[0.3674903000355698],82.65670579997823,82.85700809996342,0.0,82.85700809996342,1,0.0,0,0,1000,num_4,0.9705991999944672,,28,3,2026-03-05_15h31.06.787,2026A_exp2,2022.2.4,59.94413206918887,
1000,1,6.1,3.7,1,0,8,8,10,,,,,83.85784869996132,84.50863090000348,84.50863090000348,84.99299030000111,45,315,84.99299030000111,84.99299030000111,84.99299030000111,84.99299030000111,84.99299030000111,84.99299030000111,84.99299030000111,84.99299030000111,84.99299030000111,85.35932449996471,85.35932449996471,85.35932449996471,85.35932449996471,85.35932449996471,85.35932449996471,85.35932449996471,85.35932449996471,85.35932449996471,0,1,[0.0012104999623261392],[0.3671506999526173],85.35932449996471,85.56169920001412,1000,85.56169920001412,1000,1000,1000,1000,0,num_3,0.7698664999916218,,28,3,2026-03-05_15h31.06.787,2026A_exp2,2022.2.4,59.94413206918887,
1000,1,0.0,3.7,1,0,9,9,80,,,,,86.36041759996442,87.01109330001054,87.01109330001054,87.51224279997405,315,45,87.51224279997405,87.51224279997405,87.51224279997405,87.51224279997405,87.51224279997405,87.51224279997405,87.51224279997405,87.51224279997405,87.51224279997405,87.87853019998875,87.87853019998875,87.87853019998875,87.87853019998875,87.87853019998875,87.87853019998875,87.87853019998875,87.87853019998875,87.87853019998875,20,1,[0.001229999994393438],[0.05028090003179386],87.87853019998875,88.08046009996906,1000,88.08046009996906,1000,1000,1000,1000,0,num_3,0.9954261999810115,,28,3,2026-03-05_15h31.06.787,2026A_exp2,2022.2.4,59.94413206918887,
1,0,0.0,3.7,0,0,10,10,78,,,,,89.09649789996911,89.7471033000038,89.7471033000038,90.24831850000191,315,45,90.24831850000191,90.24831850000191,90.24831850000191,90.24831850000191,90.24831850000191,90.24831850000191,90.24831850000191,90.24831850000191,90.24831850000191,90.61472119996324,90.61472119996324,90.61472119996324,90.61472119996324,90.61472119996324,90.61472119996324,90.61472119996324,90.61472119996324,90.61472119996324,23,0,,,90.61472119996324,90.81494319997728,0.0,90.81494319997728,0,0.0,0,1,1000,num_1,0.8848532999982126,,28,3,2026-03-05_15h31.06.787,2026A_exp2,2022.2.4,59.94413206918887,
0,0,3.7,0.0,1,0,11,11,83,,,,,91.7156704000081,92.36647379997885,92.36647379997885,92.85079170000972,45,45,92.85079170000972,92.85079170000972,92.85079170000972,92.85079170000972,92.85079170000972,92.85079170000972,92.85079170000972,92.85079170000972,92.85079170000972,93.21721619996242,93.21721619996242,93.21721619996242,93.21721619996242,93.21721619996242,93.21721619996242,93.21721619996242,93.21721619996242,93.21721619996242,22,1,[0.1835348999593407],[0.20016489998670295],93.21721619996242,93.41755119996378,3.7,93.41755119996378,1,3.7,1,1,1000,num_4,1.2822256999788806,,28,3,2026-03-05_15h31.06.787,2026A_exp2,2022.2.4,59.94413206918887,
1,0,3.7,0.0,1,0,12,12,74,,,,,94.71913069998845,95.36940909997793,95.36940909997793,95.85405490000267,45,315,95.85405490000267,95.85405490000267,95.85405490000267,95.85405490000267,95.85405490000267,95.85405490000267,95.85405490000267,95.85405490000267,95.85405490000267,96.2203254000051,96.2203254000051,96.2203254000051,96.2203254000051,96.2203254000051,96.2203254000051,96.2203254000051,96.2203254000051,96.2203254000051,23,0,,,96.2203254000051,96.42032450000988,0.0,96.42032450000988,0,0.0,0,1,1000,num_1,0.4395111000048928,,28,3,2026-03-05_15h31.06.787,2026A_exp2,2022.2.4,59.94413206918887,
1,0,0.0,4.9,0,0,13,13,85,,,,,96.88747459999286,97.53834879997885,97.53834879997885,98.02281399996718,45,315,98.02281399996718,98.02281399996718,98.02281399996718,98.02281399996718,98.02281399996718,98.02281399996718,98.02281399996718,98.02281399996718,98.02281399996718,98.38898559997324,98.38898559997324,98.38898559997324,98.38898559997324,98.38898559997324,98.38898559997324,98.38898559997324,98.38898559997324,98.38898559997324,0,1,[0.0012194999726489186],[0.3676512999809347],98.38898559997324,98.58931609999854,0.0,98.58931609999854,0,0.0,0,1,1000,num_1,0.6537639999878593,,28,3,2026-03-05_15h31.06.787,2026A_exp2,2022.2.4,59.94413206918887,
1000,1,0.0,3.7,0,0,14,14,44,,,,,99.27327790000709,99.92399310000474,99.92399310000474,100.40843579999637,315,45,100.40843579999637,100.40843579999637,100.40843579999637,100.40843579999637,100.40843579999637,100.40843579999637,100.40843579999637,100.40843579999637,100.40843579999637,100.77444269997068,100.77444269997068,100.77444269997068,100.77444269997068,100.77444269997068,100.77444269997068,100.77444269997068,100.77444269997068,100.77444269997068,9,5,"[0.001247100008185953, 0.16682789998594671, 0.2169648000271991, 0.31639649998396635, 0.36627719999523833]","[0.1336876000277698, 0.20032350003020838, 0.250431300024502, 0.33342620002804324, 0.366279800015036]",100.77444269997068,100.974804700003,1000,100.974804700003,1000,1000,1000,1000,0,num_3,0.6530685999896377,,28,3,2026-03-05_15h31.06.787,2026A_exp2,2022.2.4,59.94413206918887,
1,0,6.1,0.0,1,0,15,15,13,,,,,101.65899009996792,102.30977539997548,102.30977539997548,102.81089059996884,45,315,102.81089059996884,102.81089059996884,102.81089059996884,102.81089059996884,102.81089059996884,102.81089059996884,102.81089059996884,102.81089059996884,102.81089059996884,103.16057070001261,103.16057070001261,103.16057070001261,103.16057070001261,103.16057070001261,103.16057070001261,103.16057070001261,103.16057070001261,103.16057070001261,3,3,"[0.0012807000312022865, 0.2668544999905862, 0.31714120000833645]","[0.24990420002723113, 0.2836615000269376, 0.3505216999910772]",103.16057070001261,103.36079890001565,0.0,103.36079890001565,0,0.0,0,1,1000,num_1,0.9232030999846756,,28,3,2026-03-05_15h31.06.787,2026A_exp2,2022.2.4,59.94413206918887,
1,0,0.0,0.0,0,0,16,16,64,,,,,104.31187279999722,104.96242110000458,104.96242110000458,105.44665830000304,45,45,105.44665830000304,105.44665830000304,105.44665830000304,105.44665830000304,105.44665830000304,105.44665830000304,105.44665830000304,105.44665830000304,105.44665830000304,105.81330109998817,105.81330109998817,105.81330109998817,105.81330109998817,105.81330109998817,105.81330109998817,105.81330109998817,105.81330109998817,105.81330109998817,23,0,,,105.81330109998817,106.01346689998172,0.0,106.01346689998172,0,0.0,0,1,1000,num_1,0.6142120999866165,,28,3,2026-03-05_15h31.06.787,2026A_exp2,2022.2.4,59.94413206918887,
1000,1,4.9,3.7,1,0,17,17,32,,,,,106.64733860001434,107.29814669996267,107.29814669996267,107.78247839998221,45,45,107.78247839998221,107.78247839998221,107.78247839998221,107.78247839998221,107.78247839998221,107.78247839998221,107.78247839998221,107.78247839998221,107.78247839998221,108.14890739996918,108.14890739996918,108.14890739996918,108.14890739996918,108.14890739996918,108.14890739996918,108.14890739996918,108.14890739996918,108.14890739996918,23,0,,,108.14890739996918,108.3504699000041,1000,108.3504699000041,1000,1000,1000,1000,0,num_3,0.8446635999716818,,28,3,2026-03-05_15h31.06.787,2026A_exp2,2022.2.4,59.94413206918887,
1,0,0.0,0.0,1,0,18,18,41,,,,,109.21656749997055,109.86726480000652,109.86726480000652,110.35178839997388,45,45,110.35178839997388,110.35178839997388,110.35178839997388,110.35178839997388,110.35178839997388,110.35178839997388,110.35178839997388,110.35178839997388,110.35178839997388,110.71799979999196,110.71799979999196,110.71799979999196,110.71799979999196,110.71799979999196,110.71799979999196,110.71799979999196,110.71799979999196,110.71799979999196,23,0,,,110.71799979999196,110.91824580001412,0.0,110.91824580001412,0,0.0,0,1,1000,num_1,0.8372648999793455,,28,3,2026-03-05_15h31.06.787,2026A_exp2,2022.2.4,59.94413206918887,
1000,1,6.1,3.7,1,0,19,19,24,,,,,111.7857512999908,112.43654239998432,112.43654239998432,112.92097430001013,315,45,112.92097430001013,112.92097430001013,112.92097430001013,112.92097430001013,112.92097430001013,112.92097430001013,112.92097430001013,112.92097430001013,112.92097430001013,113.28702689998318,113.28702689998318,113.28702689998318,113.28702689998318,113.28702689998318,113.28702689998318,113.28702689998318,113.28702689998318,113.28702689998318,22,1,[0.06673969997791573],[0.08354449999751523],113.28702689998318,113.4893163999659,1000,113.4893163999659,1000,1000,1000,1000,0,num_3,1.2499408000148833,,28,3,2026-03-05_15h31.06.787,2026A_exp2,2022.2.4,59.94413206918887,
1000,1,0.0,3.7,0,0,20,20,52,,,,,114.75547199998982,115.4061927999719,115.4061927999719,115.90731819998473,45,45,115.90731819998473,115.90731819998473,115.90731819998473,115.90731819998473,115.90731819998473,115.90731819998473,115.90731819998473,115.90731819998473,115.90731819998473,116.27371159999166,116.27371159999166,116.27371159999166,116.27371159999166,116.27371159999166,116.27371159999166,116.27371159999166,116.27371159999166,116.27371159999166,23,0,,,116.27371159999166,116.47577479999745,1000,116.47577479999745,1000,1000,1000,1000,1,num_2,0.8720909999683499,,28,3,2026-03-05_15h31.06.787,2026A_exp2,2022.2.4,59.94413206918887,
1,0,0.0,0.0,1,0,21,21,43,,,,,117.3747091999976,118.02546350000193,118.02546350000193,118.52646379999351,315,45,118.52646379999351,118.52646379999351,118.52646379999351,118.52646379999351,118.52646379999351,118.52646379999351,118.52646379999351,118.52646379999351,118.52646379999351,118.89300360000925,118.89300360000925,118.89300360000925,118.89300360000925,118.89300360000925,118.89300360000925,118.89300360000925,118.89300360000925,118.89300360000925,23,0,,,118.89300360000925,119.09309939999366,0.0,119.09309939999366,1,0.0,0,0,1000,num_4,1.2144639000180177,,28,3,2026-03-05_15h31.06.787,2026A_exp2,2022.2.4,59.94413206918887,
1,0,4.9,4.9,1,0,22,22,89,,,,,120.32760109996889,120.97840219998034,120.97840219998034,121.46278190001613,45,315,121.46278190001613,121.46278190001613,121.46278190001613,121.46278190001613,121.46278190001613,121.46278190001613,121.46278190001613,121.46278190001613,121.46278190001613,121.8293255000026,121.8293255000026,121.8293255000026,121.8293255000026,121.8293255000026,121.8293255000026,121.8293255000026,121.8293255000026,121.8293255000026,23,0,,,121.8293255000026,122.02945609996095,4.9,122.02945609996095,0,4.9,1,0,1000,num_1,1.7907705000252463,,28,3,2026-03-05_15h31.06.787,2026A_exp2,2022.2.4,59.94413206918887,
1,0,0.0,0.0,0,0,23,23,59,,,,,123.8477894999669,124.49844830000075,124.49844830000075,124.98304459999781,315,45,124.98304459999781,124.98304459999781,124.98304459999781,124.98304459999781,124.98304459999781,124.98304459999781,124.98304459999781,124.98304459999781,124.98304459999781,125.34946930001024,125.34946930001024,125.34946930001024,125.34946930001024,125.34946930001024,125.34946930001024,125.34946930001024,125.34946930001024,125.34946930001024,23,0,,,125.34946930001024,125.54947319999337,0.0,125.54947319999337,1,0.0,0,0,1000,num_4,0.7659337999648415,,28,3,2026-03-05_15h31.06.787,2026A_exp2,2022.2.4,59.94413206918887,
1000,1,0.0,0.0,1,0,24,24,14,,,,,126.33362769999076,126.98445459996583,126.98445459996583,127.46858629997587,315,315,127.46858629997587,127.46858629997587,127.46858629997587,127.46858629997587,127.46858629997587,127.46858629997587,127.46858629997587,127.46858629997587,127.46858629997587,127.83512369997334,127.83512369997334,127.83512369997334,127.83512369997334,127.83512369997334,127.83512369997334,127.83512369997334,127.83512369997334,127.83512369997334,23,0,,,127.83512369997334,128.03700840001693,1000,128.03700840001693,1000,1000,1000,1000,0,num_3,0.7825048000086099,,28,3,2026-03-05_15h31.06.787,2026A_exp2,2022.2.4,59.94413206918887,
1000,1,3.7,0.0,1,0,25,25,79,,,,,128.8363737000036,129.48694380000234,129.48694380000234,129.97130089998245,315,315,129.97130089998245,129.97130089998245,129.97130089998245,129.97130089998245,129.97130089998245,129.97130089998245,129.97130089998245,129.97130089998245,129.97130089998245,130.33763689995976,130.33763689995976,130.33763689995976,130.33763689995976,130.33763689995976,130.33763689995976,130.33763689995976,130.33763689995976,130.33763689995976,23,0,,,130.33763689995976,130.53952099999879,1000,130.53952099999879,1000,1000,1000,1000,1,num_2,0.8405920999939553,,28,3,2026-03-05_15h31.06.787,2026A_exp2,2022.2.4,59.94413206918887,
1000,1,4.9,6.1,1,0,26,26,1,,,,,131.4055170000065,132.05631519999588,132.05631519999588,132.54048889997648,45,315,132.54048889997648,132.54048889997648,132.54048889997648,132.54048889997648,132.54048889997648,132.54048889997648,132.54048889997648,132.54048889997648,132.54048889997648,132.90698149998207,132.90698149998207,132.90698149998207,132.90698149998207,132.90698149998207,132.90698149998207,132.90698149998207,132.90698149998207,132.90698149998207,23,0,,,132.90698149998207,133.10883729998022,1000,133.10883729998022,1000,1000,1000,1000,1,num_2,0.49520180001854897,,28,3,2026-03-05_15h31.06.787,2026A_exp2,2022.2.4,59.94413206918887,
1000,1,0.0,0.0,0,0,27,27,61,,,,,133.62423299998045,134.2750177999842,134.2750177999842,134.77605079999194,315,315,134.77605079999194,134.77605079999194,134.77605079999194,134.77605079999194,134.77605079999194,134.77605079999194,134.77605079999194,134.77605079999194,134.77605079999194,135.14248589996714,135.14248589996714,135.14248589996714,135.14248589996714,135.14248589996714,135.14248589996714,135.14248589996714,135.14248589996714,135.14248589996714,23,0,,,135.14248589996714,135.34445540001616,1000,135.34445540001616,1000,1000,1000,1000,1,num_2,1.0269684999948367,,28,3,2026-03-05_15h31.06.787,2026A_exp2,2022.2.4,59.94413206918887,
1,0,0.0,0.0,0,0,28,28,49,,,,,136.39367499999935,137.0444592999993,137.0444592999993,137.54563159996178,315,45,137.54563159996178,137.54563159996178,137.54563159996178,137.54563159996178,137.54563159996178,137.54563159996178,137.54563159996178,137.54563159996178,137.54563159996178,137.91200209996896,137.91200209996896,137.91200209996896,137.91200209996896,137.91200209996896,137.91200209996896,137.91200209996896,137.91200209996896,137.91200209996896,23,0,,,137.91200209996896,138.11242109996965,0.0,138.11242109996965,0,0.0,0,1,1000,num_1,0.690571999992244,,28,3,2026-03-05_15h31.06.787,2026A_exp2,2022.2.4,59.94413206918887,
1,0,0.0,4.9,0,0,29,29,17,,,,,138.82949019997614,139.48019639996346,139.48019639996346,139.96472819999326,315,315,139.96472819999326,139.96472819999326,139.96472819999326,139.96472819999326,139.96472819999326,139.96472819999326,139.96472819999326,139.96472819999326,139.96472819999326,140.33092509995913,140.33092509995913,140.33092509995913,140.33092509995913,140.33092509995913,140.33092509995913,140.33092509995913,140.33092509995913,140.33092509995913,23,0,,,140.33092509995913,140.53120199998375,0.0,140.53120199998375,0,0.0,0,1,1000,num_1,0.7280563999665901,,28,3,2026-03-05_15h31.06.787,2026A_exp2,2022.2.4,59.94413206918887,
1000,1,0.0,6.1,0,0,30,30,34,,,,,141.28183589997934,141.9339965999825,141.9339965999825,142.41696519998368,315,45,142.41696519998368,142.41696519998368,142.41696519998368,142.41696519998368,142.41696519998368,142.41696519998368,142.41696519998368,142.41696519998368,142.41696519998368,142.78352930000983,142.78352930000983,142.78352930000983,142.78352930000983,142.78352930000983,142.78352930000983,142.78352930000983,142.78352930000983,142.78352930000983,23,0,,,142.78352930000983,142.98593859997345,1000,142.98593859997345,1000,1000,1000,1000,1,num_2,1.1138948000152595,,28,3,2026-03-05_15h31.06.787,2026A_exp2,2022.2.4,59.94413206918887,
1000,1,6.1,3.7,1,0,31,31,0,,,,,144.11823189997813,144.76884909998626,144.76884909998626,145.26997219998157,45,315,145.26997219998157,145.26997219998157,145.26997219998157,145.26997219998157,145.26997219998157,145.26997219998157,145.26997219998157,145.26997219998157,145.26997219998157,145.61949620000087,145.61949620000087,145.61949620000087,145.61949620000087,145.61949620000087,145.61949620000087,145.61949620000087,145.61949620000087,145.61949620000087,22,0,,,145.61949620000087,145.82180929998867,1000,145.8366696999874,1000,1000,1000,1000,0,num_3,0.7588136999984272,,28,3,2026-03-05_15h31.06.787,2026A_exp2,2022.2.4,59.94413206918887,
1,0,6.1,0.0,0,0,32,32,50,,,,,146.62062449997757,147.27130490000127,147.27130490000127,147.77252449997468,45,315,147.77252449997468,147.77252449997468,147.77252449997468,147.77252449997468,147.77252449997468,147.77252449997468,147.77252449997468,147.77252449997468,147.77252449997468,148.12216039997293,148.12216039997293,148.12216039997293,148.12216039997293,148.12216039997293,148.12216039997293,148.12216039997293,148.12216039997293,148.12216039997293,22,0,,,148.12216039997293,148.32227289996808,6.1,148.33877719996963,1,6.1,1,1,1000,num_4,0.8646669000154361,,28,3,2026-03-05_15h31.06.787,2026A_exp2,2022.2.4,59.94413206918887,
1000,1,6.1,0.0,0,0,33,33,19,,,,,149.22312889999012,149.87396180001087,149.87396180001087,150.35818519996246,315,315,150.35818519996246,150.35818519996246,150.35818519996246,150.35818519996246,150.35818519996246,150.35818519996246,150.35818519996246,150.35818519996246,150.35818519996246,150.72492870001588,150.72492870001588,150.72492870001588,150.72492870001588,150.72492870001588,150.72492870001588,150.72492870001588,150.72492870001588,150.72492870001588,23,0,,,150.72492870001588,150.9271437000134,1000,150.9271437000134,1000,1000,1000,1000,1,num_2,0.6521161999553442,,28,3,2026-03-05_15h31.06.787,2026A_exp2,2022.2.4,59.94413206918887,
1,0,3.7,4.9,1,0,34,34,39,,,,,151.609212499985,152.2596900999779,152.2596900999779,152.76099809998414,45,45,152.76099809998414,152.76099809998414,152.76099809998414,152.76099809998414,152.76099809998414,152.76099809998414,152.76099809998414,152.76099809998414,152.76099809998414,153.12716909998562,153.12716909998562,153.12716909998562,153.12716909998562,153.12716909998562,153.12716909998562,153.12716909998562,153.12716909998562,153.12716909998562,23,0,,,153.12716909998562,153.32727189996513,4.9,153.32727189996513,1,4.9,1,1,1000,num_4,0.9730122999753803,,28,3,2026-03-05_15h31.06.787,2026A_exp2,2022.2.4,59.94413206918887,
1000,1,0.0,0.0,0,0,35,35,20,,,,,154.32847649999894,154.97898580000037,154.97898580000037,155.46350089996122,45,45,155.46350089996122,155.46350089996122,155.46350089996122,155.46350089996122,155.46350089996122,155.46350089996122,155.46350089996122,155.46350089996122,155.46350089996122,155.82988320000004,155.82988320000004,155.82988320000004,155.82988320000004,155.82988320000004,155.82988320000004,155.82988320000004,155.82988320000004,155.82988320000004,23,0,,,155.82988320000004,156.03210650000256,1000,156.03210650000256,1000,1000,1000,1000,0,num_3,0.899260799982585,,28,3,2026-03-05_15h31.06.787,2026A_exp2,2022.2.4,59.94413206918887,
1,0,0.0,4.9,0,0,36,36,71,,,,,156.94781250000233,157.59823669999605,157.59823669999605,158.09949719998986,45,45,158.09949719998986,158.09949719998986,158.09949719998986,158.09949719998986,158.09949719998986,158.09949719998986,158.09949719998986,158.09949719998986,158.09949719998986,158.46577710000565,158.46577710000565,158.46577710000565,158.46577710000565,158.46577710000565,158.46577710000565,158.46577710000565,158.46577710000565,158.46577710000565,23,0,,,158.46577710000565,158.66595389996655,0.0,158.66595389996655,0,0.0,0,1,1000,num_1,0.833078800002113,,28,3,2026-03-05_15h31.06.787,2026A_exp2,2022.2.4,59.94413206918887,
0,0,0.0,4.9,0,0,37,37,54,,,,,159.51695939997444,160.16751449997537,160.16751449997537,160.65214279998327,45,315,160.65214279998327,160.65214279998327,160.65214279998327,160.65214279998327,160.65214279998327,160.65214279998327,160.65214279998327,160.65214279998327,160.65214279998327,161.018264000013,161.018264000013,161.018264000013,161.018264000013,161.018264000013,161.018264000013,161.018264000013,161.018264000013,161.018264000013,23,0,,,161.018264000013,161.21945849998156,4.9,161.21945849998156,1,4.9,1,1,1000,num_4,1.47996329999296,,28,3,2026-03-05_15h31.06.787,2026A_exp2,2022.2.4,59.94413206918887,
1,0,0.0,3.7,1,0,38,38,57,,,,,162.72006879997207,163.37073480000254,163.37073480000254,163.85514549998334,45,45,163.85514549998334,163.85514549998334,163.85514549998334,163.85514549998334,163.85514549998334,163.85514549998334,163.85514549998334,163.85514549998334,163.85514549998334,164.22157210001023,164.22157210001023,164.22157210001023,164.22157210001023,164.22157210001023,164.22157210001023,164.22157210001023,164.22157210001023,164.22157210001023,23,0,,,164.22157210001023,164.42167979996884,3.7,164.42167979996884,1,3.7,1,1,1000,num_4,0.725730600010138,,28,3,2026-03-05_15h31.06.787,2026A_exp2,2022.2.4,59.94413206918887,
1,0,4.9,0.0,1,0,39,39,4,,,,,165.17233799997484,165.8232418000116,165.8232418000116,166.30756899999687,315,45,166.30756899999687,166.30756899999687,166.30756899999687,166.30756899999687,166.30756899999687,166.30756899999687,166.30756899999687,166.30756899999687,166.30756899999687,166.67367719998583,166.67367719998583,166.67367719998583,166.67367719998583,166.67367719998583,166.67367719998583,166.67367719998583,166.67367719998583,166.67367719998583,23,0,,,166.67367719998583,166.87424380000448,0.0,166.87424380000448,1,0.0,0,0,1000,num_4,1.1291366000077687,,28,3,2026-03-05_15h31.06.787,2026A_exp2,2022.2.4,59.94413206918887,
1000,1,6.1,0.0,1,0,40,40,60,,,,,168.0252829999663,168.6761044000159,168.6761044000159,169.16049809998367,45,45,169.16049809998367,169.16049809998367,169.16049809998367,169.16049809998367,169.16049809998367,169.16049809998367,169.16049809998367,169.16049809998367,169.16049809998367,169.52694939996582,169.52694939996582,169.52694939996582,169.52694939996582,169.52694939996582,169.52694939996582,169.52694939996582,169.52694939996582,169.52694939996582,23,0,,,169.52694939996582,169.72870609996608,1000,169.72870609996608,1000,1000,1000,1000,1,num_2,1.002362200000789,,28,3,2026-03-05_15h31.06.787,2026A_exp2,2022.2.4,59.94413206918887,
1000,1,6.1,4.9,1,0,41,41,16,,,,,170.7613717999775,171.41216309997253,171.41216309997253,171.89661719999276,315,315,171.89661719999276,171.89661719999276,171.89661719999276,171.89661719999276,171.89661719999276,171.89661719999276,171.89661719999276,171.89661719999276,171.89661719999276,172.26287039997987,172.26287039997987,172.26287039997987,172.26287039997987,172.26287039997987,172.26287039997987,172.26287039997987,172.26287039997987,172.26287039997987,23,0,,,172.26287039997987,172.46484879998025,1000,172.46484879998025,1000,1000,1000,1000,1,num_2,0.882513899996411,,28,3,2026-03-05_15h31.06.787,2026A_exp2,2022.2.4,59.94413206918887,
1,0,6.1,4.9,1,0,42,42,35,,,,,173.3642450000043,174.01472520001698,174.01472520001698,174.51577589998487,45,45,174.51577589998487,174.51577589998487,174.51577589998487,174.51577589998487,174.51577589998487,174.51577589998487,174.51577589998487,174.51577589998487,174.51577589998487,174.88228849996813,174.88228849996813,174.88228849996813,174.88228849996813,174.88228849996813,174.88228849996813,174.88228849996813,174.88228849996813,174.88228849996813,23,0,,,174.88228849996813,175.08226920000743,4.9,175.08226920000743,1,4.9,1,1,1000,num_4,0.5937798999948427,,28,3,2026-03-05_15h31.06.787,2026A_exp2,2022.2.4,59.94413206918887,
1000,1,6.1,4.9,1,0,43,43,53,,,,,175.6998314000084,176.35038239997812,176.35038239997812,176.85111950000282,45,45,176.85111950000282,176.85111950000282,176.85111950000282,176.85111950000282,176.85111950000282,176.85111950000282,176.85111950000282,176.85111950000282,176.85111950000282,177.2012684000074,177.2012684000074,177.2012684000074,177.2012684000074,177.2012684000074,177.2012684000074,177.2012684000074,177.2012684000074,177.2012684000074,22,0,,,177.2012684000074,177.40309709997382,1000,177.40309709997382,1000,1000,1000,1000,0,num_3,0.9774013999849558,,28,3,2026-03-05_15h31.06.787,2026A_exp2,2022.2.4,59.94413206918887,
1,0,0.0,0.0,0,0,44,44,38,,,,,178.40255689999321,179.05300539999735,179.05300539999735,179.55412899999646,315,315,179.55412899999646,179.55412899999646,179.55412899999646,179.55412899999646,179.55412899999646,179.55412899999646,179.55412899999646,179.55412899999646,179.55412899999646,179.90400199999567,179.90400199999567,179.90400199999567,179.90400199999567,179.90400199999567,179.90400199999567,179.90400199999567,179.90400199999567,179.90400199999567,22,0,,,179.90400199999567,180.10409320000326,0.0,180.12093119998462,0,0.0,0,1,1000,num_1,0.9797099999850616,,28,3,2026-03-05_15h31.06.787,2026A_exp2,2022.2.4,59.94413206918887,
1000,1,0.0,0.0,1,0,45,45,7,,,,,181.1218491999898,181.7725008999696,181.7725008999696,182.2567788999877,315,315,182.2567788999877,182.2567788999877,182.2567788999877,182.2567788999877,182.2567788999877,182.2567788999877,182.2567788999877,182.2567788999877,182.2567788999877,182.62331689998973,182.62331689998973,182.62331689998973,182.62331689998973,182.62331689998973,182.62331689998973,182.62331689998973,182.62331689998973,182.62331689998973,23,0,,,182.62331689998973,182.82544529996812,1000,182.82544529996812,1000,1000,1000,1000,0,num_3,1.0027864000294358,,28,3,2026-03-05_15h31.06.787,2026A_exp2,2022.2.4,59.94413206918887,
1000,1,4.9,4.9,0,0,46,46,31,,,,,183.85797069995897,184.5084419999621,184.5084419999621,184.99254979996476,315,45,184.99254979996476,184.99254979996476,184.99254979996476,184.99254979996476,184.99254979996476,184.99254979996476,184.99254979996476,184.99254979996476,184.99254979996476,185.35942639998393,185.35942639998393,185.35942639998393,185.35942639998393,185.35942639998393,185.35942639998393,185.35942639998393,185.35942639998393,185.35942639998393,23,0,,,185.35942639998393,185.56144959997619,1000,185.56144959997619,1000,1000,1000,1000,1,num_2,2.145736999984365,,28,3,2026-03-05_15h31.06.787,2026A_exp2,2022.2.4,59.94413206918887,
1,0,0.0,0.0,1,0,47,47,66,,,,,187.72856869996758,188.37899269995978,188.37899269995978,188.88036850001663,45,315,188.88036850001663,188.88036850001663,188.88036850001663,188.88036850001663,188.88036850001663,188.88036850001663,188.88036850001663,188.88036850001663,188.88036850001663,189.24659349996364,189.24659349996364,189.24659349996364,189.24659349996364,189.24659349996364,189.24659349996364,189.24659349996364,189.24659349996364,189.24659349996364,23,0,,,189.24659349996364,189.44690939999418,0.0,189.44690939999418,1,0.0,0,0,1000,num_4,1.3887012000195682,,28,3,2026-03-05_15h31.06.787,2026A_exp2,2022.2.4,59.94413206918887,
1000,1,0.0,0.0,1,0,48,48,29,,,,,190.8650216999813,191.5158231999958,191.5158231999958,192.00901239999803,315,315,192.00901239999803,192.00901239999803,192.00901239999803,192.00901239999803,192.00901239999803,192.00901239999803,192.00901239999803,192.00901239999803,192.00901239999803,192.36658099998021,192.36658099998021,192.36658099998021,192.36658099998021,192.36658099998021,192.36658099998021,192.36658099998021,192.36658099998021,192.36658099998021,23,0,,,192.36658099998021,192.5804938999936,1000,192.5804938999936,1000,1000,1000,1000,1,num_2,0.7347064999630675,,28,3,2026-03-05_15h31.06.787,2026A_exp2,2022.2.4,59.94413206918887,
0,0,0.0,0.0,1,0,49,49,8,,,,,193.3341664999607,193.98472720000427,193.98472720000427,194.4858333999873,315,315,194.4858333999873,194.4858333999873,194.4858333999873,194.4858333999873,194.4858333999873,194.4858333999873,194.4858333999873,194.4858333999873,194.4858333999873,194.85223509999923,194.85223509999923,194.85223509999923,194.85223509999923,194.85223509999923,194.85223509999923,194.85223509999923,194.85223509999923,194.85223509999923,0,1,[0.0012318000080995262],[0.3671310999779962],194.85223509999923,195.05238179996377,0.0,195.05238179996377,1,0.0,0,0,1000,num_4,1.1507216999889351,,28,3,2026-03-05_15h31.06.787,2026A_exp2,2022.2.4,59.94413206918887,
1000,1,0.0,0.0,0,0,50,50,75,,,,,196.22028229996795,196.87097489996813,196.87097489996813,197.35553850000724,315,45,197.35553850000724,197.35553850000724,197.35553850000724,197.35553850000724,197.35553850000724,197.35553850000724,197.35553850000724,197.35553850000724,197.35553850000724,197.72182320000138,197.72182320000138,197.72182320000138,197.72182320000138,197.72182320000138,197.72182320000138,197.72182320000138,197.72182320000138,197.72182320000138,2,2,"[0.0011924999998882413, 0.1838311000028625]","[0.1504286999697797, 0.36734230001457036]",197.72182320000138,197.92408859997522,1000,197.92408859997522,1000,1000,1000,1000,0,num_3,0.8712289999821223,,28,3,2026-03-05_15h31.06.787,2026A_exp2,2022.2.4,59.94413206918887,
1000,1,3.7,3.7,1,0,51,51,40,,,,,198.82281400001375,199.47349110001232,199.47349110001232,199.97456910001347,315,315,199.97456910001347,199.97456910001347,199.97456910001347,199.97456910001347,199.97456910001347,199.97456910001347,199.97456910001347,199.97456910001347,199.97456910001347,200.32427469996037,200.32427469996037,200.32427469996037,200.32427469996037,200.32427469996037,200.32427469996037,200.32427469996037,200.32427469996037,200.32427469996037,5,4,"[0.001227899978403002, 0.06682239996735007, 0.13359649997437373, 0.30035949999000877]","[0.03355479997117072, 0.10011349996784702, 0.2837725999997929, 0.35048709996044636]",200.32427469996037,200.52617849997478,1000,200.54128090001177,1000,1000,1000,1000,1,num_2,0.9262277000234462,,28,3,2026-03-05_15h31.06.787,2026A_exp2,2022.2.4,59.94413206918887,
1000,1,0.0,0.0,1,0,52,52,47,,,,,201.49553600000218,202.14280109998072,202.14280109998072,202.64385539997602,45,45,202.64385539997602,202.64385539997602,202.64385539997602,202.64385539997602,202.64385539997602,202.64385539997602,202.64385539997602,202.64385539997602,202.64385539997602,203.0104377999669,203.0104377999669,203.0104377999669,203.0104377999669,203.0104377999669,203.0104377999669,203.0104377999669,203.0104377999669,203.0104377999669,6,2,"[0.00120160001097247, 0.15032570000039414]","[0.11702840001089498, 0.31719370000064373]",203.0104377999669,203.21228089998476,1000,203.21228089998476,1000,1000,1000,1000,0,num_3,0.8078218000009656,,28,3,2026-03-05_15h31.06.787,2026A_exp2,2022.2.4,59.94413206918887,
1,0,0.0,0.0,1,0,53,53,37,,,,,204.04478529997868,204.6955195000046,204.6955195000046,205.196466399997,45,45,205.196466399997,205.196466399997,205.196466399997,205.196466399997,205.196466399997,205.196466399997,205.196466399997,205.196466399997,205.196466399997,205.54608930001268,205.54608930001268,205.54608930001268,205.54608930001268,205.54608930001268,205.54608930001268,205.54608930001268,205.54608930001268,205.54608930001268,0,1,[0.0011618999997153878],[0.3508149000117555],205.54608930001268,205.74643180001294,0.0,205.76317519997247,0,0.0,0,1,1000,num_1,0.5849867999786511,,28,3,2026-03-05_15h31.06.787,2026A_exp2,2022.2.4,59.94413206918887,
0,0,0.0,4.9,1,0,54,54,56,,,,,206.38048509997316,207.0311354000005,207.0311354000005,207.5155797000043,45,45,207.5155797000043,207.5155797000043,207.5155797000043,207.5155797000043,207.5155797000043,207.5155797000043,207.5155797000043,207.5155797000043,207.5155797000043,207.88193889998365,207.88193889998365,207.88193889998365,207.88193889998365,207.88193889998365,207.88193889998365,207.88193889998365,207.88193889998365,207.88193889998365,1,2,"[0.0013299999991431832, 0.2838600999675691]","[0.26703189994441345, 0.367276499979198]",207.88193889998365,208.08213900000555,0.0,208.08213900000555,1,0.0,0,0,1000,num_4,0.5938760000281036,,28,3,2026-03-05_15h31.06.787,2026A_exp2,2022.2.4,59.94413206918887,
1,0,0.0,0.0,0,0,55,55,81,,,,,208.69947419996606,209.33351999998558,209.33351999998558,209.83434030000353,45,315,209.83434030000353,209.83434030000353,209.83434030000353,209.83434030000353,209.83434030000353,209.83434030000353,209.83434030000353,209.83434030000353,209.83434030000353,210.20091819996014,210.20091819996014,210.20091819996014,210.20091819996014,210.20091819996014,210.20091819996014,210.20091819996014,210.20091819996014,210.20091819996014,0,1,[0.0012642000219784677],[0.3672838000347838],210.20091819996014,210.40109319996554,0.0,210.40109319996554,1,0.0,0,0,1000,num_4,0.2979660999844782,,28,3,2026-03-05_15h31.06.787,2026A_exp2,2022.2.4,59.94413206918887,
1,0,4.9,6.1,0,0,56,56,15,,,,,210.71799569996074,211.35215709998738,211.35215709998738,211.85352449998027,315,45,211.85352449998027,211.85352449998027,211.85352449998027,211.85352449998027,211.85352449998027,211.85352449998027,211.85352449998027,211.85352449998027,211.85352449998027,212.21965719998116,212.21965719998116,212.21965719998116,212.21965719998116,212.21965719998116,212.21965719998116,212.21965719998116,212.21965719998116,212.21965719998116,0,1,[0.0007582000107504427],[0.36737859999993816],212.21965719998116,212.41985489998478,4.9,212.41985489998478,1,4.9,1,1,1000,num_4,0.5592689999612048,,28,3,2026-03-05_15h31.06.787,2026A_exp2,2022.2.4,59.94413206918887,
1000,1,0.0,4.9,1,0,57,57,27,,,,,213.00375829997938,213.65443729999242,213.65443729999242,214.1388156999601,45,315,214.1388156999601,214.1388156999601,214.1388156999601,214.1388156999601,214.1388156999601,214.1388156999601,214.1388156999601,214.1388156999601,214.1388156999601,214.50525919999927,214.50525919999927,214.50525919999927,214.50525919999927,214.50525919999927,214.50525919999927,214.50525919999927,214.50525919999927,214.50525919999927,2,1,[0.0012179999612271786],[0.3504233999992721],214.50525919999927,214.70710689999396,1000,214.70710689999396,1000,1000,1000,1000,0,num_3,0.5845893999794498,,28,3,2026-03-05_15h31.06.787,2026A_exp2,2022.2.4,59.94413206918887,
1,0,4.9,0.0,1,0,58,58,84,,,,,215.3228216000134,215.9734088999685,215.9734088999685,216.47439300001133,45,315,216.47439300001133,216.47439300001133,216.47439300001133,216.47439300001133,216.47439300001133,216.47439300001133,216.47439300001133,216.47439300001133,216.47439300001133,216.82427240000106,216.82427240000106,216.82427240000106,216.82427240000106,216.82427240000106,216.82427240000106,216.82427240000106,216.82427240000106,216.82427240000106,22,0,,,216.82427240000106,217.0243991999887,0.0,217.04107089998433,1,0.0,0,0,1000,num_4,0.2820351999835111,,28,3,2026-03-05_15h31.06.787,2026A_exp2,2022.2.4,59.94413206918887,
1000,1,4.9,0.0,0,0,59,59,58,,,,,217.34144180000294,217.99209299997892,217.99209299997892,218.47643969999626,45,315,218.47643969999626,218.47643969999626,218.47643969999626,218.47643969999626,218.47643969999626,218.47643969999626,218.47643969999626,218.47643969999626,218.47643969999626,218.84284009999828,218.84284009999828,218.84284009999828,218.84284009999828,218.84284009999828,218.84284009999828,218.84284009999828,218.84284009999828,218.84284009999828,14,5,"[0.11665429995628074, 0.23365259997081012, 0.283835599955637, 0.316982599964831, 0.36716009996598586]","[0.18362359999446198, 0.2671348999720067, 0.3003337999689393, 0.333875399956014, 0.3671650000032969]",218.84284009999828,219.0431896999944,1000,219.0431896999944,1000,1000,1000,1000,1,num_2,0.14514760003658012,,28,3,2026-03-05_15h31.06.787,2026A_exp2,2022.2.4,59.94413206918887,
1,0,0.0,0.0,0,0,60,60,9,,,,,219.21001009998145,219.8604900999926,219.8604900999926,220.361726299976,45,45,220.361726299976,220.361726299976,220.361726299976,220.361726299976,220.361726299976,220.361726299976,220.361726299976,220.361726299976,220.361726299976,220.7278401000076,220.7278401000076,220.7278401000076,220.7278401000076,220.7278401000076,220.7278401000076,220.7278401000076,220.7278401000076,220.7278401000076,0,1,[0.0011945999576710165],[0.36690229998202994],220.7278401000076,220.92800000001444,0.0,220.92800000001444,0,0.0,0,1,1000,num_1,0.30739500001072884,,28,3,2026-03-05_15h31.06.787,2026A_exp2,2022.2.4,59.94413206918887,
1000,1,4.9,4.9,0,0,61,61,42,,,,,221.2618537999806,221.91272159997607,221.91272159997607,222.39694790000794,315,45,222.39694790000794,222.39694790000794,222.39694790000794,222.39694790000794,222.39694790000794,222.39694790000794,222.39694790000794,222.39694790000794,222.39694790000794,222.76347900001565,222.76347900001565,222.76347900001565,222.76347900001565,222.76347900001565,222.76347900001565,222.76347900001565,222.76347900001565,222.76347900001565,3,3,"[0.0011983999866060913, 0.21712520002620295, 0.3006174000329338]","[0.1838584000361152, 0.2840241999947466, 0.36731699999654666]",222.76347900001565,222.9655810999684,1000,222.9655810999684,1000,1000,1000,1000,0,num_3,0.56645910005318,,28,3,2026-03-05_15h31.06.787,2026A_exp2,2022.2.4,59.94413206918887,
1000,1,0.0,0.0,0,0,62,62,65,,,,,223.5477474000072,224.19833109999308,224.19833109999308,224.69932179996977,45,45,224.69932179996977,224.69932179996977,224.69932179996977,224.69932179996977,224.69932179996977,224.69932179996977,224.69932179996977,224.69932179996977,224.69932179996977,225.06592459999956,225.06592459999956,225.06592459999956,225.06592459999956,225.06592459999956,225.06592459999956,225.06592459999956,225.06592459999956,225.06592459999956,5,3,"[0.0013214999926276505, 0.08352650003507733, 0.3506168000167236]","[0.06713270000182092, 0.28403440001420677, 0.3672472999896854]",225.06592459999956,225.26595189998625,1000,225.26595189998625,1000,1000,1000,1000,0,num_3,0.44955989997833967,,28,3,2026-03-05_15h31.06.787,2026A_exp2,2022.2.4,59.94413206918887,
1000,1,0.0,4.9,0,0,63,63,11,,,,,225.73295189999044,226.3836970999837,226.3836970999837,226.88499469996896,315,45,226.88499469996896,226.88499469996896,226.88499469996896,226.88499469996896,226.88499469996896,226.88499469996896,226.88499469996896,226.88499469996896,226.88499469996896,227.2513649999746,227.2513649999746,227.2513649999746,227.2513649999746,227.2513649999746,227.2513649999746,227.2513649999746,227.2513649999746,227.2513649999746,23,0,,,227.2513649999746,227.45327699999325,1000,227.45327699999325,1000,1000,1000,1000,1,num_2,0.23016089998418465,,28,3,2026-03-05_15h31.06.787,2026A_exp2,2022.2.4,59.94413206918887,
0,0,0.0,3.7,1,0,64,64,21,,,,,227.70191040000645,228.35229119996075,228.35229119996075,228.85358840000117,315,315,228.85358840000117,228.85358840000117,228.85358840000117,228.85358840000117,228.85358840000117,228.85358840000117,228.85358840000117,228.85358840000117,228.85358840000117,229.21997490001377,229.21997490001377,229.21997490001377,229.21997490001377,229.21997490001377,229.21997490001377,229.21997490001377,229.21997490001377,229.21997490001377,18,2,"[0.15019849996315315, 0.21686409995891154]","[0.1835525999777019, 0.26695889997063205]",229.21997490001377,229.42010069999378,0.0,229.42010069999378,0,0.0,0,1,1000,num_1,0.34364199999254197,,28,3,2026-03-05_15h31.06.787,2026A_exp2,2022.2.4,59.94413206918887,
1000,1,0.0,6.1,1,0,65,65,88,,,,,229.78709299996262,230.4377576999832,230.4377576999832,230.92216489999555,45,45,230.92216489999555,230.92216489999555,230.92216489999555,230.92216489999555,230.92216489999555,230.92216489999555,230.92216489999555,230.92216489999555,230.92216489999555,231.2886241999804,231.2886241999804,231.2886241999804,231.2886241999804,231.2886241999804,231.2886241999804,231.2886241999804,231.2886241999804,231.2886241999804,22,1,[0.00121779995970428],[0.0172753999941051],231.2886241999804,231.48904730001232,1000,231.48904730001232,1000,1000,1000,1000,0,num_3,0.6820653000031598,,28,3,2026-03-05_15h31.06.787,2026A_exp2,2022.2.4,59.94413206918887,
1000,1,4.9,0.0,1,0,66,66,25,,,,,232.1897697999957,232.84012219996657,232.84012219996657,233.32454399997368,315,315,233.32454399997368,233.32454399997368,233.32454399997368,233.32454399997368,233.32454399997368,233.32454399997368,233.32454399997368,233.32454399997368,233.32454399997368,233.691073999973,233.691073999973,233.691073999973,233.691073999973,233.691073999973,233.691073999973,233.691073999973,233.691073999973,233.691073999973,23,0,,,233.691073999973,233.89314439997543,1000,233.89314439997543,1000,1000,1000,1000,0,num_3,0.5740098999813199,,28,3,2026-03-05_15h31.06.787,2026A_exp2,2022.2.4,59.94413206918887,
1,0,0.0,4.9,1,0,67,67,45,,,,,234.49200239998754,235.1424973999965,235.1424973999965,235.64374329999555,45,45,235.64374329999555,235.64374329999555,235.64374329999555,235.64374329999555,235.64374329999555,235.64374329999555,235.64374329999555,235.64374329999555,235.64374329999555,236.0101289000013,236.0101289000013,236.0101289000013,236.0101289000013,236.0101289000013,236.0101289000013,236.0101289000013,236.0101289000013,236.0101289000013,23,0,,,236.0101289000013,236.21035800001118,4.9,236.21035800001118,1,4.9,1,1,1000,num_4,0.881418599979952,,28,3,2026-03-05_15h31.06.787,2026A_exp2,2022.2.4,59.94413206918887,
1,0,0.0,6.1,0,0,68,68,68,,,,,237.1112468999927,237.76194339996437,237.76194339996437,238.24628479999956,315,315,238.24628479999956,238.24628479999956,238.24628479999956,238.24628479999956,238.24628479999956,238.24628479999956,238.24628479999956,238.24628479999956,238.24628479999956,238.61267279996537,238.61267279996537,238.61267279996537,238.61267279996537,238.61267279996537,238.61267279996537,238.61267279996537,238.61267279996537,238.61267279996537,19,1,[0.0012332000187598169],[0.06674460001522675],238.61267279996537,238.8128334999783,0.0,238.8128334999783,0,0.0,0,1,1000,num_1,0.4625838999636471,,28,3,2026-03-05_15h31.06.787,2026A_exp2,2022.2.4,59.94413206918887,
1,0,4.9,0.0,1,0,69,69,82,,,,,239.2967226000037,239.94735480000963,239.94735480000963,240.4317282999982,45,45,240.4317282999982,240.4317282999982,240.4317282999982,240.4317282999982,240.4317282999982,240.4317282999982,240.4317282999982,240.4317282999982,240.4317282999982,240.7980487999739,240.7980487999739,240.7980487999739,240.7980487999739,240.7980487999739,240.7980487999739,240.7980487999739,240.7980487999739,240.7980487999739,23,0,,,240.7980487999739,240.99825399997644,0.0,240.99825399997644,1,0.0,0,0,1000,num_4,0.8450184999965131,,28,3,2026-03-05_15h31.06.787,2026A_exp2,2022.2.4,59.94413206918887,
0,0,3.7,4.9,1,0,70,70,3,,,,,241.8656785999774,242.5166115000029,242.5166115000029,243.00102440000046,315,315,243.00102440000046,243.00102440000046,243.00102440000046,243.00102440000046,243.00102440000046,243.00102440000046,243.00102440000046,243.00102440000046,243.00102440000046,243.36740029999055,243.36740029999055,243.36740029999055,243.36740029999055,243.36740029999055,243.36740029999055,243.36740029999055,243.36740029999055,243.36740029999055,23,0,,,243.36740029999055,243.56752739998046,3.7,243.56752739998046,0,3.7,1,0,1000,num_1,0.9249637000029907,,28,3,2026-03-05_15h31.06.787,2026A_exp2,2022.2.4,59.94413206918887,
1000,1,3.7,0.0,1,0,71,71,55,,,,,244.51861289999215,245.16927159996703,245.16927159996703,245.65368879999733,315,315,245.65368879999733,245.65368879999733,245.65368879999733,245.65368879999733,245.65368879999733,245.65368879999733,245.65368879999733,245.65368879999733,245.65368879999733,246.0199498999864,246.0199498999864,246.0199498999864,246.0199498999864,246.0199498999864,246.0199498999864,246.0199498999864,246.0199498999864,246.0199498999864,23,0,,,246.0199498999864,246.22201500000665,1000,246.22201500000665,1000,1000,1000,1000,0,num_3,0.5650453999987803,,28,3,2026-03-05_15h31.06.787,2026A_exp2,2022.2.4,59.94413206918887,
1,0,0.0,0.0,1,0,72,72,70,,,,,246.80428019998362,247.45480139995925,247.45480139995925,247.95584929996403,315,315,247.95584929996403,247.95584929996403,247.95584929996403,247.95584929996403,247.95584929996403,247.95584929996403,247.95584929996403,247.95584929996403,247.95584929996403,248.30560009996407,248.30560009996407,248.30560009996407,248.30560009996407,248.30560009996407,248.30560009996407,248.30560009996407,248.30560009996407,248.30560009996407,22,0,,,248.30560009996407,248.50594519998413,0.0,248.5225639999844,0,0.0,0,1,1000,num_1,0.6167757000075653,,28,3,2026-03-05_15h31.06.787,2026A_exp2,2022.2.4,59.94413206918887,
1000,1,0.0,0.0,1,0,73,73,23,,,,,249.15659159998177,249.80720659997314,249.80720659997314,250.29164840001613,45,45,250.29164840001613,250.29164840001613,250.29164840001613,250.29164840001613,250.29164840001613,250.29164840001613,250.29164840001613,250.29164840001613,250.29164840001613,250.65809689997695,250.65809689997695,250.65809689997695,250.65809689997695,250.65809689997695,250.65809689997695,250.65809689997695,250.65809689997695,250.65809689997695,14,4,"[0.017371000023558736, 0.13364060001913458, 0.2337038000114262, 0.2838070000289008]","[0.03348149999510497, 0.20028450002428144, 0.25052110000979155, 0.3336396000231616]",250.65809689997695,250.86073439999018,1000,250.86073439999018,1000,1000,1000,1000,1,num_2,1.0705488999956287,,28,3,2026-03-05_15h31.06.787,2026A_exp2,2022.2.4,59.94413206918887,
1000,1,3.7,6.1,0,0,74,74,28,,,,,251.95938869996462,252.61005889996886,252.61005889996886,253.11107889999403,45,45,253.11107889999403,253.11107889999403,253.11107889999403,253.11107889999403,253.11107889999403,253.11107889999403,253.11107889999403,253.11107889999403,253.11107889999403,253.47757499996806,253.47757499996806,253.47757499996806,253.47757499996806,253.47757499996806,253.47757499996806,253.47757499996806,253.47757499996806,253.47757499996806,10,5,"[0.0012417000252753496, 0.06690259999595582, 0.1669281999929808, 0.21682650002185255, 0.26709880004636943]","[0.05027520004659891, 0.1334966000285931, 0.2001200999948196, 0.25049100001342595, 0.30028870003297925]",253.47757499996806,253.67966259998502,1000,253.67966259998502,1000,1000,1000,1000,1,num_2,0.9721565999789163,,28,3,2026-03-05_15h31.06.787,2026A_exp2,2022.2.4,59.94413206918887,
1,0,4.9,0.0,0,0,75,75,48,,,,,254.67881620000117,255.32941329997266,255.32941329997266,255.8305391999893,315,45,255.8305391999893,255.8305391999893,255.8305391999893,255.8305391999893,255.8305391999893,255.8305391999893,255.8305391999893,255.8305391999893,255.8305391999893,256.19693819998065,256.19693819998065,256.19693819998065,256.19693819998065,256.19693819998065,256.19693819998065,256.19693819998065,256.19693819998065,256.19693819998065,23,0,,,256.19693819998065,256.39711399999214,4.9,256.39711399999214,0,4.9,1,0,1000,num_1,2.4305284000001848,,28,3,2026-03-05_15h31.06.787,2026A_exp2,2022.2.4,59.94413206918887,
0,0,4.9,0.0,0,0,76,76,30,,,,,258.8495938999695,259.5001360999886,259.5001360999886,259.9848479999928,315,315,259.9848479999928,259.9848479999928,259.9848479999928,259.9848479999928,259.9848479999928,259.9848479999928,259.9848479999928,259.9848479999928,259.9848479999928,260.35087879997445,260.35087879997445,260.35087879997445,260.35087879997445,260.35087879997445,260.35087879997445,260.35087879997445,260.35087879997445,260.35087879997445,4,1,[0.001213700044900179],[0.3172774000559002],260.35087879997445,260.5513389999978,0.0,260.5513389999978,1,0.0,0,0,1000,num_4,1.1965252000372857,,28,3,2026-03-05_15h31.06.787,2026A_exp2,2022.2.4,59.94413206918887,
1,0,6.1,3.7,0,0,77,77,26,,,,,261.7692629999947,262.4031279999763,262.4031279999763,262.90427920001093,315,315,262.90427920001093,262.90427920001093,262.90427920001093,262.90427920001093,262.90427920001093,262.90427920001093,262.90427920001093,262.90427920001093,262.90427920001093,263.2707216999843,263.2707216999843,263.2707216999843,263.2707216999843,263.2707216999843,263.2707216999843,263.2707216999843,263.2707216999843,263.2707216999843,12,2,"[0.0006951999966986477, 0.28434509999351576]","[0.1506972000352107, 0.3176314000156708]",263.2707216999843,263.47074899997097,6.1,263.47074899997097,1,6.1,1,1,1000,num_4,0.9963354999781586,,28,3,2026-03-05_15h31.06.787,2026A_exp2,2022.2.4,59.94413206918887,
1000,1,4.9,0.0,0,0,78,78,22,,,,,264.488540499995,265.1391899000155,265.1391899000155,265.62365859997226,315,315,265.62365859997226,265.62365859997226,265.62365859997226,265.62365859997226,265.62365859997226,265.62365859997226,265.62365859997226,265.62365859997226,265.62365859997226,265.9900465999963,265.9900465999963,265.9900465999963,265.9900465999963,265.9900465999963,265.9900465999963,265.9900465999963,265.9900465999963,265.9900465999963,23,0,,,265.9900465999963,266.19124159996863,1000,266.19124159996863,1000,1000,1000,1000,1,num_2,0.7964435999747366,,28,3,2026-03-05_15h31.06.787,2026A_exp2,2022.2.4,59.94413206918887,
1,0,4.9,6.1,1,0,79,79,86,,,,,267.0078034999897,267.6582544000121,267.6582544000121,268.15935689996695,315,45,268.15935689996695,268.15935689996695,268.15935689996695,268.15935689996695,268.15935689996695,268.15935689996695,268.15935689996695,268.15935689996695,268.15935689996695,268.52591829997255,268.52591829997255,268.52591829997255,268.52591829997255,268.52591829997255,268.52591829997255,268.52591829997255,268.52591829997255,268.52591829997255,23,0,,,268.52591829997255,268.72602030000417,6.1,268.72602030000417,1,6.1,1,1,1000,num_4,0.6854159999638796,,28,3,2026-03-05_15h31.06.787,2026A_exp2,2022.2.4,59.94413206918887,
1,0,0.0,6.1,0,0,80,80,5,,,,,269.44338279997464,270.0774817999918,270.0774817999918,270.5783878999646,315,45,270.5783878999646,270.5783878999646,270.5783878999646,270.5783878999646,270.5783878999646,270.5783878999646,270.5783878999646,270.5783878999646,270.5783878999646,270.94477729999926,270.94477729999926,270.94477729999926,270.94477729999926,270.94477729999926,270.94477729999926,270.94477729999926,270.94477729999926,270.94477729999926,18,2,"[0.10010779998265207, 0.20037739997496828]","[0.11680499999783933, 0.2683265999658033]",270.94477729999926,271.144996499992,0.0,271.144996499992,0,0.0,0,1,1000,num_1,0.8347196999820881,,28,3,2026-03-05_15h31.06.787,2026A_exp2,2022.2.4,59.94413206918887,
1000,1,0.0,4.9,1,0,81,81,51,,,,,271.99591850000434,272.62990920001175,272.62990920001175,273.13092129997676,45,315,273.13092129997676,273.13092129997676,273.13092129997676,273.13092129997676,273.13092129997676,273.13092129997676,273.13092129997676,273.13092129997676,273.13092129997676,273.497336099972,273.497336099972,273.497336099972,273.497336099972,273.497336099972,273.497336099972,273.497336099972,273.497336099972,273.497336099972,14,2,"[0.0334957999875769, 0.06689870002446696]","[0.05018540000310168, 0.20024500001454726]",273.497336099972,273.6978018999798,1000,273.6978018999798,1000,1000,1000,1000,0,num_3,0.6975107999751344,,28,3,2026-03-05_15h31.06.787,2026A_exp2,2022.2.4,59.94413206918887,
1,0,0.0,0.0,1,0,82,82,18,,,,,274.4149861999904,275.04913230001694,275.04913230001694,275.5500961999642,45,45,275.5500961999642,275.5500961999642,275.5500961999642,275.5500961999642,275.5500961999642,275.5500961999642,275.5500961999642,275.5500961999642,275.5500961999642,275.916640899959,275.916640899959,275.916640899959,275.916640899959,275.916640899959,275.916640899959,275.916640899959,275.916640899959,275.916640899959,23,0,,,275.916640899959,276.11671029997524,0.0,276.11671029997524,0,0.0,0,1,1000,num_1,0.52759699994931,,28,3,2026-03-05_15h31.06.787,2026A_exp2,2022.2.4,59.94413206918887,
1,0,0.0,3.7,0,0,83,83,12,,,,,276.66751459997613,277.31806459999643,277.31806459999643,277.80235519999405,315,45,277.80235519999405,277.80235519999405,277.80235519999405,277.80235519999405,277.80235519999405,277.80235519999405,277.80235519999405,277.80235519999405,277.80235519999405,278.168913099973,278.168913099973,278.168913099973,278.168913099973,278.168913099973,278.168913099973,278.168913099973,278.168913099973,278.168913099973,23,0,,,278.168913099973,278.3691190999816,0.0,278.3691190999816,1,0.0,0,0,1000,num_4,1.84990899998229,,28,3,2026-03-05_15h31.06.787,2026A_exp2,2022.2.4,59.94413206918887,
0,0,0.0,0.0,1,0,84,84,62,,,,,280.23759909998626,280.88793440000154,280.88793440000154,281.3727200999856,315,315,281.3727200999856,281.3727200999856,281.3727200999856,281.3727200999856,281.3727200999856,281.3727200999856,281.3727200999856,281.3727200999856,281.3727200999856,281.73898119997466,281.73898119997466,281.73898119997466,281.73898119997466,281.73898119997466,281.73898119997466,281.73898119997466,281.73898119997466,281.73898119997466,21,1,[0.0012049999786540866],[0.03362090000882745],281.73898119997466,281.9393568999949,0.0,281.9393568999949,0,0.0,0,1,1000,num_1,0.27276169997639954,,28,3,2026-03-05_15h31.06.787,2026A_exp2,2022.2.4,59.94413206918887,
1000,1,0.0,4.9,0,0,85,85,77,,,,,282.2394770999672,282.89028539997526,282.89028539997526,283.37475229997654,45,45,283.37475229997654,283.37475229997654,283.37475229997654,283.37475229997654,283.37475229997654,283.37475229997654,283.37475229997654,283.37475229997654,283.37475229997654,283.74106679996476,283.74106679996476,283.74106679996476,283.74106679996476,283.74106679996476,283.74106679996476,283.74106679996476,283.74106679996476,283.74106679996476,3,2,"[0.017485100019257516, 0.200259700010065]","[0.16695619997335598, 0.36715910001657903]",283.74106679996476,283.9432810000144,1000,283.9432810000144,1000,1000,1000,1000,1,num_2,0.6040931000025012,,28,3,2026-03-05_15h31.06.787,2026A_exp2,2022.2.4,59.94413206918887,
1000,1,4.9,3.7,1,0,86,86,67,,,,,284.5754125000094,285.2259621999692,285.2259621999692,285.7271179999807,315,315,285.7271179999807,285.7271179999807,285.7271179999807,285.7271179999807,285.7271179999807,285.7271179999807,285.7271179999807,285.7271179999807,285.7271179999807,286.07681990001583,286.07681990001583,286.07681990001583,286.07681990001583,286.07681990001583,286.07681990001583,286.07681990001583,286.07681990001583,286.07681990001583,22,0,,,286.07681990001583,286.27879790001316,1000,286.2936683999724,1000,1000,1000,1000,0,num_3,0.5180040000122972,,28,3,2026-03-05_15h31.06.787,2026A_exp2,2022.2.4,59.94413206918887,
1,0,0.0,0.0,1,0,87,87,73,,,,,286.82754639995983,287.47832349996315,287.47832349996315,287.97935949999373,45,315,287.97935949999373,287.97935949999373,287.97935949999373,287.97935949999373,287.97935949999373,287.97935949999373,287.97935949999373,287.97935949999373,287.97935949999373,288.34581420000177,288.34581420000177,288.34581420000177,288.34581420000177,288.34581420000177,288.34581420000177,288.34581420000177,288.34581420000177,288.34581420000177,23,0,,,288.34581420000177,288.5458762999624,0.0,288.5458762999624,1,0.0,0,0,1000,num_4,0.4500034999800846,,28,3,2026-03-05_15h31.06.787,2026A_exp2,2022.2.4,59.94413206918887,
1000,1,4.9,0.0,1,0,88,88,72,,,,,289.01310689997626,289.66372339997906,289.66372339997906,290.14820220001275,315,45,290.14820220001275,290.14820220001275,290.14820220001275,290.14820220001275,290.14820220001275,290.14820220001275,290.14820220001275,290.14820220001275,290.14820220001275,290.51456769998185,290.51456769998185,290.51456769998185,290.51456769998185,290.51456769998185,290.51456769998185,290.51456769998185,290.51456769998185,290.51456769998185,21,1,[0.10018130001844838],[0.1337671999935992],290.51456769998185,290.716606699978,1000,290.716606699978,1000,1000,1000,1000,1,num_2,0.5438735000207089,,28,3,2026-03-05_15h31.06.787,2026A_exp2,2022.2.4,59.94413206918887,
1000,1,6.1,0.0,0,0,89,89,33,,,,,291.28214450000087,291.9428235999658,291.9428235999658,292.43864209996536,45,315,292.43864209996536,292.43864209996536,292.43864209996536,292.43864209996536,292.43864209996536,292.43864209996536,292.43864209996536,292.43864209996536,292.43864209996536,292.80037879996235,292.80037879996235,292.80037879996235,292.80037879996235,292.80037879996235,292.80037879996235,292.80037879996235,292.80037879996235,292.80037879996235,6,3,"[0.035225599945988506, 0.1167970999958925, 0.1820836999686435]","[0.08373729995219037, 0.15007239999249578, 0.3671430999529548]",292.80037879996235,293.0056846999796,1000,293.0056846999796,1000,1000,1000,1000,1,num_2,0.5183542000013404,,28,3,2026-03-05_15h31.06.787,2026A_exp2,2022.2.4,59.94413206918887,
,,,,,,,,,,,,,,,,,,,,,,,,,,,,,,,,,,,,,,,,,,,,,,,,,,,,293.5797860000166,,,,,,,
