validity,detectorcomp,contrastCW,contrastCCW,precueCWorCCW,block_80trials.thisRepN,block_80trials.thisTrialN,block_80trials.thisN,block_80trials.thisIndex,etRecord.started,etRecord.stopped,text.started,text.stopped,text_4.started,text_4.stopped,text_6.started,text_6.stopped,oriCW,oriCCW,roi_2.started,grating_UR.started,grating_UL.started,grating_LR.started,grating_LL.started,noise_UR.started,noise_UL.started,noise_LR.started,noise_LL.started,roi_2.stopped,grating_UR.stopped,grating_UL.stopped,grating_LR.stopped,grating_LL.stopped,noise_UR.stopped,noise_UL.stopped,noise_LR.stopped,noise_LL.stopped,outframe,roi_2.numLooks,roi_2.timesOn,roi_2.timesOff,text_2.started,text_2.stopped,probedcontrast,key_resp.started,respdetect,relevantContrast,correctDetect,TorFdetect,respCWorCCW,key_resp.keys,key_resp.rt,feedback_display_.started,participantNo,blockNo,date,expName,psychopyVersion,frameRate,
1,0,0.0,0.0,1,0,0,0,20,4.25000034738332e-05,4.25000034738332e-05,55.334772700007306,57.338569399988046,57.338569399988046,57.9716630000039,57.9716630000039,58.49508789999527,315,45,58.49508789999527,58.49508789999527,58.49508789999527,58.49508789999527,58.49508789999527,58.49508789999527,58.49508789999527,58.49508789999527,58.49508789999527,58.838301400013734,58.838301400013734,58.838301400013734,58.838301400013734,58.838301400013734,58.838301400013734,58.838301400013734,58.838301400013734,58.838301400013734,23,0,,,58.838301400013734,59.03869799998938,0.0,59.03869799998938,0,0.0,0,1,1000,num_1,0.8043255000084173,,20,15,2026-03-02_16h44.31.546,2026A_exp2,2022.2.4,59.94754590269487,
1,0,3.7,0.0,0,0,1,1,3,,,,,59.87297880000551,60.50658650000696,60.50658650000696,61.007637100003194,45,45,61.007637100003194,61.007637100003194,61.007637100003194,61.007637100003194,61.007637100003194,61.007637100003194,61.007637100003194,61.007637100003194,61.007637100003194,61.37434169999324,61.37434169999324,61.37434169999324,61.37434169999324,61.37434169999324,61.37434169999324,61.37434169999324,61.37434169999324,61.37434169999324,5,6,"[0.0007616000075358897, 0.11727370001608506, 0.15054209998925216, 0.1839077000040561, 0.25210109999170527, 0.3011009999900125]","[0.10138199999346398, 0.13402600001427345, 0.16938639999716543, 0.23510330001590773, 0.2845324999943841, 0.36757370000123046]",61.37434169999324,61.57456720000482,3.7,61.57456720000482,1,3.7,1,1,1000,num_4,0.8042531999817584,,20,15,2026-03-02_16h44.31.546,2026A_exp2,2022.2.4,59.94754590269487,
1000,1,0.0,0.0,0,0,2,2,79,,,,,62.4085638000106,63.04244600000675,63.04244600000675,63.54356190000544,315,315,63.54356190000544,63.54356190000544,63.54356190000544,63.54356190000544,63.54356190000544,63.54356190000544,63.54356190000544,63.54356190000544,63.54356190000544,63.9099622000067,63.9099622000067,63.9099622000067,63.9099622000067,63.9099622000067,63.9099622000067,63.9099622000067,63.9099622000067,63.9099622000067,1,2,"[0.0007298999989870936, 0.3507691999839153]","[0.33391909999772906, 0.36737200000789016]",63.9099622000067,64.11045509998803,1000,64.11045509998803,1000,1000,1000,1000,0,num_3,0.47586030000820756,,20,15,2026-03-02_16h44.31.546,2026A_exp2,2022.2.4,59.94754590269487,
1,0,3.7,6.1,1,0,3,3,75,,,,,64.61088940000627,65.26131750000059,65.26131750000059,65.7459547999897,45,45,65.7459547999897,65.7459547999897,65.7459547999897,65.7459547999897,65.7459547999897,65.7459547999897,65.7459547999897,65.7459547999897,65.7459547999897,66.1121562999906,66.1121562999906,66.1121562999906,66.1121562999906,66.1121562999906,66.1121562999906,66.1121562999906,66.1121562999906,66.1121562999906,3,3,"[0.001153399993199855, 0.11650430000736378, 0.2168715000152588]","[0.09986449999269098, 0.20018799998797476, 0.36679920001188293]",66.1121562999906,66.3129074999888,6.1,66.3129074999888,1,6.1,1,1,1000,num_4,0.594181699998444,,20,15,2026-03-02_16h44.31.546,2026A_exp2,2022.2.4,59.94754590269487,
1000,1,0.0,4.9,0,0,4,4,23,,,,,66.92973920001532,67.56384839999373,67.56384839999373,68.06474090000847,315,45,68.06474090000847,68.06474090000847,68.06474090000847,68.06474090000847,68.06474090000847,68.06474090000847,68.06474090000847,68.06474090000847,68.06474090000847,68.43112530000508,68.43112530000508,68.43112530000508,68.43112530000508,68.43112530000508,68.43112530000508,68.43112530000508,68.43112530000508,68.43112530000508,1,1,[0.0007649000035598874],[0.3667637000035029],68.43112530000508,68.63178679998964,1000,68.63178679998964,1000,1000,1000,1000,1,num_2,0.5629653999931179,,20,15,2026-03-02_16h44.31.546,2026A_exp2,2022.2.4,59.94754590269487,
1,0,0.0,0.0,0,0,5,5,22,,,,,69.21542849999969,69.86598349999986,69.86598349999986,70.35059980000369,315,315,70.35059980000369,70.35059980000369,70.35059980000369,70.35059980000369,70.35059980000369,70.35059980000369,70.35059980000369,70.35059980000369,70.35059980000369,70.71702109999023,70.71702109999023,70.71702109999023,70.71702109999023,70.71702109999023,70.71702109999023,70.71702109999023,70.71702109999023,70.71702109999023,0,1,[0.000752499996451661],[0.3672372000000905],70.71702109999023,70.91695469999104,0.0,70.91695469999104,1,0.0,0,0,1000,num_4,0.8858710000058636,,20,15,2026-03-02_16h44.31.546,2026A_exp2,2022.2.4,59.94754590269487,
1000,1,0.0,0.0,0,0,6,6,2,,,,,71.83458130000508,72.48516159999417,72.48516159999417,72.96955589999561,315,45,72.96955589999561,72.96955589999561,72.96955589999561,72.96955589999561,72.96955589999561,72.96955589999561,72.96955589999561,72.96955589999561,72.96955589999561,73.33611209999071,73.33611209999071,73.33611209999071,73.33611209999071,73.33611209999071,73.33611209999071,73.33611209999071,73.33611209999071,73.33611209999071,0,1,[0.000731200008885935],[0.3672863000247162],73.33611209999071,73.53650640000706,1000,73.53650640000706,1000,1000,1000,1000,0,num_3,0.42598430000361986,,20,15,2026-03-02_16h44.31.546,2026A_exp2,2022.2.4,59.94754590269487,
1,0,0.0,0.0,0,0,7,7,85,,,,,73.98670209999545,74.62077070001396,74.62077070001396,75.12185450000106,45,45,75.12185450000106,75.12185450000106,75.12185450000106,75.12185450000106,75.12185450000106,75.12185450000106,75.12185450000106,75.12185450000106,75.12185450000106,75.48812069999985,75.48812069999985,75.48812069999985,75.48812069999985,75.48812069999985,75.48812069999985,75.48812069999985,75.48812069999985,75.48812069999985,0,1,[0.0007170999888330698],[0.3671697999816388],75.48812069999985,75.68828410000424,0.0,75.68828410000424,1,0.0,0,0,1000,num_4,0.6906171999871731,,20,15,2026-03-02_16h44.31.546,2026A_exp2,2022.2.4,59.94754590269487,
1000,1,0.0,3.7,1,0,8,8,82,,,,,76.40598070001579,77.05644149999716,77.05644149999716,77.54095140000572,45,45,77.54095140000572,77.54095140000572,77.54095140000572,77.54095140000572,77.54095140000572,77.54095140000572,77.54095140000572,77.54095140000572,77.54095140000572,77.90729730000021,77.90729730000021,77.90729730000021,77.90729730000021,77.90729730000021,77.90729730000021,77.90729730000021,77.90729730000021,77.90729730000021,0,1,[0.0007172999903559685],[0.3674903999781236],77.90729730000021,78.10747419999097,1000,78.10747419999097,1000,1000,1000,1000,1,num_2,0.399704900017241,,20,15,2026-03-02_16h44.31.546,2026A_exp2,2022.2.4,59.94754590269487,
1,0,0.0,0.0,1,0,9,9,59,,,,,78.52508150000358,79.17525289999321,79.17525289999321,79.65964910000912,45,45,79.65964910000912,79.65964910000912,79.65964910000912,79.65964910000912,79.65964910000912,79.65964910000912,79.65964910000912,79.65964910000912,79.65964910000912,80.02659220001078,80.02659220001078,80.02659220001078,80.02659220001078,80.02659220001078,80.02659220001078,80.02659220001078,80.02659220001078,80.02659220001078,0,1,[0.0007448999967891723],[0.3677701999840792],80.02659220001078,80.2262527999992,0.0,80.2262527999992,0,0.0,0,1,1000,num_1,0.6008082999906037,,20,15,2026-03-02_16h44.31.546,2026A_exp2,2022.2.4,59.94754590269487,
0,0,0.0,0.0,1,0,10,10,14,,,,,80.84347520000301,81.47773459999007,81.47773459999007,81.9786820000154,315,45,81.9786820000154,81.9786820000154,81.9786820000154,81.9786820000154,81.9786820000154,81.9786820000154,81.9786820000154,81.9786820000154,81.9786820000154,82.34513810000499,82.34513810000499,82.34513810000499,82.34513810000499,82.34513810000499,82.34513810000499,82.34513810000499,82.34513810000499,82.34513810000499,0,1,[0.0007221999985631555],[0.367128199985018],82.34513810000499,82.54537139998865,0.0,82.54537139998865,1,0.0,0,0,1000,num_4,0.7863750999968033,,20,15,2026-03-02_16h44.31.546,2026A_exp2,2022.2.4,59.94754590269487,
1,0,6.1,6.1,0,0,11,11,89,,,,,83.36276630000793,83.9969226999965,83.9969226999965,84.49790919999941,45,45,84.49790919999941,84.49790919999941,84.49790919999941,84.49790919999941,84.49790919999941,84.49790919999941,84.49790919999941,84.49790919999941,84.49790919999941,84.86421319999499,84.86421319999499,84.86421319999499,84.86421319999499,84.86421319999499,84.86421319999499,84.86421319999499,84.86421319999499,84.86421319999499,22,1,[0.26730280002811924],[0.28382670000428334],84.86421319999499,85.06448430000455,6.1,85.06448430000455,0,6.1,1,0,1000,num_1,0.7942069999990053,,20,15,2026-03-02_16h44.31.546,2026A_exp2,2022.2.4,59.94754590269487,
1000,1,0.0,0.0,0,0,12,12,24,,,,,85.88199369999347,86.51590490000672,86.51590490000672,87.01702759999898,45,315,87.01702759999898,87.01702759999898,87.01702759999898,87.01702759999898,87.01702759999898,87.01702759999898,87.01702759999898,87.01702759999898,87.01702759999898,87.3834543999983,87.3834543999983,87.3834543999983,87.3834543999983,87.3834543999983,87.3834543999983,87.3834543999983,87.3834543999983,87.3834543999983,7,3,"[0.0007480999920517206, 0.10047139998641796, 0.2838805999781471]","[0.06723619997501373, 0.2671525999903679, 0.31726899999193847]",87.3834543999983,87.58417429999099,1000,87.58417429999099,1000,1000,1000,1000,0,num_3,0.42668370000319555,,20,15,2026-03-02_16h44.31.546,2026A_exp2,2022.2.4,59.94754590269487,
1,0,0.0,0.0,0,0,13,13,61,,,,,88.03415759999189,88.6680663000152,88.6680663000152,89.16997710001306,315,45,89.16997710001306,89.16997710001306,89.16997710001306,89.16997710001306,89.16997710001306,89.16997710001306,89.16997710001306,89.16997710001306,89.16997710001306,89.53554010001244,89.53554010001244,89.53554010001244,89.53554010001244,89.53554010001244,89.53554010001244,89.53554010001244,89.53554010001244,89.53554010001244,0,1,[0.0008823000243864954],[0.3666285000217613],89.53554010001244,89.7358838999935,0.0,89.7358838999935,1,0.0,0,0,1000,num_4,0.5947919999889564,,20,15,2026-03-02_16h44.31.546,2026A_exp2,2022.2.4,59.94754590269487,
1000,1,6.1,0.0,0,0,14,14,21,,,,,90.35313289999613,90.98692789999768,90.98692789999768,91.48905669999658,45,45,91.48905669999658,91.48905669999658,91.48905669999658,91.48905669999658,91.48905669999658,91.48905669999658,91.48905669999658,91.48905669999658,91.48905669999658,91.85460429999512,91.85460429999512,91.85460429999512,91.85460429999512,91.85460429999512,91.85460429999512,91.85460429999512,91.85460429999512,91.85460429999512,23,0,,,91.85460429999512,92.05541060000542,1000,92.05541060000542,1000,1000,1000,1000,0,num_3,0.2992303000064567,,20,15,2026-03-02_16h44.31.546,2026A_exp2,2022.2.4,59.94754590269487,
1,0,0.0,0.0,1,0,15,15,4,,,,,92.37205559998984,93.02259350000531,93.02259350000531,93.52509030001238,315,315,93.52509030001238,93.52509030001238,93.52509030001238,93.52509030001238,93.52509030001238,93.52509030001238,93.52509030001238,93.52509030001238,93.52509030001238,93.87349790000007,93.87349790000007,93.87349790000007,93.87349790000007,93.87349790000007,93.87349790000007,93.87349790000007,93.87349790000007,93.87349790000007,21,1,[0.35060759997577406],[0.35061039999709465],93.87349790000007,94.07370889998856,0.0,94.09035069998936,1,0.0,0,0,1000,num_4,0.6803110000037123,,20,15,2026-03-02_16h44.31.546,2026A_exp2,2022.2.4,59.94754590269487,
1000,1,0.0,3.7,0,0,16,16,50,,,,,94.79096680000657,95.42482909999671,95.42482909999671,95.92604280001251,45,45,95.92604280001251,95.92604280001251,95.92604280001251,95.92604280001251,95.92604280001251,95.92604280001251,95.92604280001251,95.92604280001251,95.92604280001251,96.29240740000387,96.29240740000387,96.29240740000387,96.29240740000387,96.29240740000387,96.29240740000387,96.29240740000387,96.29240740000387,96.29240740000387,17,2,"[0.0009774000209290534, 0.09902730002067983]","[0.08235950002563186, 0.11559460000717081]",96.29240740000387,96.49299230001634,1000,96.49299230001634,1000,1000,1000,1000,1,num_2,0.48580980001133867,,20,15,2026-03-02_16h44.31.546,2026A_exp2,2022.2.4,59.94754590269487,
1000,1,4.9,0.0,1,0,17,17,84,,,,,97.00999300001422,97.66108220000751,97.66108220000751,98.14498989999993,45,315,98.14498989999993,98.14498989999993,98.14498989999993,98.14498989999993,98.14498989999993,98.14498989999993,98.14498989999993,98.14498989999993,98.14498989999993,98.51127540000016,98.51127540000016,98.51127540000016,98.51127540000016,98.51127540000016,98.51127540000016,98.51127540000016,98.51127540000016,98.51127540000016,23,0,,,98.51127540000016,98.71188330001314,1000,98.71188330001314,1000,1000,1000,1000,0,num_3,0.291270199988503,,20,15,2026-03-02_16h44.31.546,2026A_exp2,2022.2.4,59.94754590269487,
0,0,4.9,0.0,1,0,18,18,26,,,,,99.02872289999505,99.67915810001432,99.67915810001432,100.1635804999969,315,315,100.1635804999969,100.1635804999969,100.1635804999969,100.1635804999969,100.1635804999969,100.1635804999969,100.1635804999969,100.1635804999969,100.1635804999969,100.52992550001363,100.52992550001363,100.52992550001363,100.52992550001363,100.52992550001363,100.52992550001363,100.52992550001363,100.52992550001363,100.52992550001363,2,1,[0.033722099993610755],[0.36747709999326617],100.52992550001363,100.7301129999978,4.9,100.7301129999978,1,4.9,1,1,1000,num_4,0.8086362999747507,,20,15,2026-03-02_16h44.31.546,2026A_exp2,2022.2.4,59.94754590269487,
1000,1,3.7,0.0,1,0,19,19,19,,,,,101.56476649999968,102.21543979999842,102.21543979999842,102.69949200001429,45,45,102.69949200001429,102.69949200001429,102.69949200001429,102.69949200001429,102.69949200001429,102.69949200001429,102.69949200001429,102.69949200001429,102.69949200001429,103.06568860000698,103.06568860000698,103.06568860000698,103.06568860000698,103.06568860000698,103.06568860000698,103.06568860000698,103.06568860000698,103.06568860000698,0,1,[0.0007893999863881618],[0.3669145999883767],103.06568860000698,103.26616679999279,1000,103.26616679999279,1000,1000,1000,1000,0,num_3,0.36902890002238564,,20,15,2026-03-02_16h44.31.546,2026A_exp2,2022.2.4,59.94754590269487,
1000,1,4.9,0.0,1,0,20,20,74,,,,,103.66701860001194,104.31740490000811,104.31740490000811,104.80155669999658,315,45,104.80155669999658,104.80155669999658,104.80155669999658,104.80155669999658,104.80155669999658,104.80155669999658,104.80155669999658,104.80155669999658,104.80155669999658,105.16777140001068,105.16777140001068,105.16777140001068,105.16777140001068,105.16777140001068,105.16777140001068,105.16777140001068,105.16777140001068,105.16777140001068,0,1,[0.0008686000073794276],[0.3669810999999754],105.16777140001068,105.36828170000808,1000,105.36828170000808,1000,1000,1000,1000,0,num_3,0.3546005999960471,,20,15,2026-03-02_16h44.31.546,2026A_exp2,2022.2.4,59.94754590269487,
1000,1,4.9,0.0,1,0,21,21,56,,,,,105.75183749999269,106.38590860000113,106.38590860000113,106.8871485000127,315,315,106.8871485000127,106.8871485000127,106.8871485000127,106.8871485000127,106.8871485000127,106.8871485000127,106.8871485000127,106.8871485000127,106.8871485000127,107.25332200000412,107.25332200000412,107.25332200000412,107.25332200000412,107.25332200000412,107.25332200000412,107.25332200000412,107.25332200000412,107.25332200000412,0,1,[0.0007900999917183071],[0.36683309997897595],107.25332200000412,107.45402689999901,1000,107.45402689999901,1000,1000,1000,1000,0,num_3,0.3008864999865182,,20,15,2026-03-02_16h44.31.546,2026A_exp2,2022.2.4,59.94754590269487,
1000,1,3.7,0.0,0,0,22,22,81,,,,,107.77083510000375,108.42137480000383,108.42137480000383,108.92272020000382,315,315,108.92272020000382,108.92272020000382,108.92272020000382,108.92272020000382,108.92272020000382,108.92272020000382,108.92272020000382,108.92272020000382,108.92272020000382,109.28898179999669,109.28898179999669,109.28898179999669,109.28898179999669,109.28898179999669,109.28898179999669,109.28898179999669,109.28898179999669,109.28898179999669,13,6,"[0.0012586999800987542, 0.18357039999682456, 0.2170664999866858, 0.2837301999970805, 0.3170852999901399, 0.35054679997847416]","[0.08321439998690039, 0.20030430000042543, 0.23373509998782538, 0.30056609999155626, 0.33376379997935146, 0.36723579998943023]",109.28898179999669,109.49135820000083,1000,109.49135820000083,1000,1000,1000,1000,0,num_3,0.3673114999837708,,20,15,2026-03-02_16h44.31.546,2026A_exp2,2022.2.4,59.94754590269487,
1,0,3.7,0.0,0,0,23,23,7,,,,,109.88967100001173,110.54032130000996,110.54032130000996,111.04145300001255,45,45,111.04145300001255,111.04145300001255,111.04145300001255,111.04145300001255,111.04145300001255,111.04145300001255,111.04145300001255,111.04145300001255,111.04145300001255,111.39119399999618,111.39119399999618,111.39119399999618,111.39119399999618,111.39119399999618,111.39119399999618,111.39119399999618,111.39119399999618,111.39119399999618,6,7,"[0.0011898999800905585, 0.1336812999797985, 0.16708769998513162, 0.20056229998590425, 0.23386330000357702, 0.26711009998689406, 0.30063939999672584]","[0.11713120000786148, 0.1503886999853421, 0.18382239999482408, 0.21708830000716262, 0.2504060000064783, 0.2838356999855023, 0.3505318999814335]",111.39119399999618,111.59098119998816,3.7,111.60770650001359,1,3.7,1,1,1000,num_4,0.9069811000081245,,20,15,2026-03-02_16h44.31.546,2026A_exp2,2022.2.4,59.94754590269487,
1000,1,0.0,4.9,1,0,24,24,72,,,,,112.54227370000444,113.19286380000995,113.19286380000995,113.67731299999286,45,45,113.67731299999286,113.67731299999286,113.67731299999286,113.67731299999286,113.67731299999286,113.67731299999286,113.67731299999286,113.67731299999286,113.67731299999286,114.04381010000361,114.04381010000361,114.04381010000361,114.04381010000361,114.04381010000361,114.04381010000361,114.04381010000361,114.04381010000361,114.04381010000361,23,0,,,114.04381010000361,114.24555419999524,1000,114.24555419999524,1000,1000,1000,1000,1,num_2,0.8378136999963317,,20,15,2026-03-02_16h44.31.546,2026A_exp2,2022.2.4,59.94754590269487,
1,0,0.0,0.0,1,0,25,25,66,,,,,115.1114033999911,115.76223500000197,115.76223500000197,116.26329420000548,45,45,116.26329420000548,116.26329420000548,116.26329420000548,116.26329420000548,116.26329420000548,116.26329420000548,116.26329420000548,116.26329420000548,116.26329420000548,116.62954429999809,116.62954429999809,116.62954429999809,116.62954429999809,116.62954429999809,116.62954429999809,116.62954429999809,116.62954429999809,116.62954429999809,23,0,,,116.62954429999809,116.82992389998981,0.0,116.82992389998981,1,0.0,0,0,1000,num_4,0.7328521000163164,,20,15,2026-03-02_16h44.31.546,2026A_exp2,2022.2.4,59.94754590269487,
1000,1,0.0,0.0,1,0,26,26,35,,,,,117.58047159999842,118.23127190000378,118.23127190000378,118.71568809999735,315,45,118.71568809999735,118.71568809999735,118.71568809999735,118.71568809999735,118.71568809999735,118.71568809999735,118.71568809999735,118.71568809999735,118.71568809999735,119.08220979999169,119.08220979999169,119.08220979999169,119.08220979999169,119.08220979999169,119.08220979999169,119.08220979999169,119.08220979999169,119.08220979999169,0,1,[0.0007232000061776489],[0.36761610000394285],119.08220979999169,119.28415530000348,1000,119.28415530000348,1000,1000,1000,1000,1,num_2,0.5190617000043858,,20,15,2026-03-02_16h44.31.546,2026A_exp2,2022.2.4,59.94754590269487,
1,0,0.0,0.0,1,0,27,27,58,,,,,119.83305770001607,120.48365770000964,120.48365770000964,120.96788159999414,45,45,120.96788159999414,120.96788159999414,120.96788159999414,120.96788159999414,120.96788159999414,120.96788159999414,120.96788159999414,120.96788159999414,120.96788159999414,121.3343082999927,121.3343082999927,121.3343082999927,121.3343082999927,121.3343082999927,121.3343082999927,121.3343082999927,121.3343082999927,121.3343082999927,23,0,,,121.3343082999927,121.53448649999336,0.0,121.53448649999336,0,0.0,0,1,1000,num_1,0.8760700999991968,,20,15,2026-03-02_16h44.31.546,2026A_exp2,2022.2.4,59.94754590269487,
1,0,6.1,0.0,0,0,28,28,51,,,,,122.43538949999493,123.0861939000024,123.0861939000024,123.5706196000101,45,315,123.5706196000101,123.5706196000101,123.5706196000101,123.5706196000101,123.5706196000101,123.5706196000101,123.5706196000101,123.5706196000101,123.5706196000101,123.9370312000101,123.9370312000101,123.9370312000101,123.9370312000101,123.9370312000101,123.9370312000101,123.9370312000101,123.9370312000101,123.9370312000101,0,1,[0.0011958000250160694],[0.3671762000012677],123.9370312000101,124.13725699999486,6.1,124.13725699999486,1,6.1,1,1,1000,num_4,0.6413270000193734,,20,15,2026-03-02_16h44.31.546,2026A_exp2,2022.2.4,59.94754590269487,
1,0,4.9,3.7,1,0,29,29,71,,,,,124.80447400000412,125.45517810000456,125.45517810000456,125.93954819999635,45,315,125.93954819999635,125.93954819999635,125.93954819999635,125.93954819999635,125.93954819999635,125.93954819999635,125.93954819999635,125.93954819999635,125.93954819999635,126.3060502000153,126.3060502000153,126.3060502000153,126.3060502000153,126.3060502000153,126.3060502000153,126.3060502000153,126.3060502000153,126.3060502000153,17,1,[0.0013525999966077507],[0.10025430002133362],126.3060502000153,126.5060511000047,3.7,126.5060511000047,0,3.7,1,0,1000,num_1,0.5931302000244614,,20,15,2026-03-02_16h44.31.546,2026A_exp2,2022.2.4,59.94754590269487,
1,0,6.1,0.0,0,0,30,30,77,,,,,127.12341050000396,127.77422230000957,127.77422230000957,128.2585909999907,315,45,128.2585909999907,128.2585909999907,128.2585909999907,128.2585909999907,128.2585909999907,128.2585909999907,128.2585909999907,128.2585909999907,128.2585909999907,128.62510569998994,128.62510569998994,128.62510569998994,128.62510569998994,128.62510569998994,128.62510569998994,128.62510569998994,128.62510569998994,128.62510569998994,12,3,"[0.10022890000254847, 0.18372709999675862, 0.2836925000010524]","[0.1669339999789372, 0.20035729999653995, 0.3672053999907803]",128.62510569998994,128.82510760001605,6.1,128.82510760001605,1,6.1,1,1,1000,num_4,0.682265199982794,,20,15,2026-03-02_16h44.31.546,2026A_exp2,2022.2.4,59.94754590269487,
1000,1,3.7,6.1,1,0,31,31,43,,,,,129.5258323000162,130.17668510001386,130.17668510001386,130.66108310001437,45,45,130.66108310001437,130.66108310001437,130.66108310001437,130.66108310001437,130.66108310001437,130.66108310001437,130.66108310001437,130.66108310001437,130.66108310001437,131.02725330000976,131.02725330000976,131.02725330000976,131.02725330000976,131.02725330000976,131.02725330000976,131.02725330000976,131.02725330000976,131.02725330000976,0,1,[0.0012040000001434237],[0.3672237999853678],131.02725330000976,131.22928140001022,1000,131.22928140001022,1000,1000,1000,1000,1,num_2,0.5983324999979232,,20,15,2026-03-02_16h44.31.546,2026A_exp2,2022.2.4,59.94754590269487,
1000,1,4.9,0.0,0,0,32,32,37,,,,,131.84488980000606,132.49560560000828,132.49560560000828,132.97981869999785,45,45,132.97981869999785,132.97981869999785,132.97981869999785,132.97981869999785,132.97981869999785,132.97981869999785,132.97981869999785,132.97981869999785,132.97981869999785,133.34642700001132,133.34642700001132,133.34642700001132,133.34642700001132,133.34642700001132,133.34642700001132,133.34642700001132,133.34642700001132,133.34642700001132,0,1,[0.0012291000166442245],[0.36691199999768287],133.34642700001132,133.54888630000642,1000,133.54888630000642,1000,1000,1000,1000,0,num_3,0.36573680001311004,,20,15,2026-03-02_16h44.31.546,2026A_exp2,2022.2.4,59.94754590269487,
0,0,3.7,3.7,1,0,33,33,62,,,,,133.9304095999978,134.581050400011,134.581050400011,135.08219340001233,45,315,135.08219340001233,135.08219340001233,135.08219340001233,135.08219340001233,135.08219340001233,135.08219340001233,135.08219340001233,135.08219340001233,135.08219340001233,135.44855180001468,135.44855180001468,135.44855180001468,135.44855180001468,135.44855180001468,135.44855180001468,135.44855180001468,135.44855180001468,135.44855180001468,0,1,[0.0011952000204473734],[0.3670294000185095],135.44855180001468,135.64877790000173,3.7,135.64877790000173,0,3.7,1,0,1000,num_1,0.9469082999858074,,20,15,2026-03-02_16h44.31.546,2026A_exp2,2022.2.4,59.94754590269487,
1000,1,0.0,3.7,1,0,34,34,67,,,,,136.61627460000454,137.26688260000083,137.26688260000083,137.75135529998806,45,45,137.75135529998806,137.75135529998806,137.75135529998806,137.75135529998806,137.75135529998806,137.75135529998806,137.75135529998806,137.75135529998806,137.75135529998806,138.11783790000482,138.11783790000482,138.11783790000482,138.11783790000482,138.11783790000482,138.11783790000482,138.11783790000482,138.11783790000482,138.11783790000482,0,1,[0.0012005000025965273],[0.36709119999432005],138.11783790000482,138.3203160999983,1000,138.3203160999983,1000,1000,1000,1000,1,num_2,0.5552105999959167,,20,15,2026-03-02_16h44.31.546,2026A_exp2,2022.2.4,59.94754590269487,
1000,1,6.1,4.9,1,0,35,35,86,,,,,138.90209839999443,139.55262870001025,139.55262870001025,140.05365630000597,315,45,140.05365630000597,140.05365630000597,140.05365630000597,140.05365630000597,140.05365630000597,140.05365630000597,140.05365630000597,140.05365630000597,140.05365630000597,140.42021420001402,140.42021420001402,140.42021420001402,140.42021420001402,140.42021420001402,140.42021420001402,140.42021420001402,140.42021420001402,140.42021420001402,0,1,[0.0012273000029381365],[0.3671403000189457],140.42021420001402,140.62221490000957,1000,140.62221490000957,1000,1000,1000,1000,0,num_3,0.35638230000040494,,20,15,2026-03-02_16h44.31.546,2026A_exp2,2022.2.4,59.94754590269487,
0,0,6.1,6.1,1,0,36,36,48,,,,,141.00400630000513,141.65466379999998,141.65466379999998,142.15586739999708,315,45,142.15586739999708,142.15586739999708,142.15586739999708,142.15586739999708,142.15586739999708,142.15586739999708,142.15586739999708,142.15586739999708,142.15586739999708,142.5223413000058,142.5223413000058,142.5223413000058,142.5223413000058,142.5223413000058,142.5223413000058,142.5223413000058,142.5223413000058,142.5223413000058,0,1,[0.0012281000090297312],[0.3671673000208102],142.5223413000058,142.72252760000993,6.1,142.72252760000993,0,6.1,1,0,1000,num_1,1.1929003999975976,,20,15,2026-03-02_16h44.31.546,2026A_exp2,2022.2.4,59.94754590269487,
1,0,0.0,6.1,1,0,37,37,5,,,,,143.9404288000078,144.5910087999946,144.5910087999946,145.0754045000067,315,45,145.0754045000067,145.0754045000067,145.0754045000067,145.0754045000067,145.0754045000067,145.0754045000067,145.0754045000067,145.0754045000067,145.0754045000067,145.44188960001338,145.44188960001338,145.44188960001338,145.44188960001338,145.44188960001338,145.44188960001338,145.44188960001338,145.44188960001338,145.44188960001338,0,1,[0.0012510999804362655],[0.36715429998002946],145.44188960001338,145.64200910000363,6.1,145.64200910000363,1,6.1,1,1,1000,num_4,0.6170912999950815,,20,15,2026-03-02_16h44.31.546,2026A_exp2,2022.2.4,59.94754590269487,
1,0,6.1,3.7,1,0,38,38,16,,,,,146.275942200009,146.92682399999467,146.92682399999467,147.41114959999686,45,45,147.41114959999686,147.41114959999686,147.41114959999686,147.41114959999686,147.41114959999686,147.41114959999686,147.41114959999686,147.41114959999686,147.41114959999686,147.77747110000928,147.77747110000928,147.77747110000928,147.77747110000928,147.77747110000928,147.77747110000928,147.77747110000928,147.77747110000928,147.77747110000928,0,1,[0.0012304999982006848],[0.3672116999805439],147.77747110000928,147.9776442000002,3.7,147.9776442000002,0,3.7,1,0,1000,num_1,0.801895099983085,,20,15,2026-03-02_16h44.31.546,2026A_exp2,2022.2.4,59.94754590269487,
1,0,6.1,3.7,1,0,39,39,83,,,,,148.81173799998942,149.46255180001026,149.46255180001026,149.94694600001094,45,45,149.94694600001094,149.94694600001094,149.94694600001094,149.94694600001094,149.94694600001094,149.94694600001094,149.94694600001094,149.94694600001094,149.94694600001094,150.31346420000773,150.31346420000773,150.31346420000773,150.31346420000773,150.31346420000773,150.31346420000773,150.31346420000773,150.31346420000773,150.31346420000773,22,1,[0.03340250000474043],[0.050148500013165176],150.31346420000773,150.51342289999593,3.7,150.51342289999593,0,3.7,1,0,1000,num_1,0.5942714999837335,,20,15,2026-03-02_16h44.31.546,2026A_exp2,2022.2.4,59.94754590269487,
0,0,0.0,4.9,1,0,40,40,33,,,,,151.1307511999912,151.78124149999348,151.78124149999348,152.26597000000766,45,45,152.26597000000766,152.26597000000766,152.26597000000766,152.26597000000766,152.26597000000766,152.26597000000766,152.26597000000766,152.26597000000766,152.26597000000766,152.63243130000774,152.63243130000774,152.63243130000774,152.63243130000774,152.63243130000774,152.63243130000774,152.63243130000774,152.63243130000774,152.63243130000774,8,3,"[0.0011500999971758574, 0.20036349998554215, 0.2835975000052713]","[0.1669662999920547, 0.23365899999043904, 0.3504946999892127]",152.63243130000774,152.8324191000138,0.0,152.8324191000138,0,0.0,0,1,1000,num_1,0.6991378999955487,,20,15,2026-03-02_16h44.31.546,2026A_exp2,2022.2.4,59.94754590269487,
0,0,0.0,4.9,0,0,41,41,65,,,,,153.54989439999918,154.20065069998964,154.20065069998964,154.68490699998802,315,45,154.68490699998802,154.68490699998802,154.68490699998802,154.68490699998802,154.68490699998802,154.68490699998802,154.68490699998802,154.68490699998802,154.68490699998802,155.05151230000774,155.05151230000774,155.05151230000774,155.05151230000774,155.05151230000774,155.05151230000774,155.05151230000774,155.05151230000774,155.05151230000774,23,0,,,155.05151230000774,155.25150179999764,4.9,155.25150179999764,0,4.9,1,0,1000,num_1,0.5514280999777839,,20,15,2026-03-02_16h44.31.546,2026A_exp2,2022.2.4,59.94754590269487,
1000,1,0.0,4.9,1,0,42,42,57,,,,,155.81882809998933,156.46946930000558,156.46946930000558,156.95388630000525,45,45,156.95388630000525,156.95388630000525,156.95388630000525,156.95388630000525,156.95388630000525,156.95388630000525,156.95388630000525,156.95388630000525,156.95388630000525,157.32036770001287,157.32036770001287,157.32036770001287,157.32036770001287,157.32036770001287,157.32036770001287,157.32036770001287,157.32036770001287,157.32036770001287,8,2,"[0.001248300017323345, 0.30029600000125356]","[0.23340490000555292, 0.31708330000401475]",157.32036770001287,157.522618899995,1000,157.522618899995,1000,1000,1000,1000,1,num_2,0.6252465999859851,,20,15,2026-03-02_16h44.31.546,2026A_exp2,2022.2.4,59.94754590269487,
1000,1,6.1,6.1,1,0,43,43,53,,,,,158.17121560001397,158.82177680000314,158.82177680000314,159.32306389999576,45,45,159.32306389999576,159.32306389999576,159.32306389999576,159.32306389999576,159.32306389999576,159.32306389999576,159.32306389999576,159.32306389999576,159.32306389999576,159.6894619000086,159.6894619000086,159.6894619000086,159.6894619000086,159.6894619000086,159.6894619000086,159.6894619000086,159.6894619000086,159.6894619000086,23,0,,,159.6894619000086,159.89134309999645,1000,159.89134309999645,1000,1000,1000,1000,1,num_2,0.8233609999879263,,20,15,2026-03-02_16h44.31.546,2026A_exp2,2022.2.4,59.94754590269487,
1,0,4.9,4.9,0,0,44,44,28,,,,,160.74042730001383,161.39112089999253,161.39112089999253,161.8923180999991,315,315,161.8923180999991,161.8923180999991,161.8923180999991,161.8923180999991,161.8923180999991,161.8923180999991,161.8923180999991,161.8923180999991,161.8923180999991,162.25851630000398,162.25851630000398,162.25851630000398,162.25851630000398,162.25851630000398,162.25851630000398,162.25851630000398,162.25851630000398,162.25851630000398,0,1,[0.0012415999954100698],[0.3674938000040129],162.25851630000398,162.45890009999857,4.9,162.45890009999857,0,4.9,1,0,1000,num_1,1.6561095000070054,,20,15,2026-03-02_16h44.31.546,2026A_exp2,2022.2.4,59.94754590269487,
1,0,4.9,6.1,1,0,45,45,36,,,,,164.14378889999352,164.7779533000139,164.7779533000139,165.27885629999219,315,45,165.27885629999219,165.27885629999219,165.27885629999219,165.27885629999219,165.27885629999219,165.27885629999219,165.27885629999219,165.27885629999219,165.27885629999219,165.64527370000724,165.64527370000724,165.64527370000724,165.64527370000724,165.64527370000724,165.64527370000724,165.64527370000724,165.64527370000724,165.64527370000724,0,1,[0.001192399999126792],[0.36705200001597404],165.64527370000724,165.84567499998957,6.1,165.84567499998957,1,6.1,1,1,1000,num_4,0.5177972999808844,,20,15,2026-03-02_16h44.31.546,2026A_exp2,2022.2.4,59.94754590269487,
1000,1,0.0,0.0,1,0,46,46,44,,,,,166.38069449999603,167.03009290000773,167.03009290000773,167.53124219999881,315,45,167.53124219999881,167.53124219999881,167.53124219999881,167.53124219999881,167.53124219999881,167.53124219999881,167.53124219999881,167.53124219999881,167.53124219999881,167.89754209999228,167.89754209999228,167.89754209999228,167.89754209999228,167.89754209999228,167.89754209999228,167.89754209999228,167.89754209999228,167.89754209999228,0,1,[0.0009729999874252826],[0.36749889998463914],167.89754209999228,168.09957880000002,1000,168.09957880000002,1000,1000,1000,1000,0,num_3,1.0712510999874212,,20,15,2026-03-02_16h44.31.546,2026A_exp2,2022.2.4,59.94754590269487,
1,0,0.0,4.9,1,0,47,47,73,,,,,169.19990380000672,169.84968250000384,169.84968250000384,170.35063900001114,315,45,170.35063900001114,170.35063900001114,170.35063900001114,170.35063900001114,170.35063900001114,170.35063900001114,170.35063900001114,170.35063900001114,170.35063900001114,170.71717079999507,170.71717079999507,170.71717079999507,170.71717079999507,170.71717079999507,170.71717079999507,170.71717079999507,170.71717079999507,170.71717079999507,0,1,[0.001247400010470301],[0.3671108999988064],170.71717079999507,170.91720789999817,4.9,170.91720789999817,1,4.9,1,1,1000,num_4,2.1898404999810737,,20,15,2026-03-02_16h44.31.546,2026A_exp2,2022.2.4,59.94754590269487,
1,0,4.9,6.1,0,0,48,48,29,,,,,173.13620400000946,173.78689320001286,173.78689320001286,174.28787510000984,315,315,174.28787510000984,174.28787510000984,174.28787510000984,174.28787510000984,174.28787510000984,174.28787510000984,174.28787510000984,174.28787510000984,174.28787510000984,174.6542344999907,174.6542344999907,174.6542344999907,174.6542344999907,174.6542344999907,174.6542344999907,174.6542344999907,174.6542344999907,174.6542344999907,0,1,[0.0014801000070292503],[0.3667557000007946],174.6542344999907,174.85456700000213,4.9,174.85456700000213,1,4.9,1,1,1000,num_4,0.9720252999977674,,20,15,2026-03-02_16h44.31.546,2026A_exp2,2022.2.4,59.94754590269487,
1,0,0.0,4.9,1,0,49,49,41,,,,,175.85551950000809,176.50624839999364,176.50624839999364,177.00390720000723,315,315,177.00390720000723,177.00390720000723,177.00390720000723,177.00390720000723,177.00390720000723,177.00390720000723,177.00390720000723,177.00390720000723,177.00390720000723,177.35698730000877,177.35698730000877,177.35698730000877,177.35698730000877,177.35698730000877,177.35698730000877,177.35698730000877,177.35698730000877,177.35698730000877,0,1,[0.004140000004554167],[0.36435719998553395],177.35698730000877,177.55723639999633,4.9,177.55723639999633,1,4.9,1,1,1000,num_4,0.8133647000067867,,20,15,2026-03-02_16h44.31.546,2026A_exp2,2022.2.4,59.94754590269487,
1,0,0.0,3.7,0,0,50,50,76,,,,,178.39139800000703,179.0421767999942,179.0421767999942,179.53561359999003,45,315,179.53561359999003,179.53561359999003,179.53561359999003,179.53561359999003,179.53561359999003,179.53561359999003,179.53561359999003,179.53561359999003,179.53561359999003,179.89282100001583,179.89282100001583,179.89282100001583,179.89282100001583,179.89282100001583,179.89282100001583,179.89282100001583,179.89282100001583,179.89282100001583,0,1,[0.0038798000023234636],[0.36529119999613613],179.89282100001583,180.0932601999957,0.0,180.0932601999957,0,0.0,0,1,1000,num_1,1.1176748000143562,,20,15,2026-03-02_16h44.31.546,2026A_exp2,2022.2.4,59.94754590269487,
1000,1,3.7,0.0,1,0,51,51,78,,,,,181.22763290000148,181.87987740000244,181.87987740000244,182.37936890000128,45,45,182.37936890000128,182.37936890000128,182.37936890000128,182.37936890000128,182.37936890000128,182.37936890000128,182.37936890000128,182.37936890000128,182.37936890000128,182.7458534000034,182.7458534000034,182.7458534000034,182.7458534000034,182.7458534000034,182.7458534000034,182.7458534000034,182.7458534000034,182.7458534000034,0,1,[0.001257299998542294],[0.366949300019769],182.7458534000034,182.97860860000947,1000,182.97860860000947,1000,1000,1000,1000,0,num_3,0.7525272000057157,,20,15,2026-03-02_16h44.31.546,2026A_exp2,2022.2.4,59.94754590269487,
1,0,4.9,0.0,0,0,52,52,47,,,,,183.74681340000825,184.39738050001324,184.39738050001324,184.89846110000508,315,45,184.89846110000508,184.89846110000508,184.89846110000508,184.89846110000508,184.89846110000508,184.89846110000508,184.89846110000508,184.89846110000508,184.89846110000508,185.2650258000067,185.2650258000067,185.2650258000067,185.2650258000067,185.2650258000067,185.2650258000067,185.2650258000067,185.2650258000067,185.2650258000067,0,1,[0.0012849000049754977],[0.366800100018736],185.2650258000067,185.46502440000768,4.9,185.46502440000768,1,4.9,1,1,1000,num_4,0.7775403000123333,,20,15,2026-03-02_16h44.31.546,2026A_exp2,2022.2.4,59.94754590269487,
0,0,0.0,4.9,1,0,53,53,0,,,,,186.2659016000107,186.91674089999287,186.91674089999287,187.40109319999465,45,45,187.40109319999465,187.40109319999465,187.40109319999465,187.40109319999465,187.40109319999465,187.40109319999465,187.40109319999465,187.40109319999465,187.40109319999465,187.76736610001535,187.76736610001535,187.76736610001535,187.76736610001535,187.76736610001535,187.76736610001535,187.76736610001535,187.76736610001535,187.76736610001535,23,0,,,187.76736610001535,187.96773559998837,0.0,187.96773559998837,0,0.0,0,1,1000,num_1,1.2834843999880832,,20,15,2026-03-02_16h44.31.546,2026A_exp2,2022.2.4,59.94754590269487,
1000,1,3.7,0.0,0,0,54,54,55,,,,,189.26873810001416,189.90287739998894,189.90287739998894,190.4038300999964,45,315,190.4038300999964,190.4038300999964,190.4038300999964,190.4038300999964,190.4038300999964,190.4038300999964,190.4038300999964,190.4038300999964,190.4038300999964,190.77036860000226,190.77036860000226,190.77036860000226,190.77036860000226,190.77036860000226,190.77036860000226,190.77036860000226,190.77036860000226,190.77036860000226,0,1,[0.0012297999928705394],[0.36699089998728596],190.77036860000226,190.97247810001136,1000,190.97247810001136,1000,1000,1000,1000,0,num_3,0.4712164000084158,,20,15,2026-03-02_16h44.31.546,2026A_exp2,2022.2.4,59.94754590269487,
0,0,0.0,6.1,1,0,55,55,46,,,,,191.4711507000029,192.1218205000041,192.1218205000041,192.62288499998976,45,45,192.62288499998976,192.62288499998976,192.62288499998976,192.62288499998976,192.62288499998976,192.62288499998976,192.62288499998976,192.62288499998976,192.62288499998976,192.97255239999504,192.97255239999504,192.97255239999504,192.97255239999504,192.97255239999504,192.97255239999504,192.97255239999504,192.97255239999504,192.97255239999504,0,1,[0.0012517999857664108],[0.3506907999981195],192.97255239999504,193.17287509999005,0.0,193.1894076000026,0,0.0,0,1,1000,num_1,1.5980356999789365,,20,15,2026-03-02_16h44.31.546,2026A_exp2,2022.2.4,59.94754590269487,
1,0,6.1,0.0,1,0,56,56,17,,,,,194.807804400014,195.4584257999959,195.4584257999959,195.94299219999812,315,315,195.94299219999812,195.94299219999812,195.94299219999812,195.94299219999812,195.94299219999812,195.94299219999812,195.94299219999812,195.94299219999812,195.94299219999812,196.30937189998804,196.30937189998804,196.30937189998804,196.30937189998804,196.30937189998804,196.30937189998804,196.30937189998804,196.30937189998804,196.30937189998804,0,1,[0.0012098000152036548],[0.36715239999466576],196.30937189998804,196.50954709999496,0.0,196.50954709999496,0,0.0,0,1,1000,num_1,1.1494317000033334,,20,15,2026-03-02_16h44.31.546,2026A_exp2,2022.2.4,59.94754590269487,
1,0,0.0,0.0,0,0,57,57,39,,,,,197.67728299999726,198.3280672999972,198.3280672999972,198.81252760000643,315,315,198.81252760000643,198.81252760000643,198.81252760000643,198.81252760000643,198.81252760000643,198.81252760000643,198.81252760000643,198.81252760000643,198.81252760000643,199.17896779999137,199.17896779999137,199.17896779999137,199.17896779999137,199.17896779999137,199.17896779999137,199.17896779999137,199.17896779999137,199.17896779999137,0,1,[0.0012531999964267015],[0.36700879997806624],199.17896779999137,199.37915630001226,0.0,199.37915630001226,1,0.0,0,0,1000,num_4,1.3997511999914423,,20,15,2026-03-02_16h44.31.546,2026A_exp2,2022.2.4,59.94754590269487,
1000,1,3.7,3.7,1,0,58,58,54,,,,,200.79734729998745,201.4477295000106,201.4477295000106,201.93216590001248,45,45,201.93216590001248,201.93216590001248,201.93216590001248,201.93216590001248,201.93216590001248,201.93216590001248,201.93216590001248,201.93216590001248,201.93216590001248,202.29826999999932,202.29826999999932,202.29826999999932,202.29826999999932,202.29826999999932,202.29826999999932,202.29826999999932,202.29826999999932,202.29826999999932,6,3,"[0.03337140000076033, 0.10013949999120086, 0.15017599999555387]","[0.066693699976895, 0.11674689999199472, 0.3665481999923941]",202.29826999999932,202.50084170000628,1000,202.50084170000628,1000,1000,1000,1000,1,num_2,0.5751146000111476,,20,15,2026-03-02_16h44.31.546,2026A_exp2,2022.2.4,59.94754590269487,
1,0,3.7,3.7,0,0,59,59,8,,,,,203.09956920001423,203.75013669999316,203.75013669999316,204.25117699999828,315,315,204.25117699999828,204.25117699999828,204.25117699999828,204.25117699999828,204.25117699999828,204.25117699999828,204.25117699999828,204.25117699999828,204.25117699999828,204.61762959999032,204.61762959999032,204.61762959999032,204.61762959999032,204.61762959999032,204.61762959999032,204.61762959999032,204.61762959999032,204.61762959999032,0,1,[0.0012206000101286918],[0.36713920001056977],204.61762959999032,204.81775670000934,3.7,204.81775670000934,0,3.7,1,0,1000,num_1,0.7295126999961212,,20,15,2026-03-02_16h44.31.546,2026A_exp2,2022.2.4,59.94754590269487,
1000,1,0.0,0.0,0,0,60,60,13,,,,,205.56842650001636,206.21920530000352,206.21920530000352,206.70377349999035,45,45,206.70377349999035,206.70377349999035,206.70377349999035,206.70377349999035,206.70377349999035,206.70377349999035,206.70377349999035,206.70377349999035,206.70377349999035,207.07016199998907,207.07016199998907,207.07016199998907,207.07016199998907,207.07016199998907,207.07016199998907,207.07016199998907,207.07016199998907,207.07016199998907,3,1,[0.03360100000281818],[0.367252100026235],207.07016199998907,207.27268620001269,1000,207.27268620001269,1000,1000,1000,1000,1,num_2,0.4745671999990009,,20,15,2026-03-02_16h44.31.546,2026A_exp2,2022.2.4,59.94754590269487,
1000,1,0.0,6.1,0,0,61,61,27,,,,,207.7707684999914,208.4214559000102,208.4214559000102,208.9226406000089,315,45,208.9226406000089,208.9226406000089,208.9226406000089,208.9226406000089,208.9226406000089,208.9226406000089,208.9226406000089,208.9226406000089,208.9226406000089,209.28898680000566,209.28898680000566,209.28898680000566,209.28898680000566,209.28898680000566,209.28898680000566,209.28898680000566,209.28898680000566,209.28898680000566,23,0,,,209.28898680000566,209.48900709999725,1000,209.48900709999725,1000,1000,1000,1000,1,num_2,0.4579360999923665,,20,15,2026-03-02_16h44.31.546,2026A_exp2,2022.2.4,59.94754590269487,
1000,1,4.9,0.0,0,0,62,62,45,,,,,209.97657289999188,210.62357950001024,210.62357950001024,211.12476700000116,315,45,211.12476700000116,211.12476700000116,211.12476700000116,211.12476700000116,211.12476700000116,211.12476700000116,211.12476700000116,211.12476700000116,211.12476700000116,211.4912796000135,211.4912796000135,211.4912796000135,211.4912796000135,211.4912796000135,211.4912796000135,211.4912796000135,211.4912796000135,211.4912796000135,0,1,[0.001676099986070767],[0.36739810000290163],211.4912796000135,211.69133470000816,1000,211.69133470000816,1000,1000,1000,1000,0,num_3,0.37636140000540763,,20,15,2026-03-02_16h44.31.546,2026A_exp2,2022.2.4,59.94754590269487,
1000,1,0.0,0.0,1,0,63,63,34,,,,,212.09181300000637,212.74249169998802,212.74249169998802,213.2434954000055,315,315,213.2434954000055,213.2434954000055,213.2434954000055,213.2434954000055,213.2434954000055,213.2434954000055,213.2434954000055,213.2434954000055,213.2434954000055,213.60996150001301,213.60996150001301,213.60996150001301,213.60996150001301,213.60996150001301,213.60996150001301,213.60996150001301,213.60996150001301,213.60996150001301,0,1,[0.001193900010548532],[0.36722340001142584],213.60996150001301,213.8121805000119,1000,213.8121805000119,1000,1000,1000,1000,0,num_3,0.6074168999912217,,20,15,2026-03-02_16h44.31.546,2026A_exp2,2022.2.4,59.94754590269487,
1,0,3.7,0.0,0,0,64,64,9,,,,,214.4443653000053,215.09480940000503,215.09480940000503,215.57921610001358,45,315,215.57921610001358,215.57921610001358,215.57921610001358,215.57921610001358,215.57921610001358,215.57921610001358,215.57921610001358,215.57921610001358,215.57921610001358,215.9452811999945,215.9452811999945,215.9452811999945,215.9452811999945,215.9452811999945,215.9452811999945,215.9452811999945,215.9452811999945,215.9452811999945,1,2,"[0.0012428000045474619, 0.21700350000173785]","[0.20022509997943416, 0.3671396999852732]",215.9452811999945,216.14938119999715,3.7,216.14938119999715,1,3.7,1,1,1000,num_4,0.6300769000081345,,20,15,2026-03-02_16h44.31.546,2026A_exp2,2022.2.4,59.94754590269487,
1,0,0.0,3.7,0,0,65,65,31,,,,,216.7963538999902,217.44721949999803,217.44721949999803,217.93163860001368,315,315,217.93163860001368,217.93163860001368,217.93163860001368,217.93163860001368,217.93163860001368,217.93163860001368,217.93163860001368,217.93163860001368,217.93163860001368,218.2980710999982,218.2980710999982,218.2980710999982,218.2980710999982,218.2980710999982,218.2980710999982,218.2980710999982,218.2980710999982,218.2980710999982,0,1,[0.001415100006852299],[0.3670032999943942],218.2980710999982,218.49817360000452,0.0,218.49817360000452,0,0.0,0,1,1000,num_1,1.065213699999731,,20,15,2026-03-02_16h44.31.546,2026A_exp2,2022.2.4,59.94754590269487,
1000,1,6.1,4.9,1,0,66,66,15,,,,,219.58267510001315,220.21659930000897,220.21659930000897,220.7175205000094,45,45,220.7175205000094,220.7175205000094,220.7175205000094,220.7175205000094,220.7175205000094,220.7175205000094,220.7175205000094,220.7175205000094,220.7175205000094,221.08405520001543,221.08405520001543,221.08405520001543,221.08405520001543,221.08405520001543,221.08405520001543,221.08405520001543,221.08405520001543,221.08405520001543,0,1,[0.0008478999952785671],[0.36739279999164864],221.08405520001543,221.28630030000932,1000,221.28630030000932,1000,1000,1000,1000,0,num_3,0.3805231000005733,,20,15,2026-03-02_16h44.31.546,2026A_exp2,2022.2.4,59.94754590269487,
1000,1,6.1,6.1,0,0,67,67,87,,,,,221.68474150000839,222.33536420000019,222.33536420000019,222.83638530000462,315,45,222.83638530000462,222.83638530000462,222.83638530000462,222.83638530000462,222.83638530000462,222.83638530000462,222.83638530000462,222.83638530000462,222.83638530000462,223.20297549999668,223.20297549999668,223.20297549999668,223.20297549999668,223.20297549999668,223.20297549999668,223.20297549999668,223.20297549999668,223.20297549999668,0,1,[0.0014338000037241727],[0.36707349997595884],223.20297549999668,223.4053411000059,1000,223.4053411000059,1000,1000,1000,1000,1,num_2,0.5416016999806743,,20,15,2026-03-02_16h44.31.546,2026A_exp2,2022.2.4,59.94754590269487,
1,0,0.0,0.0,0,0,68,68,11,,,,,223.9703479000018,224.6210676000046,224.6210676000046,225.12209730001632,45,315,225.12209730001632,225.12209730001632,225.12209730001632,225.12209730001632,225.12209730001632,225.12209730001632,225.12209730001632,225.12209730001632,225.12209730001632,225.4885221000004,225.4885221000004,225.4885221000004,225.4885221000004,225.4885221000004,225.4885221000004,225.4885221000004,225.4885221000004,225.4885221000004,0,1,[0.0012384000001475215],[0.3670355000067502],225.4885221000004,225.68877330000396,0.0,225.68877330000396,1,0.0,0,0,1000,num_4,0.6985636999888811,,20,15,2026-03-02_16h44.31.546,2026A_exp2,2022.2.4,59.94754590269487,
0,0,4.9,6.1,1,0,69,69,70,,,,,226.40599890000885,227.04007190000266,227.04007190000266,227.54125810001278,45,45,227.54125810001278,227.54125810001278,227.54125810001278,227.54125810001278,227.54125810001278,227.54125810001278,227.54125810001278,227.54125810001278,227.54125810001278,227.90764210000634,227.90764210000634,227.90764210000634,227.90764210000634,227.90764210000634,227.90764210000634,227.90764210000634,227.90764210000634,227.90764210000634,23,0,,,227.90764210000634,228.10788930000854,4.9,228.10788930000854,0,4.9,1,0,1000,num_1,0.7193625000072643,,20,15,2026-03-02_16h44.31.546,2026A_exp2,2022.2.4,59.94754590269487,
1,0,3.7,3.7,0,0,70,70,60,,,,,228.85851799999364,229.509324499988,229.509324499988,229.99350949999643,45,45,229.99350949999643,229.99350949999643,229.99350949999643,229.99350949999643,229.99350949999643,229.99350949999643,229.99350949999643,229.99350949999643,229.99350949999643,230.36007419999805,230.36007419999805,230.36007419999805,230.36007419999805,230.36007419999805,230.36007419999805,230.36007419999805,230.36007419999805,230.36007419999805,0,1,[0.0012353000056464225],[0.3674976000038441],230.36007419999805,230.56032520000008,3.7,230.56032520000008,0,3.7,1,0,1000,num_1,1.034056500007864,,20,15,2026-03-02_16h44.31.546,2026A_exp2,2022.2.4,59.94754590269487,
1000,1,3.7,4.9,0,0,71,71,25,,,,,231.61126999999397,232.26201350000338,232.26201350000338,232.74643560001277,315,315,232.74643560001277,232.74643560001277,232.74643560001277,232.74643560001277,232.74643560001277,232.74643560001277,232.74643560001277,232.74643560001277,232.74643560001277,233.11274909999338,233.11274909999338,233.11274909999338,233.11274909999338,233.11274909999338,233.11274909999338,233.11274909999338,233.11274909999338,233.11274909999338,8,1,[0.13356410001870245],[0.3671381000021938],233.11274909999338,233.3147952000145,1000,233.3147952000145,1000,1000,1000,1000,1,num_2,0.49641069999779575,,20,15,2026-03-02_16h44.31.546,2026A_exp2,2022.2.4,59.94754590269487,
1000,1,4.9,3.7,0,0,72,72,40,,,,,233.83015359999263,234.4808953999891,234.4808953999891,234.98198760001105,45,315,234.98198760001105,234.98198760001105,234.98198760001105,234.98198760001105,234.98198760001105,234.98198760001105,234.98198760001105,234.98198760001105,234.98198760001105,235.3484388999932,235.3484388999932,235.3484388999932,235.3484388999932,235.3484388999932,235.3484388999932,235.3484388999932,235.3484388999932,235.3484388999932,9,2,"[0.0012015000102110207, 0.28304549999302253]","[0.21659419999923557, 0.2999875000095926]",235.3484388999932,235.5506977000041,1000,235.5506977000041,1000,1000,1000,1000,0,num_3,0.428937999997288,,20,15,2026-03-02_16h44.31.546,2026A_exp2,2022.2.4,59.94754590269487,
0,0,0.0,0.0,1,0,73,73,80,,,,,235.99896220001392,236.64971289999085,236.64971289999085,237.1506253000116,315,315,237.1506253000116,237.1506253000116,237.1506253000116,237.1506253000116,237.1506253000116,237.1506253000116,237.1506253000116,237.1506253000116,237.1506253000116,237.51729190000333,237.51729190000333,237.51729190000333,237.51729190000333,237.51729190000333,237.51729190000333,237.51729190000333,237.51729190000333,237.51729190000333,0,1,[0.0012143999920226634],[0.3670902000158094],237.51729190000333,237.7174434000044,0.0,237.7174434000044,0,0.0,0,1,1000,num_1,0.8624882000149228,,20,15,2026-03-02_16h44.31.546,2026A_exp2,2022.2.4,59.94754590269487,
1,0,0.0,3.7,1,0,74,74,30,,,,,238.6015788000077,239.25226820001262,239.25226820001262,239.73668950001593,45,45,239.73668950001593,239.73668950001593,239.73668950001593,239.73668950001593,239.73668950001593,239.73668950001593,239.73668950001593,239.73668950001593,239.73668950001593,240.10319359999266,240.10319359999266,240.10319359999266,240.10319359999266,240.10319359999266,240.10319359999266,240.10319359999266,240.10319359999266,240.10319359999266,0,1,[0.0012418999976944178],[0.36687959998380393],240.10319359999266,240.3032024000131,3.7,240.3032024000131,1,3.7,1,1,1000,num_4,0.6837962999998126,,20,15,2026-03-02_16h44.31.546,2026A_exp2,2022.2.4,59.94754590269487,
1000,1,0.0,0.0,1,0,75,75,63,,,,,241.00409780000336,241.65471870001056,241.65471870001056,242.1390944000159,45,45,242.1390944000159,242.1390944000159,242.1390944000159,242.1390944000159,242.1390944000159,242.1390944000159,242.1390944000159,242.1390944000159,242.1390944000159,242.50543359998846,242.50543359998846,242.50543359998846,242.50543359998846,242.50543359998846,242.50543359998846,242.50543359998846,242.50543359998846,242.50543359998846,23,0,,,242.50543359998846,242.70792059999076,1000,242.70792059999076,1000,1000,1000,1000,0,num_3,0.49566660000709817,,20,15,2026-03-02_16h44.31.546,2026A_exp2,2022.2.4,59.94754590269487,
1000,1,4.9,0.0,0,0,76,76,12,,,,,243.22300610001548,243.8735077000165,243.8735077000165,244.37469890000648,45,45,244.37469890000648,244.37469890000648,244.37469890000648,244.37469890000648,244.37469890000648,244.37469890000648,244.37469890000648,244.37469890000648,244.37469890000648,244.74111599999014,244.74111599999014,244.74111599999014,244.74111599999014,244.74111599999014,244.74111599999014,244.74111599999014,244.74111599999014,244.74111599999014,8,1,[0.13351330001023598],[0.367130200000247],244.74111599999014,244.94391550001455,1000,244.94391550001455,1000,1000,1000,1000,0,num_3,0.4268920000176877,,20,15,2026-03-02_16h44.31.546,2026A_exp2,2022.2.4,59.94754590269487,
1000,1,0.0,0.0,1,0,77,77,88,,,,,245.39190119999694,246.042486499995,246.042486499995,246.54319699999178,315,45,246.54319699999178,246.54319699999178,246.54319699999178,246.54319699999178,246.54319699999178,246.54319699999178,246.54319699999178,246.54319699999178,246.54319699999178,246.90985389999696,246.90985389999696,246.90985389999696,246.90985389999696,246.90985389999696,246.90985389999696,246.90985389999696,246.90985389999696,246.90985389999696,0,1,[0.0007446000236086547],[0.367433900013566],246.90985389999696,247.11025269998936,1000,247.11025269998936,1000,1000,1000,1000,1,num_2,0.637220000004163,,20,15,2026-03-02_16h44.31.546,2026A_exp2,2022.2.4,59.94754590269487,
1,0,0.0,3.7,0,0,78,78,64,,,,,247.77782580000348,248.42812490000506,248.42812490000506,248.9292109000089,45,45,248.9292109000089,248.9292109000089,248.9292109000089,248.9292109000089,248.9292109000089,248.9292109000089,248.9292109000089,248.9292109000089,248.9292109000089,249.27906050000456,249.27906050000456,249.27906050000456,249.27906050000456,249.27906050000456,249.27906050000456,249.27906050000456,249.27906050000456,249.27906050000456,1,2,"[0.0012377999955788255, 0.15014809998683631]","[0.13352689999737777, 0.3504008000018075]",249.27906050000456,249.47922010000912,0.0,249.47922010000912,1,0.0,0,0,1000,num_4,1.1876335999986622,,20,15,2026-03-02_16h44.31.546,2026A_exp2,2022.2.4,59.94754590269487,
1000,1,6.1,0.0,0,0,79,79,69,,,,,250.6972117999976,251.34771920001367,251.34771920001367,251.83207790000597,45,315,251.83207790000597,251.83207790000597,251.83207790000597,251.83207790000597,251.83207790000597,251.83207790000597,251.83207790000597,251.83207790000597,251.83207790000597,252.1985674999887,252.1985674999887,252.1985674999887,252.1985674999887,252.1985674999887,252.1985674999887,252.1985674999887,252.1985674999887,252.1985674999887,0,1,[0.001246999978320673],[0.3672472999896854],252.1985674999887,252.39985360001447,1000,252.39985360001447,1000,1000,1000,1000,0,num_3,0.38670689999707974,,20,15,2026-03-02_16h44.31.546,2026A_exp2,2022.2.4,59.94754590269487,
0,0,6.1,4.9,1,0,80,80,42,,,,,252.81593529999373,253.4666538000165,253.4666538000165,253.95097979999264,315,45,253.95097979999264,253.95097979999264,253.95097979999264,253.95097979999264,253.95097979999264,253.95097979999264,253.95097979999264,253.95097979999264,253.95097979999264,254.31746349998866,254.31746349998866,254.31746349998866,254.31746349998866,254.31746349998866,254.31746349998866,254.31746349998866,254.31746349998866,254.31746349998866,0,1,[0.0012180999910924584],[0.3671001000038814],254.31746349998866,254.51748169999337,6.1,254.51748169999337,1,6.1,1,1,1000,num_4,0.9570624000043608,,20,15,2026-03-02_16h44.31.546,2026A_exp2,2022.2.4,59.94754590269487,
1,0,0.0,0.0,0,0,81,81,6,,,,,255.50199260000954,256.1609768999915,256.1609768999915,256.6370021000039,45,315,256.6370021000039,256.6370021000039,256.6370021000039,256.6370021000039,256.6370021000039,256.6370021000039,256.6370021000039,256.6370021000039,256.6370021000039,257.0034635000047,257.0034635000047,257.0034635000047,257.0034635000047,257.0034635000047,257.0034635000047,257.0034635000047,257.0034635000047,257.0034635000047,0,1,[0.001201300008688122],[0.36723499998333864],257.0034635000047,257.2034954999981,0.0,257.2034954999981,0,0.0,0,1,1000,num_1,0.7030821999942418,,20,15,2026-03-02_16h44.31.546,2026A_exp2,2022.2.4,59.94754590269487,
1000,1,3.7,0.0,1,0,82,82,38,,,,,257.922831200005,258.5716842999973,258.5716842999973,259.07768630000646,45,315,259.07768630000646,259.07768630000646,259.07768630000646,259.07768630000646,259.07768630000646,259.07768630000646,259.07768630000646,259.07768630000646,259.07768630000646,259.4391602000105,259.4391602000105,259.4391602000105,259.4391602000105,259.4391602000105,259.4391602000105,259.4391602000105,259.4391602000105,259.4391602000105,2,2,"[0.0025422999751754105, 0.18215009997948073]","[0.14868729998124763, 0.3655956999864429]",259.4391602000105,259.666341300006,1000,259.666341300006,1000,1000,1000,1000,0,num_3,0.45681600001989864,,20,15,2026-03-02_16h44.31.546,2026A_exp2,2022.2.4,59.94754590269487,
1,0,4.9,4.9,1,0,83,83,18,,,,,260.13999440000043,260.7903895000054,260.7903895000054,261.29161600000225,45,45,261.29161600000225,261.29161600000225,261.29161600000225,261.29161600000225,261.29161600000225,261.29161600000225,261.29161600000225,261.29161600000225,261.29161600000225,261.65802090000943,261.65802090000943,261.65802090000943,261.65802090000943,261.65802090000943,261.65802090000943,261.65802090000943,261.65802090000943,261.65802090000943,10,6,"[0.017385900020599365, 0.05015830000047572, 0.0836552000255324, 0.21707470002002083, 0.30071480001788586, 0.3335485000279732]","[0.033575200010091066, 0.066745100019034, 0.2003065000171773, 0.23373110001557507, 0.31693460000678897, 0.36713940001209266]",261.65802090000943,261.87223929999163,4.9,261.87223929999163,0,4.9,1,0,1000,num_1,0.6668785000219941,,20,15,2026-03-02_16h44.31.546,2026A_exp2,2022.2.4,59.94754590269487,
1000,1,3.7,0.0,1,0,84,84,52,,,,,262.5590224000043,263.20963180001127,263.20963180001127,263.7106643000152,45,315,263.7106643000152,263.7106643000152,263.7106643000152,263.7106643000152,263.7106643000152,263.7106643000152,263.7106643000152,263.7106643000152,263.7106643000152,264.0604939000041,264.0604939000041,264.0604939000041,264.0604939000041,264.0604939000041,264.0604939000041,264.0604939000041,264.0604939000041,264.0604939000041,2,3,"[0.0010000000183936208, 0.1689609000168275, 0.285674700018717]","[0.152348500007065, 0.2689890000037849, 0.35227380000287667]",264.0604939000041,264.27702100001625,1000,264.27702100001625,1000,1000,1000,1000,0,num_3,0.47036629999638535,,20,15,2026-03-02_16h44.31.546,2026A_exp2,2022.2.4,59.94754590269487,
1000,1,0.0,3.7,1,0,85,85,1,,,,,264.7779750000045,265.4285280999902,265.4285280999902,265.9291760000051,45,315,265.9291760000051,265.9291760000051,265.9291760000051,265.9291760000051,265.9291760000051,265.9291760000051,265.9291760000051,265.9291760000051,265.9291760000051,266.2962186000077,266.2962186000077,266.2962186000077,266.2962186000077,266.2962186000077,266.2962186000077,266.2962186000077,266.2962186000077,266.2962186000077,0,1,[0.004142799996770918],[0.38192939999862574],266.2962186000077,266.50838849999127,1000,266.50838849999127,1000,1000,1000,1000,1,num_2,0.44675639999331906,,20,15,2026-03-02_16h44.31.546,2026A_exp2,2022.2.4,59.94754590269487,
1,0,6.1,6.1,1,0,86,86,49,,,,,266.9800355999905,267.6307880000095,267.6307880000095,268.1318320000137,45,45,268.1318320000137,268.1318320000137,268.1318320000137,268.1318320000137,268.1318320000137,268.1318320000137,268.1318320000137,268.1318320000137,268.1318320000137,268.49824340001214,268.49824340001214,268.49824340001214,268.49824340001214,268.49824340001214,268.49824340001214,268.49824340001214,268.49824340001214,268.49824340001214,0,1,[0.001189000002341345],[0.36718220001785085],268.49824340001214,268.6983288000047,6.1,268.6983288000047,0,6.1,1,0,1000,num_1,0.601089999981923,,20,15,2026-03-02_16h44.31.546,2026A_exp2,2022.2.4,59.94754590269487,
1000,1,0.0,0.0,1,0,87,87,68,,,,,269.31573400000343,269.96632969999337,269.96632969999337,270.4506931999931,315,45,270.4506931999931,270.4506931999931,270.4506931999931,270.4506931999931,270.4506931999931,270.4506931999931,270.4506931999931,270.4506931999931,270.4506931999931,270.8172065000108,270.8172065000108,270.8172065000108,270.8172065000108,270.8172065000108,270.8172065000108,270.8172065000108,270.8172065000108,270.8172065000108,0,1,[0.001383300026645884],[0.3667983000050299],270.8172065000108,271.01916060000076,1000,271.01916060000076,1000,1000,1000,1000,0,num_3,0.527933099976508,,20,15,2026-03-02_16h44.31.546,2026A_exp2,2022.2.4,59.94754590269487,
1,0,3.7,0.0,0,0,88,88,10,,,,,271.5678756000125,272.2185981000075,272.2185981000075,272.71975740001653,315,315,272.71975740001653,272.71975740001653,272.71975740001653,272.71975740001653,272.71975740001653,272.71975740001653,272.71975740001653,272.71975740001653,272.71975740001653,273.08618829998886,273.08618829998886,273.08618829998886,273.08618829998886,273.08618829998886,273.08618829998886,273.08618829998886,273.08618829998886,273.08618829998886,0,1,[0.001197300007333979],[0.3672540000115987],273.08618829998886,273.2863448999997,3.7,273.2863448999997,1,3.7,1,1,1000,num_4,0.6132552000053693,,20,15,2026-03-02_16h44.31.546,2026A_exp2,2022.2.4,59.94754590269487,
1,0,0.0,0.0,0,0,89,89,32,,,,,273.9204005000065,274.56341910001356,274.56341910001356,275.05541160001303,315,315,275.05541160001303,275.05541160001303,275.05541160001303,275.05541160001303,275.05541160001303,275.05541160001303,275.05541160001303,275.05541160001303,275.05541160001303,275.42182799999136,275.42182799999136,275.42182799999136,275.42182799999136,275.42182799999136,275.42182799999136,275.42182799999136,275.42182799999136,275.42182799999136,0,1,[0.0012035999970976263],[0.3670834999938961],275.42182799999136,275.62223509998876,0.0,275.62223509998876,1,0.0,0,0,1000,num_4,0.9722345999907702,,20,15,2026-03-02_16h44.31.546,2026A_exp2,2022.2.4,59.94754590269487,
,,,,,,,,,,,,,,,,,,,,,,,,,,,,,,,,,,,,,,,,,,,,,,,,,,,,276.6568736000045,,,,,,,
