validity,detectorcomp,contrastCW,contrastCCW,precueCWorCCW,block_80trials.thisRepN,block_80trials.thisTrialN,block_80trials.thisN,block_80trials.thisIndex,etRecord.started,etRecord.stopped,text.started,text.stopped,text_4.started,text_4.stopped,text_6.started,text_6.stopped,oriCW,oriCCW,roi_2.started,grating_UR.started,grating_UL.started,grating_LR.started,grating_LL.started,noise_UR.started,noise_UL.started,noise_LR.started,noise_LL.started,roi_2.stopped,grating_UR.stopped,grating_UL.stopped,grating_LR.stopped,grating_LL.stopped,noise_UR.stopped,noise_UL.stopped,noise_LR.stopped,noise_LL.stopped,outframe,roi_2.numLooks,roi_2.timesOn,roi_2.timesOff,text_2.started,text_2.stopped,probedcontrast,key_resp.started,respdetect,relevantContrast,correctDetect,TorFdetect,respCWorCCW,key_resp.keys,key_resp.rt,feedback_display_.started,participantNo,blockNo,date,expName,psychopyVersion,frameRate,
1,0,0.0,0.0,1,0,0,0,60,4.610000178217888e-05,4.610000178217888e-05,45.69120380003005,47.69765099999495,47.69765099999495,48.34307510009967,48.34307510009967,48.863334900001064,315,45,48.863334900001064,48.863334900001064,48.863334900001064,48.863334900001064,48.863334900001064,48.863334900001064,48.863334900001064,48.863334900001064,48.863334900001064,49.21079559996724,49.21079559996724,49.21079559996724,49.21079559996724,49.21079559996724,49.21079559996724,49.21079559996724,49.21079559996724,49.21079559996724,0,1,[0.000933599891141057],[0.3677613998297602],49.21079559996724,49.41103109996766,0.0,49.41103109996766,0,0.0,0,1,1000,num_1,0.9879050997551531,,34,14,2026-03-13_11h18.41.764,2026A_exp2,2022.2.4,59.81140269723851,
1,0,4.9,0.0,1,0,1,1,52,,,,,50.42874890007079,51.079094199929386,51.079094199929386,51.56375339999795,315,45,51.56375339999795,51.56375339999795,51.56375339999795,51.56375339999795,51.56375339999795,51.56375339999795,51.56375339999795,51.56375339999795,51.56375339999795,51.93018479994498,51.93018479994498,51.93018479994498,51.93018479994498,51.93018479994498,51.93018479994498,51.93018479994498,51.93018479994498,51.93018479994498,0,1,[0.0012101000174880028],[0.3671510999556631],51.93018479994498,52.13022530009039,0.0,52.13022530009039,0,0.0,0,1,1000,num_1,1.0125696000177413,,34,14,2026-03-13_11h18.41.764,2026A_exp2,2022.2.4,59.81140269723851,
1000,1,4.9,4.9,0,0,2,2,36,,,,,53.16447930014692,53.81537640001625,53.81537640001625,54.299766100011766,315,45,54.299766100011766,54.299766100011766,54.299766100011766,54.299766100011766,54.299766100011766,54.299766100011766,54.299766100011766,54.299766100011766,54.299766100011766,54.66623180010356,54.66623180010356,54.66623180010356,54.66623180010356,54.66623180010356,54.66623180010356,54.66623180010356,54.66623180010356,54.66623180010356,0,1,[0.0012742001563310623],[0.36700300010852516],54.66623180010356,54.871494099963456,1000,54.871494099963456,1000,1000,1000,1000,1,num_2,0.7913670998532325,,34,14,2026-03-13_11h18.41.764,2026A_exp2,2022.2.4,59.81140269723851,
1,0,0.0,0.0,1,0,3,3,66,,,,,55.6839336999692,56.34262110013515,56.34262110013515,56.83566650003195,315,45,56.83566650003195,56.83566650003195,56.83566650003195,56.83566650003195,56.83566650003195,56.83566650003195,56.83566650003195,56.83566650003195,56.83566650003195,57.202293100068346,57.202293100068346,57.202293100068346,57.202293100068346,57.202293100068346,57.202293100068346,57.202293100068346,57.202293100068346,57.202293100068346,0,1,[0.0007674000225961208],[0.36667020013555884],57.202293100068346,57.40245830011554,0.0,57.40245830011554,0,0.0,0,1,1000,num_1,0.548915799940005,,34,14,2026-03-13_11h18.41.764,2026A_exp2,2022.2.4,59.81140269723851,
1000,1,4.9,4.9,0,0,4,4,6,,,,,57.969225300010294,58.603552900021896,58.603552900021896,59.10462970007211,315,315,59.10462970007211,59.10462970007211,59.10462970007211,59.10462970007211,59.10462970007211,59.10462970007211,59.10462970007211,59.10462970007211,59.10462970007211,59.470989499939606,59.470989499939606,59.470989499939606,59.470989499939606,59.470989499939606,59.470989499939606,59.470989499939606,59.470989499939606,59.470989499939606,0,1,[0.001209199894219637],[0.36674259998835623],59.470989499939606,59.672848500078544,1000,59.672848500078544,1000,1000,1000,1000,1,num_2,0.6554113000165671,,34,14,2026-03-13_11h18.41.764,2026A_exp2,2022.2.4,59.81140269723851,
1000,1,0.0,3.7,1,0,5,5,81,,,,,60.35531709995121,61.00594669999555,61.00594669999555,61.50690590008162,315,45,61.50690590008162,61.50690590008162,61.50690590008162,61.50690590008162,61.50690590008162,61.50690590008162,61.50690590008162,61.50690590008162,61.50690590008162,61.873524399939924,61.873524399939924,61.873524399939924,61.873524399939924,61.873524399939924,61.873524399939924,61.873524399939924,61.873524399939924,61.873524399939924,0,1,[0.0013214999344199896],[0.3672690000385046],61.873524399939924,62.075856500072405,1000,62.075856500072405,1000,1000,1000,1000,1,num_2,0.4831699999049306,,34,14,2026-03-13_11h18.41.764,2026A_exp2,2022.2.4,59.81140269723851,
1000,1,0.0,0.0,1,0,6,6,78,,,,,62.57405880000442,63.2247504000552,63.2247504000552,63.72588620008901,45,315,63.72588620008901,63.72588620008901,63.72588620008901,63.72588620008901,63.72588620008901,63.72588620008901,63.72588620008901,63.72588620008901,63.72588620008901,64.09232460008934,64.09232460008934,64.09232460008934,64.09232460008934,64.09232460008934,64.09232460008934,64.09232460008934,64.09232460008934,64.09232460008934,0,1,[0.0011696000583469868],[0.36705769994296134],64.09232460008934,64.29465940012597,1000,64.29465940012597,1000,1000,1000,1000,0,num_3,0.4734574998728931,,34,14,2026-03-13_11h18.41.764,2026A_exp2,2022.2.4,59.81140269723851,
1,0,4.9,0.0,0,0,7,7,47,,,,,64.79283980000764,65.44371689995751,65.44371689995751,65.94470599992201,315,45,65.94470599992201,65.94470599992201,65.94470599992201,65.94470599992201,65.94470599992201,65.94470599992201,65.94470599992201,65.94470599992201,65.94470599992201,66.31123320013285,66.31123320013285,66.31123320013285,66.31123320013285,66.31123320013285,66.31123320013285,66.31123320013285,66.31123320013285,66.31123320013285,0,1,[0.0008197000715881586],[0.36738110007718205],66.31123320013285,66.51132609997876,4.9,66.51132609997876,1,4.9,1,1,1000,num_4,1.0642339999321848,,34,14,2026-03-13_11h18.41.764,2026A_exp2,2022.2.4,59.81140269723851,
1,0,4.9,0.0,0,0,8,8,14,,,,,67.59563450003043,68.2464759000577,68.2464759000577,68.74753700010478,315,45,68.74753700010478,68.74753700010478,68.74753700010478,68.74753700010478,68.74753700010478,68.74753700010478,68.74753700010478,68.74753700010478,68.74753700010478,69.09731870004907,69.09731870004907,69.09731870004907,69.09731870004907,69.09731870004907,69.09731870004907,69.09731870004907,69.09731870004907,69.09731870004907,0,1,[0.0012085000053048134],[0.35083060013130307],69.09731870004907,69.29746649996378,4.9,69.29746649996378,1,4.9,1,1,1000,num_4,0.6463182000443339,,34,14,2026-03-13_11h18.41.764,2026A_exp2,2022.2.4,59.81140269723851,
1,0,3.7,4.9,0,0,9,9,70,,,,,69.96459500002675,70.615471099969,70.615471099969,71.0999587001279,315,315,71.0999587001279,71.0999587001279,71.0999587001279,71.0999587001279,71.0999587001279,71.0999587001279,71.0999587001279,71.0999587001279,71.0999587001279,71.46639230009168,71.46639230009168,71.46639230009168,71.46639230009168,71.46639230009168,71.46639230009168,71.46639230009168,71.46639230009168,71.46639230009168,0,1,[0.00121080013923347],[0.3672484001144767],71.46639230009168,71.66658499999903,3.7,71.66658499999903,0,3.7,1,0,1000,num_1,0.5170956996735185,,34,14,2026-03-13_11h18.41.764,2026A_exp2,2022.2.4,59.81140269723851,
1000,1,4.9,3.7,0,0,10,10,26,,,,,72.20033479994163,72.85109340003692,72.85109340003692,73.33549750014208,45,45,73.33549750014208,73.33549750014208,73.33549750014208,73.33549750014208,73.33549750014208,73.33549750014208,73.33549750014208,73.33549750014208,73.33549750014208,73.7017429000698,73.7017429000698,73.7017429000698,73.7017429000698,73.7017429000698,73.7017429000698,73.7017429000698,73.7017429000698,73.7017429000698,0,1,[0.0012517001014202833],[0.3670423000585288],73.7017429000698,73.9022836999502,1000,73.9022836999502,1000,1000,1000,1000,0,num_3,0.4967636000365019,,34,14,2026-03-13_11h18.41.764,2026A_exp2,2022.2.4,59.81140269723851,
1,0,0.0,0.0,0,0,11,11,31,,,,,74.41922380006872,75.06983739999123,75.06983739999123,75.5711354999803,315,45,75.5711354999803,75.5711354999803,75.5711354999803,75.5711354999803,75.5711354999803,75.5711354999803,75.5711354999803,75.5711354999803,75.5711354999803,75.93742710002698,75.93742710002698,75.93742710002698,75.93742710002698,75.93742710002698,75.93742710002698,75.93742710002698,75.93742710002698,75.93742710002698,0,1,[0.0012736998032778502],[0.3669669998344034],75.93742710002698,76.13774659996852,0.0,76.13774659996852,1,0.0,0,0,1000,num_4,0.7499782999511808,,34,14,2026-03-13_11h18.41.764,2026A_exp2,2022.2.4,59.81140269723851,
1,0,4.9,3.7,0,0,12,12,89,,,,,76.90518549992703,77.55577410012484,77.55577410012484,78.05673460010439,45,315,78.05673460010439,78.05673460010439,78.05673460010439,78.05673460010439,78.05673460010439,78.05673460010439,78.05673460010439,78.05673460010439,78.05673460010439,78.40668860008009,78.40668860008009,78.40668860008009,78.40668860008009,78.40668860008009,78.40668860008009,78.40668860008009,78.40668860008009,78.40668860008009,0,1,[0.0009768998716026545],[0.35095239989459515],78.40668860008009,78.60686810011975,4.9,78.60686810011975,0,4.9,1,0,1000,num_1,0.5773749998770654,,34,14,2026-03-13_11h18.41.764,2026A_exp2,2022.2.4,59.81140269723851,
1000,1,3.7,0.0,1,0,13,13,54,,,,,79.20725730014965,79.85822009993717,79.85822009993717,80.34960780013353,45,315,80.34960780013353,80.34960780013353,80.34960780013353,80.34960780013353,80.34960780013353,80.34960780013353,80.34960780013353,80.34960780013353,80.34960780013353,80.70884670014493,80.70884670014493,80.70884670014493,80.70884670014493,80.70884670014493,80.70884670014493,80.70884670014493,80.70884670014493,80.70884670014493,0,1,[0.0029275999404489994],[0.36552700004540384],80.70884670014493,80.90911690006033,1000,80.90911690006033,1000,1000,1000,1000,1,num_2,0.8271393997129053,,34,14,2026-03-13_11h18.41.764,2026A_exp2,2022.2.4,59.81140269723851,
1000,1,0.0,3.7,1,0,14,14,86,,,,,81.76004149997607,82.41065570013598,82.41065570013598,82.91152429999784,315,315,82.91152429999784,82.91152429999784,82.91152429999784,82.91152429999784,82.91152429999784,82.91152429999784,82.91152429999784,82.91152429999784,82.91152429999784,83.2615493000485,83.2615493000485,83.2615493000485,83.2615493000485,83.2615493000485,83.2615493000485,83.2615493000485,83.2615493000485,83.2615493000485,0,1,[0.0012886000331491232],[0.3504276000894606],83.2615493000485,83.46330710011534,1000,83.46330710011534,1000,1000,1000,1000,1,num_2,0.5596397998742759,,34,14,2026-03-13_11h18.41.764,2026A_exp2,2022.2.4,59.81140269723851,
1,0,0.0,6.1,1,0,15,15,17,,,,,84.04551600012928,84.69633479998447,84.69633479998447,85.19738720008172,45,315,85.19738720008172,85.19738720008172,85.19738720008172,85.19738720008172,85.19738720008172,85.19738720008172,85.19738720008172,85.19738720008172,85.19738720008172,85.56378059997223,85.56378059997223,85.56378059997223,85.56378059997223,85.56378059997223,85.56378059997223,85.56378059997223,85.56378059997223,85.56378059997223,0,1,[0.0012458001729100943],[0.3669185000471771],85.56378059997223,85.76390799996443,6.1,85.76390799996443,1,6.1,1,1,1000,num_4,0.68364920001477,,34,14,2026-03-13_11h18.41.764,2026A_exp2,2022.2.4,59.81140269723851,
1000,1,0.0,3.7,0,0,16,16,21,,,,,86.46454409998842,87.11524339998141,87.11524339998141,87.59960220009089,45,45,87.59960220009089,87.59960220009089,87.59960220009089,87.59960220009089,87.59960220009089,87.59960220009089,87.59960220009089,87.59960220009089,87.59960220009089,87.96622700011358,87.96622700011358,87.96622700011358,87.96622700011358,87.96622700011358,87.96622700011358,87.96622700011358,87.96622700011358,87.96622700011358,0,1,[0.0012836998794227839],[0.3672338000033051],87.96622700011358,88.16810260014609,1000,88.16810260014609,1000,1000,1000,1000,1,num_2,0.5034870998933911,,34,14,2026-03-13_11h18.41.764,2026A_exp2,2022.2.4,59.81140269723851,
1000,1,0.0,0.0,0,0,17,17,33,,,,,88.70018450007774,89.35075450013392,89.35075450013392,89.8520277000498,45,315,89.8520277000498,89.8520277000498,89.8520277000498,89.8520277000498,89.8520277000498,89.8520277000498,89.8520277000498,89.8520277000498,89.8520277000498,90.20157480007038,90.20157480007038,90.20157480007038,90.20157480007038,90.20157480007038,90.20157480007038,90.20157480007038,90.20157480007038,90.20157480007038,0,1,[0.0012480998411774635],[0.3505636998452246],90.20157480007038,90.40340059995651,1000,90.41862919996493,1000,1000,1000,1000,1,num_2,0.5738647999241948,,34,14,2026-03-13_11h18.41.764,2026A_exp2,2022.2.4,59.81140269723851,
0,0,0.0,6.1,0,0,18,18,30,,,,,91.01916419994086,91.66990890004672,91.66990890004672,92.17089159996249,45,315,92.17089159996249,92.17089159996249,92.17089159996249,92.17089159996249,92.17089159996249,92.17089159996249,92.17089159996249,92.17089159996249,92.17089159996249,92.53727800003253,92.53727800003253,92.53727800003253,92.53727800003253,92.53727800003253,92.53727800003253,92.53727800003253,92.53727800003253,92.53727800003253,0,1,[0.0012078001163899899],[0.36656290013343096],92.53727800003253,92.73767019994557,6.1,92.73767019994557,1,6.1,1,1,1000,num_4,0.6939929998479784,,34,14,2026-03-13_11h18.41.764,2026A_exp2,2022.2.4,59.81140269723851,
1000,1,0.0,0.0,1,0,19,19,37,,,,,93.45489279995672,94.10565129993483,94.10565129993483,94.59023019997403,315,45,94.59023019997403,94.59023019997403,94.59023019997403,94.59023019997403,94.59023019997403,94.59023019997403,94.59023019997403,94.59023019997403,94.59023019997403,94.95649230014533,94.95649230014533,94.95649230014533,94.95649230014533,94.95649230014533,94.95649230014533,94.95649230014533,94.95649230014533,94.95649230014533,0,1,[0.0007520001381635666],[0.36770049994811416],94.95649230014533,95.15811110008508,1000,95.15811110008508,1000,1000,1000,1000,1,num_2,0.5134685998782516,,34,14,2026-03-13_11h18.41.764,2026A_exp2,2022.2.4,59.81140269723851,
1000,1,4.9,6.1,0,0,20,20,49,,,,,95.69041409995407,96.34108830010518,96.34108830010518,96.84235249995254,315,45,96.84235249995254,96.84235249995254,96.84235249995254,96.84235249995254,96.84235249995254,96.84235249995254,96.84235249995254,96.84235249995254,96.84235249995254,97.20843380014412,97.20843380014412,97.20843380014412,97.20843380014412,97.20843380014412,97.20843380014412,97.20843380014412,97.20843380014412,97.20843380014412,0,1,[0.0012596999295055866],[0.36680969991721213],97.20843380014412,97.41144230007194,1000,97.41144230007194,1000,1000,1000,1000,1,num_2,0.42757699987851083,,34,14,2026-03-13_11h18.41.764,2026A_exp2,2022.2.4,59.81140269723851,
1,0,3.7,0.0,1,0,21,21,73,,,,,97.85923380008899,98.5100664999336,98.5100664999336,99.01120320009068,45,315,99.01120320009068,99.01120320009068,99.01120320009068,99.01120320009068,99.01120320009068,99.01120320009068,99.01120320009068,99.01120320009068,99.01120320009068,99.37764530000277,99.37764530000277,99.37764530000277,99.37764530000277,99.37764530000277,99.37764530000277,99.37764530000277,99.37764530000277,99.37764530000277,0,1,[0.0012029001954942942],[0.36725810007192194],99.37764530000277,99.57775630010292,0.0,99.57775630010292,0,0.0,0,1,1000,num_1,0.6051283997949213,,34,14,2026-03-13_11h18.41.764,2026A_exp2,2022.2.4,59.81140269723851,
1,0,0.0,6.1,0,0,22,22,3,,,,,100.2116578000132,100.86230279994197,100.86230279994197,101.34675900009461,315,315,101.34675900009461,101.34675900009461,101.34675900009461,101.34675900009461,101.34675900009461,101.34675900009461,101.34675900009461,101.34675900009461,101.34675900009461,101.71327359997667,101.71327359997667,101.71327359997667,101.71327359997667,101.71327359997667,101.71327359997667,101.71327359997667,101.71327359997667,101.71327359997667,0,1,[0.0008119000121951103],[0.36746899993158877],101.71327359997667,101.91344840009697,0.0,101.91344840009697,0,0.0,0,1,1000,num_1,0.5576487998478115,,34,14,2026-03-13_11h18.41.764,2026A_exp2,2022.2.4,59.81140269723851,
1000,1,0.0,6.1,0,0,23,23,5,,,,,102.4971306999214,103.1479974000249,103.1479974000249,103.63251470006071,45,315,103.63251470006071,103.63251470006071,103.63251470006071,103.63251470006071,103.63251470006071,103.63251470006071,103.63251470006071,103.63251470006071,103.63251470006071,103.99892079993151,103.99892079993151,103.99892079993151,103.99892079993151,103.99892079993151,103.99892079993151,103.99892079993151,103.99892079993151,103.99892079993151,0,1,[0.0012481000740081072],[0.36733700009062886],103.99892079993151,104.20133930002339,1000,104.20133930002339,1000,1000,1000,1000,1,num_2,0.470861499896273,,34,14,2026-03-13_11h18.41.764,2026A_exp2,2022.2.4,59.81140269723851,
1,0,0.0,0.0,1,0,24,24,42,,,,,104.69953550002538,105.35000000009313,105.35000000009313,105.85136390011758,45,315,105.85136390011758,105.85136390011758,105.85136390011758,105.85136390011758,105.85136390011758,105.85136390011758,105.85136390011758,105.85136390011758,105.85136390011758,106.21737680002116,106.21737680002116,106.21737680002116,106.21737680002116,106.21737680002116,106.21737680002116,106.21737680002116,106.21737680002116,106.21737680002116,0,1,[0.0012420997954905033],[0.36722139990888536],106.21737680002116,106.4264330000151,0.0,106.4264330000151,0,0.0,0,1,1000,num_1,0.5486635998822749,,34,14,2026-03-13_11h18.41.764,2026A_exp2,2022.2.4,59.81140269723851,
1,0,3.7,6.1,0,0,25,25,74,,,,,107.00186070008203,107.652410000097,107.652410000097,108.15545610012487,45,315,108.15545610012487,108.15545610012487,108.15545610012487,108.15545610012487,108.15545610012487,108.15545610012487,108.15545610012487,108.15545610012487,108.15545610012487,108.51992520014755,108.51992520014755,108.51992520014755,108.51992520014755,108.51992520014755,108.51992520014755,108.51992520014755,108.51992520014755,108.51992520014755,0,1,[0.00208020000718534],[0.3663685000501573],108.51992520014755,108.72033059992827,3.7,108.72033059992827,0,3.7,1,0,1000,num_1,0.5110462999437004,,34,14,2026-03-13_11h18.41.764,2026A_exp2,2022.2.4,59.81140269723851,
1,0,0.0,4.9,0,0,26,26,9,,,,,109.25490910001099,109.9048568001017,109.9048568001017,110.40596999996342,45,315,110.40596999996342,110.40596999996342,110.40596999996342,110.40596999996342,110.40596999996342,110.40596999996342,110.40596999996342,110.40596999996342,110.40596999996342,110.77231910009868,110.77231910009868,110.77231910009868,110.77231910009868,110.77231910009868,110.77231910009868,110.77231910009868,110.77231910009868,110.77231910009868,0,1,[0.0013715000823140144],[0.36704770009964705],110.77231910009868,110.97241590009071,0.0,110.97241590009071,0,0.0,0,1,1000,num_1,0.5313125997781754,,34,14,2026-03-13_11h18.41.764,2026A_exp2,2022.2.4,59.81140269723851,
1,0,0.0,6.1,1,0,27,27,39,,,,,111.52280890010297,112.17369189998135,112.17369189998135,112.65807330003008,45,45,112.65807330003008,112.65807330003008,112.65807330003008,112.65807330003008,112.65807330003008,112.65807330003008,112.65807330003008,112.65807330003008,112.65807330003008,113.02461090008728,113.02461090008728,113.02461090008728,113.02461090008728,113.02461090008728,113.02461090008728,113.02461090008728,113.02461090008728,113.02461090008728,0,1,[0.0012494998518377542],[0.3671517998445779],113.02461090008728,113.22465170011856,6.1,113.22465170011856,1,6.1,1,1,1000,num_4,0.7276115997228771,,34,14,2026-03-13_11h18.41.764,2026A_exp2,2022.2.4,59.81140269723851,
1000,1,0.0,3.7,0,0,28,28,18,,,,,113.97549280012026,114.62620120006613,114.62620120006613,115.12735250010155,45,315,115.12735250010155,115.12735250010155,115.12735250010155,115.12735250010155,115.12735250010155,115.12735250010155,115.12735250010155,115.12735250010155,115.12735250010155,115.49376150011085,115.49376150011085,115.49376150011085,115.49376150011085,115.49376150011085,115.49376150011085,115.49376150011085,115.49376150011085,115.49376150011085,0,1,[0.001436999998986721],[0.367062299977988],115.49376150011085,115.72270009992644,1000,115.72270009992644,1000,1000,1000,1000,1,num_2,0.5656000999733806,,34,14,2026-03-13_11h18.41.764,2026A_exp2,2022.2.4,59.81140269723851,
1,0,0.0,0.0,1,0,29,29,24,,,,,116.31114320014603,116.96183219994418,116.96183219994418,117.46322220005095,315,315,117.46322220005095,117.46322220005095,117.46322220005095,117.46322220005095,117.46322220005095,117.46322220005095,117.46322220005095,117.46322220005095,117.46322220005095,117.8294492000714,117.8294492000714,117.8294492000714,117.8294492000714,117.8294492000714,117.8294492000714,117.8294492000714,117.8294492000714,117.8294492000714,1,1,[0.0007858001627027988],[0.36767529998905957],117.8294492000714,118.02939680009149,0.0,118.02939680009149,0,0.0,0,1,1000,num_1,0.4737320998683572,,34,14,2026-03-13_11h18.41.764,2026A_exp2,2022.2.4,59.81140269723851,
1,0,3.7,0.0,0,0,30,30,15,,,,,118.53015240002424,119.16388599993661,119.16388599993661,119.66510370001197,315,45,119.66510370001197,119.66510370001197,119.66510370001197,119.66510370001197,119.66510370001197,119.66510370001197,119.66510370001197,119.66510370001197,119.66510370001197,120.0315932999365,120.0315932999365,120.0315932999365,120.0315932999365,120.0315932999365,120.0315932999365,120.0315932999365,120.0315932999365,120.0315932999365,0,1,[0.0011477000080049038],[0.367350900080055],120.0315932999365,120.23174630012363,3.7,120.23174630012363,0,3.7,1,0,1000,num_1,0.6001687997486442,,34,14,2026-03-13_11h18.41.764,2026A_exp2,2022.2.4,59.81140269723851,
1,0,0.0,0.0,0,0,31,31,87,,,,,120.84891070006415,121.4996148000937,121.4996148000937,121.98418779997155,45,45,121.98418779997155,121.98418779997155,121.98418779997155,121.98418779997155,121.98418779997155,121.98418779997155,121.98418779997155,121.98418779997155,121.98418779997155,122.35051500005648,122.35051500005648,122.35051500005648,122.35051500005648,122.35051500005648,122.35051500005648,122.35051500005648,122.35051500005648,122.35051500005648,0,1,[0.0012505999766290188],[0.36723170010372996],122.35051500005648,122.55092810001224,0.0,122.55092810001224,0,0.0,0,1,1000,num_1,0.7452532998286188,,34,14,2026-03-13_11h18.41.764,2026A_exp2,2022.2.4,59.81140269723851,
1,0,6.1,0.0,1,0,32,32,23,,,,,123.31799490004778,123.9687447999604,123.9687447999604,124.45318370009772,45,315,124.45318370009772,124.45318370009772,124.45318370009772,124.45318370009772,124.45318370009772,124.45318370009772,124.45318370009772,124.45318370009772,124.45318370009772,124.8196608000435,124.8196608000435,124.8196608000435,124.8196608000435,124.8196608000435,124.8196608000435,124.8196608000435,124.8196608000435,124.8196608000435,0,1,[0.0012338000815361738],[0.3671572001185268],124.8196608000435,125.01976420008577,0.0,125.01976420008577,0,0.0,0,1,1000,num_1,0.6278123997617513,,34,14,2026-03-13_11h18.41.764,2026A_exp2,2022.2.4,59.81140269723851,
1000,1,0.0,0.0,1,0,33,33,63,,,,,125.67036679992452,126.32117240014486,126.32117240014486,126.80572720011696,45,315,126.80572720011696,126.80572720011696,126.80572720011696,126.80572720011696,126.80572720011696,126.80572720011696,126.80572720011696,126.80572720011696,126.80572720011696,127.17196970013902,127.17196970013902,127.17196970013902,127.17196970013902,127.17196970013902,127.17196970013902,127.17196970013902,127.17196970013902,127.17196970013902,0,1,[0.0012458998244255781],[0.36677969992160797],127.17196970013902,127.37449189997278,1000,127.37449189997278,1000,1000,1000,1000,0,num_3,0.4731968999840319,,34,14,2026-03-13_11h18.41.764,2026A_exp2,2022.2.4,59.81140269723851,
1000,1,0.0,3.7,1,0,34,34,7,,,,,127.87266759993508,128.52327880007215,128.52327880007215,129.02441630000249,315,315,129.02441630000249,129.02441630000249,129.02441630000249,129.02441630000249,129.02441630000249,129.02441630000249,129.02441630000249,129.02441630000249,129.02441630000249,129.3907876999583,129.3907876999583,129.3907876999583,129.3907876999583,129.3907876999583,129.3907876999583,129.3907876999583,129.3907876999583,129.3907876999583,0,1,[0.0012399000115692616],[0.3672848001588136],129.3907876999583,129.59310330008157,1000,129.59310330008157,1000,1000,1000,1000,1,num_2,0.6145309000276029,,34,14,2026-03-13_11h18.41.764,2026A_exp2,2022.2.4,59.81140269723851,
1000,1,0.0,0.0,1,0,35,35,80,,,,,130.2250006000977,130.87583209993318,130.87583209993318,131.37689070007764,315,315,131.37689070007764,131.37689070007764,131.37689070007764,131.37689070007764,131.37689070007764,131.37689070007764,131.37689070007764,131.37689070007764,131.37689070007764,131.74329939996824,131.74329939996824,131.74329939996824,131.74329939996824,131.74329939996824,131.74329939996824,131.74329939996824,131.74329939996824,131.74329939996824,0,1,[0.0011974999215453863],[0.36734899994917214],131.74329939996824,131.945895700017,1000,131.945895700017,1000,1000,1000,1000,1,num_2,0.5259995998349041,,34,14,2026-03-13_11h18.41.764,2026A_exp2,2022.2.4,59.81140269723851,
1,0,0.0,0.0,0,0,36,36,75,,,,,132.49387610005215,133.14469680003822,133.14469680003822,133.64572060015053,315,315,133.64572060015053,133.64572060015053,133.64572060015053,133.64572060015053,133.64572060015053,133.64572060015053,133.64572060015053,133.64572060015053,133.64572060015053,134.0120427000802,134.0120427000802,134.0120427000802,134.0120427000802,134.0120427000802,134.0120427000802,134.0120427000802,134.0120427000802,134.0120427000802,0,1,[0.0012177000753581524],[0.3668291999492794],134.0120427000802,134.2123124001082,0.0,134.2123124001082,0,0.0,0,1,1000,num_1,0.5548747996799648,,34,14,2026-03-13_11h18.41.764,2026A_exp2,2022.2.4,59.81140269723851,
1,0,6.1,0.0,1,0,37,37,53,,,,,134.79614270012826,135.44686580006965,135.44686580006965,135.93108090013266,315,45,135.93108090013266,135.93108090013266,135.93108090013266,135.93108090013266,135.93108090013266,135.93108090013266,135.93108090013266,135.93108090013266,135.93108090013266,136.29778950009495,136.29778950009495,136.29778950009495,136.29778950009495,136.29778950009495,136.29778950009495,136.29778950009495,136.29778950009495,136.29778950009495,0,1,[0.0012458998244255781],[0.36710049980320036],136.29778950009495,136.49790480011143,0.0,136.49790480011143,1,0.0,0,0,1000,num_4,0.597918399842456,,34,14,2026-03-13_11h18.41.764,2026A_exp2,2022.2.4,59.81140269723851,
1000,1,3.7,3.7,1,0,38,38,25,,,,,137.11517030000687,137.76598510006443,137.76598510006443,138.25044800015166,45,315,138.25044800015166,138.25044800015166,138.25044800015166,138.25044800015166,138.25044800015166,138.25044800015166,138.25044800015166,138.25044800015166,138.25044800015166,138.6166398001369,138.6166398001369,138.6166398001369,138.6166398001369,138.6166398001369,138.6166398001369,138.6166398001369,138.6166398001369,138.6166398001369,0,1,[0.0010941000655293465],[0.366581300040707],138.6166398001369,138.82287500007078,1000,138.82287500007078,1000,1000,1000,1000,1,num_2,0.5207946998998523,,34,14,2026-03-13_11h18.41.764,2026A_exp2,2022.2.4,59.81140269723851,
1000,1,3.7,0.0,0,0,39,39,28,,,,,139.36754669994116,140.01818050001748,140.01818050001748,140.51926110009663,45,315,140.51926110009663,140.51926110009663,140.51926110009663,140.51926110009663,140.51926110009663,140.51926110009663,140.51926110009663,140.51926110009663,140.51926110009663,140.88542130007409,140.88542130007409,140.88542130007409,140.88542130007409,140.88542130007409,140.88542130007409,140.88542130007409,140.88542130007409,140.88542130007409,23,0,,,140.88542130007409,141.08569879992865,1000,141.08569879992865,1000,1000,1000,1000,1,num_2,0.5533425998874009,,34,14,2026-03-13_11h18.41.764,2026A_exp2,2022.2.4,59.81140269723851,
1,0,0.0,0.0,1,0,40,40,68,,,,,141.6698386000935,142.32040369999595,142.32040369999595,142.82167849992402,45,45,142.82167849992402,142.82167849992402,142.82167849992402,142.82167849992402,142.82167849992402,142.82167849992402,142.82167849992402,142.82167849992402,142.82167849992402,143.18810810009018,143.18810810009018,143.18810810009018,143.18810810009018,143.18810810009018,143.18810810009018,143.18810810009018,143.18810810009018,143.18810810009018,23,0,,,143.18810810009018,143.38820159994066,0.0,143.38820159994066,1,0.0,0,0,1000,num_4,0.594594300026074,,34,14,2026-03-13_11h18.41.764,2026A_exp2,2022.2.4,59.81140269723851,
1,0,6.1,3.7,0,0,41,41,79,,,,,144.00566549994983,144.63957879994996,144.63957879994996,145.14060669997707,45,315,145.14060669997707,145.14060669997707,145.14060669997707,145.14060669997707,145.14060669997707,145.14060669997707,145.14060669997707,145.14060669997707,145.14060669997707,145.50712010008283,145.50712010008283,145.50712010008283,145.50712010008283,145.50712010008283,145.50712010008283,145.50712010008283,145.50712010008283,145.50712010008283,5,3,"[0.001329899998381734, 0.13354089995846152, 0.25056059984490275]","[0.11706469999626279, 0.18369889981113374, 0.3672561999410391]",145.50712010008283,145.7072688001208,6.1,145.7072688001208,0,6.1,1,0,1000,num_1,0.763637299882248,,34,14,2026-03-13_11h18.41.764,2026A_exp2,2022.2.4,59.81140269723851,
1000,1,0.0,4.9,1,0,42,42,51,,,,,146.4911728000734,147.14225560007617,147.14225560007617,147.64093760005198,315,315,147.64093760005198,147.64093760005198,147.64093760005198,147.64093760005198,147.64093760005198,147.64093760005198,147.64093760005198,147.64093760005198,147.64093760005198,147.99301590002142,147.99301590002142,147.99301590002142,147.99301590002142,147.99301590002142,147.99301590002142,147.99301590002142,147.99301590002142,147.99301590002142,0,1,[0.004030700074508786],[0.36574670020490885],147.99301590002142,148.2088369000703,1000,148.2088369000703,1000,1000,1000,1000,1,num_2,0.4866776999551803,,34,14,2026-03-13_11h18.41.764,2026A_exp2,2022.2.4,59.81140269723851,
1,0,6.1,0.0,1,0,43,43,29,,,,,148.72704309993424,149.37744299997576,149.37744299997576,149.86195800011046,45,315,149.86195800011046,149.86195800011046,149.86195800011046,149.86195800011046,149.86195800011046,149.86195800011046,149.86195800011046,149.86195800011046,149.86195800011046,150.2280842999462,150.2280842999462,150.2280842999462,150.2280842999462,150.2280842999462,150.2280842999462,150.2280842999462,150.2280842999462,150.2280842999462,0,1,[0.0012054999824613333],[0.36715730000287294],150.2280842999462,150.42851549992338,0.0,150.42851549992338,1,0.0,0,0,1000,num_4,0.8274499997496605,,34,14,2026-03-13_11h18.41.764,2026A_exp2,2022.2.4,59.81140269723851,
1,0,0.0,4.9,0,0,44,44,48,,,,,151.27927810000256,151.93009670008905,151.93009670008905,152.4144524000585,45,45,152.4144524000585,152.4144524000585,152.4144524000585,152.4144524000585,152.4144524000585,152.4144524000585,152.4144524000585,152.4144524000585,152.4144524000585,152.7809186000377,152.7809186000377,152.7809186000377,152.7809186000377,152.7809186000377,152.7809186000377,152.7809186000377,152.7809186000377,152.7809186000377,0,1,[0.0012092001270502806],[0.36734390002675354],152.7809186000377,152.98120309994556,0.0,152.98120309994556,0,0.0,0,1,1000,num_1,0.49105759989470243,,34,14,2026-03-13_11h18.41.764,2026A_exp2,2022.2.4,59.81140269723851,
1000,1,0.0,0.0,1,0,45,45,72,,,,,153.49827160011046,154.14906640001573,154.14906640001573,154.63329949998297,315,315,154.63329949998297,154.63329949998297,154.63329949998297,154.63329949998297,154.63329949998297,154.63329949998297,154.63329949998297,154.63329949998297,154.63329949998297,154.9998123999685,154.9998123999685,154.9998123999685,154.9998123999685,154.9998123999685,154.9998123999685,154.9998123999685,154.9998123999685,154.9998123999685,0,1,[0.0012431999202817678],[0.36704029981046915],154.9998123999685,155.20197520009242,1000,155.20197520009242,1000,1000,1000,1000,0,num_3,1.1016724999062717,,34,14,2026-03-13_11h18.41.764,2026A_exp2,2022.2.4,59.81140269723851,
1,0,0.0,4.9,1,0,46,46,2,,,,,156.33452480006963,156.98518680012785,156.98518680012785,157.486169999931,45,45,157.486169999931,157.486169999931,157.486169999931,157.486169999931,157.486169999931,157.486169999931,157.486169999931,157.486169999931,157.486169999931,157.83599449996836,157.83599449996836,157.83599449996836,157.83599449996836,157.83599449996836,157.83599449996836,157.83599449996836,157.83599449996836,157.83599449996836,11,1,[0.0012099999003112316],[0.18368480005301535],157.83599449996836,158.03611139999703,4.9,158.0528979001101,1,4.9,1,1,1000,num_4,0.5624759998172522,,34,14,2026-03-13_11h18.41.764,2026A_exp2,2022.2.4,59.81140269723851,
1,0,6.1,4.9,1,0,47,47,38,,,,,158.6366783999838,159.28751940000802,159.28751940000802,159.77184329996817,315,315,159.77184329996817,159.77184329996817,159.77184329996817,159.77184329996817,159.77184329996817,159.77184329996817,159.77184329996817,159.77184329996817,159.77184329996817,160.13836390012875,160.13836390012875,160.13836390012875,160.13836390012875,160.13836390012875,160.13836390012875,160.13836390012875,160.13836390012875,160.13836390012875,0,1,[0.0012175000738352537],[0.36724409996531904],160.13836390012875,160.33861360000446,4.9,160.33861360000446,1,4.9,1,1,1000,num_4,0.5492967998143286,,34,14,2026-03-13_11h18.41.764,2026A_exp2,2022.2.4,59.81140269723851,
1,0,0.0,4.9,1,0,48,48,44,,,,,160.90585460001603,161.5396722999867,161.5396722999867,162.04073200002313,45,45,162.04073200002313,162.04073200002313,162.04073200002313,162.04073200002313,162.04073200002313,162.04073200002313,162.04073200002313,162.04073200002313,162.04073200002313,162.40705909999087,162.40705909999087,162.40705909999087,162.40705909999087,162.40705909999087,162.40705909999087,162.40705909999087,162.40705909999087,162.40705909999087,0,1,[0.0012576999142765999],[0.36694430001080036],162.40705909999087,162.60753330006264,4.9,162.60753330006264,1,4.9,1,1,1000,num_4,0.6637667999602854,,34,14,2026-03-13_11h18.41.764,2026A_exp2,2022.2.4,59.81140269723851,
1000,1,0.0,4.9,0,0,49,49,50,,,,,163.29123550001532,163.9421427999623,163.9421427999623,164.42663739994168,315,45,164.42663739994168,164.42663739994168,164.42663739994168,164.42663739994168,164.42663739994168,164.42663739994168,164.42663739994168,164.42663739994168,164.42663739994168,164.79302330012433,164.79302330012433,164.79302330012433,164.79302330012433,164.79302330012433,164.79302330012433,164.79302330012433,164.79302330012433,164.79302330012433,0,1,[0.0012950999662280083],[0.3670220000203699],164.79302330012433,164.9947836000938,1000,164.9947836000938,1000,1000,1000,1000,1,num_2,0.652484699850902,,34,14,2026-03-13_11h18.41.764,2026A_exp2,2022.2.4,59.81140269723851,
1000,1,4.9,6.1,1,0,50,50,4,,,,,165.6770772000309,166.3278570000548,166.3278570000548,166.8291152000893,45,45,166.8291152000893,166.8291152000893,166.8291152000893,166.8291152000893,166.8291152000893,166.8291152000893,166.8291152000893,166.8291152000893,166.8291152000893,167.19546730001457,167.19546730001457,167.19546730001457,167.19546730001457,167.19546730001457,167.19546730001457,167.19546730001457,167.19546730001457,167.19546730001457,0,1,[0.0007587999571114779],[0.3672281999606639],167.19546730001457,167.3977171999868,1000,167.3977171999868,1000,1000,1000,1000,1,num_2,0.49017729982733727,,34,14,2026-03-13_11h18.41.764,2026A_exp2,2022.2.4,59.81140269723851,
0,0,3.7,0.0,1,0,51,51,0,,,,,167.9128499000799,168.5632651001215,168.5632651001215,169.0644050000701,45,45,169.0644050000701,169.0644050000701,169.0644050000701,169.0644050000701,169.0644050000701,169.0644050000701,169.0644050000701,169.0644050000701,169.0644050000701,169.43097360013053,169.43097360013053,169.43097360013053,169.43097360013053,169.43097360013053,169.43097360013053,169.43097360013053,169.43097360013053,169.43097360013053,17,2,"[0.25007089995779097, 0.3672562998253852]","[0.33369749994017184, 0.36726079997606575]",169.43097360013053,169.63117900001816,3.7,169.63117900001816,0,3.7,1,0,1000,num_1,0.6731241999659687,,34,14,2026-03-13_11h18.41.764,2026A_exp2,2022.2.4,59.81140269723851,
0,0,3.7,0.0,0,0,52,52,16,,,,,170.33172140014358,170.9824101999402,170.9824101999402,171.46699060010724,45,45,171.46699060010724,171.46699060010724,171.46699060010724,171.46699060010724,171.46699060010724,171.46699060010724,171.46699060010724,171.46699060010724,171.46699060010724,171.83342309994623,171.83342309994623,171.83342309994623,171.83342309994623,171.83342309994623,171.83342309994623,171.83342309994623,171.83342309994623,171.83342309994623,18,4,"[0.01758820004761219, 0.11709260009229183, 0.3006629999727011, 0.35068260016851127]","[0.033765300177037716, 0.1338982000015676, 0.31730810017324984, 0.3675222999881953]",171.83342309994623,172.03355960012414,0.0,172.03355960012414,1,0.0,0,0,1000,num_4,1.0222636999096721,,34,14,2026-03-13_11h18.41.764,2026A_exp2,2022.2.4,59.81140269723851,
0,0,4.9,6.1,0,0,53,53,1,,,,,173.08454559999518,173.73528510006145,173.73528510006145,174.2195822999347,315,315,174.2195822999347,174.2195822999347,174.2195822999347,174.2195822999347,174.2195822999347,174.2195822999347,174.2195822999347,174.2195822999347,174.2195822999347,174.58617110014893,174.58617110014893,174.58617110014893,174.58617110014893,174.58617110014893,174.58617110014893,174.58617110014893,174.58617110014893,174.58617110014893,0,1,[0.0012181999627500772],[0.367323299869895],174.58617110014893,174.78629039996304,6.1,174.78629039996304,1,6.1,1,1,1000,num_4,0.6206856998614967,,34,14,2026-03-13_11h18.41.764,2026A_exp2,2022.2.4,59.81140269723851,
1000,1,4.9,0.0,0,0,54,54,82,,,,,175.437060700031,176.0709631999489,176.0709631999489,176.57213310012594,315,45,176.57213310012594,176.57213310012594,176.57213310012594,176.57213310012594,176.57213310012594,176.57213310012594,176.57213310012594,176.57213310012594,176.57213310012594,176.9385766000487,176.9385766000487,176.9385766000487,176.9385766000487,176.9385766000487,176.9385766000487,176.9385766000487,176.9385766000487,176.9385766000487,0,1,[0.0012608999386429787],[0.36651619989424944],176.9385766000487,177.13843569997698,1000,177.13843569997698,1000,1000,1000,1000,1,num_2,0.724562699906528,,34,14,2026-03-13_11h18.41.764,2026A_exp2,2022.2.4,59.81140269723851,
1000,1,4.9,4.9,1,0,55,55,67,,,,,177.88969480013475,178.5401484000031,178.5401484000031,179.04124099994078,45,45,179.04124099994078,179.04124099994078,179.04124099994078,179.04124099994078,179.04124099994078,179.04124099994078,179.04124099994078,179.04124099994078,179.04124099994078,179.4076857001055,179.4076857001055,179.4076857001055,179.4076857001055,179.4076857001055,179.4076857001055,179.4076857001055,179.4076857001055,179.4076857001055,0,1,[0.0012308000586926937],[0.3670892999507487],179.4076857001055,179.60780959995463,1000,179.60780959995463,1000,1000,1000,1000,1,num_2,0.4072521000634879,,34,14,2026-03-13_11h18.41.764,2026A_exp2,2022.2.4,59.81140269723851,
1,0,4.9,6.1,1,0,56,56,62,,,,,180.04149059997872,180.69226819998585,180.69226819998585,181.19325649994425,45,45,181.19325649994425,181.19325649994425,181.19325649994425,181.19325649994425,181.19325649994425,181.19325649994425,181.19325649994425,181.19325649994425,181.19325649994425,181.55984720005654,181.55984720005654,181.55984720005654,181.55984720005654,181.55984720005654,181.55984720005654,181.55984720005654,181.55984720005654,181.55984720005654,0,1,[0.0007611999753862619],[0.3675550001207739],181.55984720005654,181.75999339995906,6.1,181.75999339995906,1,6.1,1,1,1000,num_4,0.4479831997305155,,34,14,2026-03-13_11h18.41.764,2026A_exp2,2022.2.4,59.81140269723851,
1000,1,0.0,0.0,1,0,57,57,27,,,,,182.22702210000716,182.87767189997248,182.87767189997248,183.36211580014788,45,45,183.36211580014788,183.36211580014788,183.36211580014788,183.36211580014788,183.36211580014788,183.36211580014788,183.36211580014788,183.36211580014788,183.36211580014788,183.72871390008368,183.72871390008368,183.72871390008368,183.72871390008368,183.72871390008368,183.72871390008368,183.72871390008368,183.72871390008368,183.72871390008368,0,1,[0.0012145000509917736],[0.3671228000894189],183.72871390008368,183.93047689995728,1000,183.93047689995728,1000,1000,1000,1000,1,num_2,0.6526590997818857,,34,14,2026-03-13_11h18.41.764,2026A_exp2,2022.2.4,59.81140269723851,
0,0,4.9,3.7,1,0,58,58,13,,,,,184.61274050013162,185.2633824001532,185.2633824001532,185.76433170004748,315,315,185.76433170004748,185.76433170004748,185.76433170004748,185.76433170004748,185.76433170004748,185.76433170004748,185.76433170004748,185.76433170004748,185.76433170004748,186.1310245001223,186.1310245001223,186.1310245001223,186.1310245001223,186.1310245001223,186.1310245001223,186.1310245001223,186.1310245001223,186.1310245001223,0,1,[0.0012487000785768032],[0.3675192000810057],186.1310245001223,186.33114619995467,4.9,186.33114619995467,0,4.9,1,0,1000,num_1,0.6851240997202694,,34,14,2026-03-13_11h18.41.764,2026A_exp2,2022.2.4,59.81140269723851,
1000,1,0.0,0.0,1,0,59,59,8,,,,,187.03253110009246,187.68262390000746,187.68262390000746,188.18374889995903,315,315,188.18374889995903,188.18374889995903,188.18374889995903,188.18374889995903,188.18374889995903,188.18374889995903,188.18374889995903,188.18374889995903,188.18374889995903,188.5499104000628,188.5499104000628,188.5499104000628,188.5499104000628,188.5499104000628,188.5499104000628,188.5499104000628,188.5499104000628,188.5499104000628,0,1,[0.0012273001484572887],[0.36698270007036626],188.5499104000628,188.75221930001862,1000,188.75221930001862,1000,1000,1000,1000,1,num_2,0.48680009972304106,,34,14,2026-03-13_11h18.41.764,2026A_exp2,2022.2.4,59.81140269723851,
1,0,3.7,3.7,0,0,60,60,69,,,,,189.26738839992322,189.91806800011545,189.91806800011545,190.4191916999407,315,315,190.4191916999407,190.4191916999407,190.4191916999407,190.4191916999407,190.4191916999407,190.4191916999407,190.4191916999407,190.4191916999407,190.4191916999407,190.76895339996554,190.76895339996554,190.76895339996554,190.76895339996554,190.76895339996554,190.76895339996554,190.76895339996554,190.76895339996554,190.76895339996554,1,2,"[0.0012042000889778137, 0.28384819999337196]","[0.26718460000120103, 0.35059969988651574]",190.76895339996554,190.96913620014675,3.7,190.98581059998833,0,3.7,1,0,1000,num_1,1.6851382998283952,,34,14,2026-03-13_11h18.41.764,2026A_exp2,2022.2.4,59.81140269723851,
1,0,0.0,3.7,0,0,61,61,34,,,,,192.68741580005735,193.3381944000721,193.3381944000721,193.82266480010003,45,45,193.82266480010003,193.82266480010003,193.82266480010003,193.82266480010003,193.82266480010003,193.82266480010003,193.82266480010003,193.82266480010003,193.82266480010003,194.18891050014645,194.18891050014645,194.18891050014645,194.18891050014645,194.18891050014645,194.18891050014645,194.18891050014645,194.18891050014645,194.18891050014645,0,1,[0.0014758000615984201],[0.3670987000223249],194.18891050014645,194.38929550000466,0.0,194.38929550000466,0,0.0,0,1,1000,num_1,0.5137278998736292,,34,14,2026-03-13_11h18.41.764,2026A_exp2,2022.2.4,59.81140269723851,
1,0,6.1,0.0,1,0,62,62,41,,,,,194.92301529995166,195.57381159998477,195.57381159998477,196.07480200007558,45,45,196.07480200007558,196.07480200007558,196.07480200007558,196.07480200007558,196.07480200007558,196.07480200007558,196.07480200007558,196.07480200007558,196.07480200007558,196.42479570000432,196.42479570000432,196.42479570000432,196.42479570000432,196.42479570000432,196.42479570000432,196.42479570000432,196.42479570000432,196.42479570000432,0,1,[0.0011742999777197838],[0.3505227998830378],196.42479570000432,196.62471190001816,0.0,196.62471190001816,0,0.0,0,1,1000,num_1,0.5114323000889271,,34,14,2026-03-13_11h18.41.764,2026A_exp2,2022.2.4,59.81140269723851,
1000,1,0.0,6.1,1,0,63,63,40,,,,,197.15850719995797,197.8092833000701,197.8092833000701,198.29373780009337,45,45,198.29373780009337,198.29373780009337,198.29373780009337,198.29373780009337,198.29373780009337,198.29373780009337,198.29373780009337,198.29373780009337,198.29373780009337,198.66018350003287,198.66018350003287,198.66018350003287,198.66018350003287,198.66018350003287,198.66018350003287,198.66018350003287,198.66018350003287,198.66018350003287,0,1,[0.0012337998487055302],[0.3671719999983907],198.66018350003287,198.8622528000269,1000,198.8622528000269,1000,1000,1000,1000,1,num_2,1.001372299855575,,34,14,2026-03-13_11h18.41.764,2026A_exp2,2022.2.4,59.81140269723851,
1000,1,4.9,6.1,0,0,64,64,59,,,,,199.89465499995276,200.54533750005066,200.54533750005066,201.04643959994428,45,315,201.04643959994428,201.04643959994428,201.04643959994428,201.04643959994428,201.04643959994428,201.04643959994428,201.04643959994428,201.04643959994428,201.04643959994428,201.4129508000333,201.4129508000333,201.4129508000333,201.4129508000333,201.4129508000333,201.4129508000333,201.4129508000333,201.4129508000333,201.4129508000333,0,1,[0.0009111999534070492],[0.3677703000139445],201.4129508000333,201.61540889996104,1000,201.61540889996104,1000,1000,1000,1000,1,num_2,0.5048490997869521,,34,14,2026-03-13_11h18.41.764,2026A_exp2,2022.2.4,59.81140269723851,
1,0,4.9,4.9,1,0,65,65,32,,,,,202.14700999995694,202.79775790008716,202.79775790008716,203.29870119993575,45,45,203.29870119993575,203.29870119993575,203.29870119993575,203.29870119993575,203.29870119993575,203.29870119993575,203.29870119993575,203.29870119993575,203.29870119993575,203.66513990005478,203.66513990005478,203.66513990005478,203.66513990005478,203.66513990005478,203.66513990005478,203.66513990005478,203.66513990005478,203.66513990005478,0,1,[0.001247999956831336],[0.3671510999556631],203.66513990005478,203.86539850011468,4.9,203.86539850011468,1,4.9,1,1,1000,num_4,0.8066326999105513,,34,14,2026-03-13_11h18.41.764,2026A_exp2,2022.2.4,59.81140269723851,
0,0,6.1,0.0,0,0,66,66,65,,,,,204.6994423000142,205.35022030002438,205.35022030002438,205.83469750010408,315,315,205.83469750010408,205.83469750010408,205.83469750010408,205.83469750010408,205.83469750010408,205.83469750010408,205.83469750010408,205.83469750010408,205.83469750010408,206.20101790013723,206.20101790013723,206.20101790013723,206.20101790013723,206.20101790013723,206.20101790013723,206.20101790013723,206.20101790013723,206.20101790013723,0,1,[0.0012591998092830181],[0.36711609992198646],206.20101790013723,206.40123399998993,0.0,206.40123399998993,1,0.0,0,0,1000,num_4,0.5817626998759806,,34,14,2026-03-13_11h18.41.764,2026A_exp2,2022.2.4,59.81140269723851,
1,0,4.9,0.0,0,0,67,67,57,,,,,207.00174809992313,207.63583990000188,207.63583990000188,208.13688320014626,45,315,208.13688320014626,208.13688320014626,208.13688320014626,208.13688320014626,208.13688320014626,208.13688320014626,208.13688320014626,208.13688320014626,208.13688320014626,208.50332100014202,208.50332100014202,208.50332100014202,208.50332100014202,208.50332100014202,208.50332100014202,208.50332100014202,208.50332100014202,208.50332100014202,0,1,[0.0012167999520897865],[0.36684240004979074],208.50332100014202,208.7034837999381,4.9,208.7034837999381,0,4.9,1,0,1000,num_1,0.8966437999624759,,34,14,2026-03-13_11h18.41.764,2026A_exp2,2022.2.4,59.81140269723851,
1000,1,6.1,0.0,1,0,68,68,71,,,,,209.62104870006442,210.27576210000552,210.27576210000552,210.7561220000498,45,45,210.7561220000498,210.7561220000498,210.7561220000498,210.7561220000498,210.7561220000498,210.7561220000498,210.7561220000498,210.7561220000498,210.7561220000498,211.1226737999823,211.1226737999823,211.1226737999823,211.1226737999823,211.1226737999823,211.1226737999823,211.1226737999823,211.1226737999823,211.1226737999823,0,1,[0.001429400173947215],[0.36738390009850264],211.1226737999823,211.32416089996696,1000,211.32416089996696,1000,1000,1000,1000,0,num_3,0.49972709990106523,,34,14,2026-03-13_11h18.41.764,2026A_exp2,2022.2.4,59.81140269723851,
1000,1,0.0,6.1,0,0,69,69,85,,,,,211.84007000015117,212.490555500146,212.490555500146,212.99186370009556,45,315,212.99186370009556,212.99186370009556,212.99186370009556,212.99186370009556,212.99186370009556,212.99186370009556,212.99186370009556,212.99186370009556,212.99186370009556,213.35800669994205,213.35800669994205,213.35800669994205,213.35800669994205,213.35800669994205,213.35800669994205,213.35800669994205,213.35800669994205,213.35800669994205,0,1,[0.0012989998795092106],[0.36657379986718297],213.35800669994205,213.56007050001062,1000,213.56007050001062,1000,1000,1000,1000,1,num_2,0.5511996997520328,,34,14,2026-03-13_11h18.41.764,2026A_exp2,2022.2.4,59.81140269723851,
0,0,0.0,6.1,1,0,70,70,84,,,,,214.14222520007752,214.79293370014057,214.79293370014057,215.29398700012825,315,315,215.29398700012825,215.29398700012825,215.29398700012825,215.29398700012825,215.29398700012825,215.29398700012825,215.29398700012825,215.29398700012825,215.29398700012825,215.66040739999153,215.66040739999153,215.66040739999153,215.66040739999153,215.66040739999153,215.66040739999153,215.66040739999153,215.66040739999153,215.66040739999153,0,1,[0.0012076999992132187],[0.3673503000754863],215.66040739999153,215.86075540003367,0.0,215.86075540003367,1,0.0,0,0,1000,num_4,0.7700359998270869,,34,14,2026-03-13_11h18.41.764,2026A_exp2,2022.2.4,59.81140269723851,
1,0,6.1,0.0,0,0,71,71,22,,,,,216.66144820000045,217.31222490011714,217.31222490011714,217.79653830011375,315,315,217.79653830011375,217.79653830011375,217.79653830011375,217.79653830011375,217.79653830011375,217.79653830011375,217.79653830011375,217.79653830011375,217.79653830011375,218.16292569995858,218.16292569995858,218.16292569995858,218.16292569995858,218.16292569995858,218.16292569995858,218.16292569995858,218.16292569995858,218.16292569995858,0,1,[0.0012058001011610031],[0.36713859997689724],218.16292569995858,218.36323729995638,6.1,218.36323729995638,1,6.1,1,1,1000,num_4,0.804251599824056,,34,14,2026-03-13_11h18.41.764,2026A_exp2,2022.2.4,59.81140269723851,
0,0,0.0,0.0,0,0,72,72,10,,,,,219.19733490003273,219.83132690005004,219.83132690005004,220.33254700014368,45,315,220.33254700014368,220.33254700014368,220.33254700014368,220.33254700014368,220.33254700014368,220.33254700014368,220.33254700014368,220.33254700014368,220.33254700014368,220.69885040004738,220.69885040004738,220.69885040004738,220.69885040004738,220.69885040004738,220.69885040004738,220.69885040004738,220.69885040004738,220.69885040004738,0,1,[0.0012789000757038593],[0.3673749000299722],220.69885040004738,220.89879160001874,0.0,220.89879160001874,1,0.0,0,0,1000,num_4,0.9252261999063194,,34,14,2026-03-13_11h18.41.764,2026A_exp2,2022.2.4,59.81140269723851,
1,0,0.0,3.7,1,0,73,73,83,,,,,221.84989410010166,222.50055440003052,222.50055440003052,222.98518550000153,315,315,222.98518550000153,222.98518550000153,222.98518550000153,222.98518550000153,222.98518550000153,222.98518550000153,222.98518550000153,222.98518550000153,222.98518550000153,223.35145319998264,223.35145319998264,223.35145319998264,223.35145319998264,223.35145319998264,223.35145319998264,223.35145319998264,223.35145319998264,223.35145319998264,0,1,[0.0012393000070005655],[0.3673222998622805],223.35145319998264,223.55180909996852,3.7,223.55180909996852,1,3.7,1,1,1000,num_4,1.3442641999572515,,34,14,2026-03-13_11h18.41.764,2026A_exp2,2022.2.4,59.81140269723851,
0,0,0.0,6.1,0,0,74,74,12,,,,,224.9196769001428,225.57041430007666,225.57041430007666,226.0549054001458,315,315,226.0549054001458,226.0549054001458,226.0549054001458,226.0549054001458,226.0549054001458,226.0549054001458,226.0549054001458,226.0549054001458,226.0549054001458,226.42115800012834,226.42115800012834,226.42115800012834,226.42115800012834,226.42115800012834,226.42115800012834,226.42115800012834,226.42115800012834,226.42115800012834,0,1,[0.0012079000007361174],[0.3672128999605775],226.42115800012834,226.6213784001302,6.1,226.6213784001302,1,6.1,1,1,1000,num_4,0.5457060998305678,,34,14,2026-03-13_11h18.41.764,2026A_exp2,2022.2.4,59.81140269723851,
0,0,4.9,4.9,0,0,75,75,88,,,,,227.18870460009202,227.8226817001123,227.8226817001123,228.32377050002106,45,45,228.32377050002106,228.32377050002106,228.32377050002106,228.32377050002106,228.32377050002106,228.32377050002106,228.32377050002106,228.32377050002106,228.32377050002106,228.6902221001219,228.6902221001219,228.6902221001219,228.6902221001219,228.6902221001219,228.6902221001219,228.6902221001219,228.6902221001219,228.6902221001219,0,1,[0.0011950000189244747],[0.36723760003224015],228.6902221001219,228.8904162000399,4.9,228.8904162000399,1,4.9,1,1,1000,num_4,0.6132340000476688,,34,14,2026-03-13_11h18.41.764,2026A_exp2,2022.2.4,59.81140269723851,
1,0,6.1,3.7,1,0,76,76,45,,,,,229.5241537000984,230.17510190000758,230.17510190000758,230.65954779996537,45,315,230.65954779996537,230.65954779996537,230.65954779996537,230.65954779996537,230.65954779996537,230.65954779996537,230.65954779996537,230.65954779996537,230.65954779996537,231.02588249999098,231.02588249999098,231.02588249999098,231.02588249999098,231.02588249999098,231.02588249999098,231.02588249999098,231.02588249999098,231.02588249999098,0,1,[0.0012089000083506107],[0.36711630015634],231.02588249999098,231.22602650010958,3.7,231.22602650010958,1,3.7,1,1,1000,num_4,0.5648170998319983,,34,14,2026-03-13_11h18.41.764,2026A_exp2,2022.2.4,59.81140269723851,
1000,1,6.1,0.0,1,0,77,77,61,,,,,231.80987960007042,232.46068820008077,232.46068820008077,232.94508700002916,315,45,232.94508700002916,232.94508700002916,232.94508700002916,232.94508700002916,232.94508700002916,232.94508700002916,232.94508700002916,232.94508700002916,232.94508700002916,233.31154979998246,233.31154979998246,233.31154979998246,233.31154979998246,233.31154979998246,233.31154979998246,233.31154979998246,233.31154979998246,233.31154979998246,0,1,[0.0012336000800132751],[0.36727249994874],233.31154979998246,233.51333510014229,1000,233.51333510014229,1000,1000,1000,1000,1,num_2,0.64566639973782,,34,14,2026-03-13_11h18.41.764,2026A_exp2,2022.2.4,59.81140269723851,
1000,1,4.9,3.7,1,0,78,78,46,,,,,234.17889109998941,234.8295919999946,234.8295919999946,235.33075800002553,315,45,235.33075800002553,235.33075800002553,235.33075800002553,235.33075800002553,235.33075800002553,235.33075800002553,235.33075800002553,235.33075800002553,235.33075800002553,235.6971746000927,235.6971746000927,235.6971746000927,235.6971746000927,235.6971746000927,235.6971746000927,235.6971746000927,235.6971746000927,235.6971746000927,0,1,[0.0012403998989611864],[0.3672684000339359],235.6971746000927,235.89963890006766,1000,235.89963890006766,1000,1000,1000,1000,1,num_2,0.6283210997935385,,34,14,2026-03-13_11h18.41.764,2026A_exp2,2022.2.4,59.81140269723851,
1,0,3.7,3.7,1,0,79,79,11,,,,,236.54790459992364,237.1986237000674,237.1986237000674,237.69991399999708,45,315,237.69991399999708,237.69991399999708,237.69991399999708,237.69991399999708,237.69991399999708,237.69991399999708,237.69991399999708,237.69991399999708,237.69991399999708,238.0662917001173,238.0662917001173,238.0662917001173,238.0662917001173,238.0662917001173,238.0662917001173,238.0662917001173,238.0662917001173,238.0662917001173,0,1,[0.0012429000344127417],[0.36744760000146925],238.0662917001173,238.2664179999847,3.7,238.2664179999847,1,3.7,1,1,1000,num_4,0.7651161998510361,,34,14,2026-03-13_11h18.41.764,2026A_exp2,2022.2.4,59.81140269723851,
1000,1,3.7,3.7,0,0,80,80,76,,,,,239.0505306001287,239.70127550000325,239.70127550000325,240.20240640011616,315,315,240.20240640011616,240.20240640011616,240.20240640011616,240.20240640011616,240.20240640011616,240.20240640011616,240.20240640011616,240.20240640011616,240.20240640011616,240.55200470006093,240.55200470006093,240.55200470006093,240.55200470006093,240.55200470006093,240.55200470006093,240.55200470006093,240.55200470006093,240.55200470006093,0,1,[0.0012905001640319824],[0.3505719001404941],240.55200470006093,240.75424479995854,1000,240.75424479995854,1000,1000,1000,1000,1,num_2,0.5892266998998821,,34,14,2026-03-13_11h18.41.764,2026A_exp2,2022.2.4,59.81140269723851,
1,0,4.9,0.0,0,0,81,81,19,,,,,241.3694289000705,242.02020910009742,242.02020910009742,242.52124670008197,45,45,242.52124670008197,242.52124670008197,242.52124670008197,242.52124670008197,242.52124670008197,242.52124670008197,242.52124670008197,242.52124670008197,242.52124670008197,242.88775800005533,242.88775800005533,242.88775800005533,242.88775800005533,242.88775800005533,242.88775800005533,242.88775800005533,242.88775800005533,242.88775800005533,0,1,[0.0012296000495553017],[0.36710670008324087],242.88775800005533,243.08794689993374,4.9,243.08794689993374,1,4.9,1,1,1000,num_4,0.743989999871701,,34,14,2026-03-13_11h18.41.764,2026A_exp2,2022.2.4,59.81140269723851,
1,0,6.1,0.0,0,0,82,82,58,,,,,243.85522309993394,244.4894233001396,244.4894233001396,244.99032300012186,45,45,244.99032300012186,244.99032300012186,244.99032300012186,244.99032300012186,244.99032300012186,244.99032300012186,244.99032300012186,244.99032300012186,244.99032300012186,245.35679510002956,245.35679510002956,245.35679510002956,245.35679510002956,245.35679510002956,245.35679510002956,245.35679510002956,245.35679510002956,245.35679510002956,0,1,[0.0016467999666929245],[0.3671796000562608],245.35679510002956,245.55704919993877,6.1,245.55704919993877,1,6.1,1,1,1000,num_4,0.6660713998135179,,34,14,2026-03-13_11h18.41.764,2026A_exp2,2022.2.4,59.81140269723851,
1000,1,6.1,3.7,0,0,83,83,43,,,,,246.24101060000248,246.89182720007375,246.89182720007375,247.37620900012553,45,315,247.37620900012553,247.37620900012553,247.37620900012553,247.37620900012553,247.37620900012553,247.37620900012553,247.37620900012553,247.37620900012553,247.37620900012553,247.74250139994547,247.74250139994547,247.74250139994547,247.74250139994547,247.74250139994547,247.74250139994547,247.74250139994547,247.74250139994547,247.74250139994547,0,1,[0.0012469000648707151],[0.36703960015438497],247.74250139994547,247.943348800065,1000,247.943348800065,1000,1000,1000,1000,1,num_2,1.072861700085923,,34,14,2026-03-13_11h18.41.764,2026A_exp2,2022.2.4,59.81140269723851,
1,0,0.0,0.0,1,0,84,84,77,,,,,249.04397200001404,249.69455950008705,249.69455950008705,250.1956271000672,45,45,250.1956271000672,250.1956271000672,250.1956271000672,250.1956271000672,250.1956271000672,250.1956271000672,250.1956271000672,250.1956271000672,250.1956271000672,250.56204649992287,250.56204649992287,250.56204649992287,250.56204649992287,250.56204649992287,250.56204649992287,250.56204649992287,250.56204649992287,250.56204649992287,0,1,[0.0012222998775541782],[0.36714429990388453],250.56204649992287,250.7622318000067,0.0,250.7622318000067,1,0.0,0,0,1000,num_4,0.7812998997978866,,34,14,2026-03-13_11h18.41.764,2026A_exp2,2022.2.4,59.81140269723851,
1,0,0.0,0.0,1,0,85,85,56,,,,,251.56299140001647,252.21373690012842,252.21373690012842,252.69807790010236,315,45,252.69807790010236,252.69807790010236,252.69807790010236,252.69807790010236,252.69807790010236,252.69807790010236,252.69807790010236,252.69807790010236,252.69807790010236,253.06464520003647,253.06464520003647,253.06464520003647,253.06464520003647,253.06464520003647,253.06464520003647,253.06464520003647,253.06464520003647,253.06464520003647,0,1,[0.0012376999948173761],[0.36715790000744164],253.06464520003647,253.26466919993982,0.0,253.26466919993982,0,0.0,0,1,1000,num_1,1.1421142998151481,,34,14,2026-03-13_11h18.41.764,2026A_exp2,2022.2.4,59.81140269723851,
1000,1,4.9,6.1,0,0,86,86,35,,,,,254.43253899994306,255.0831741001457,255.0831741001457,255.56773909996264,45,315,255.56773909996264,255.56773909996264,255.56773909996264,255.56773909996264,255.56773909996264,255.56773909996264,255.56773909996264,255.56773909996264,255.56773909996264,255.93411989999004,255.93411989999004,255.93411989999004,255.93411989999004,255.93411989999004,255.93411989999004,255.93411989999004,255.93411989999004,255.93411989999004,0,1,[0.001249199965968728],[0.3670777000952512],255.93411989999004,256.1359222999308,1000,256.1359222999308,1000,1000,1000,1000,1,num_2,1.0238463000860065,,34,14,2026-03-13_11h18.41.764,2026A_exp2,2022.2.4,59.81140269723851,
0,0,0.0,0.0,0,0,87,87,20,,,,,257.1853332000319,257.8360526000615,257.8360526000615,258.337137500057,45,45,258.337137500057,258.337137500057,258.337137500057,258.337137500057,258.337137500057,258.337137500057,258.337137500057,258.337137500057,258.337137500057,258.70360970008187,258.70360970008187,258.70360970008187,258.70360970008187,258.70360970008187,258.70360970008187,258.70360970008187,258.70360970008187,258.70360970008187,0,1,[0.0009090001694858074],[0.36744230007752776],258.70360970008187,258.9037333999295,0.0,258.9037333999295,1,0.0,0,0,1000,num_4,0.6404289999045432,,34,14,2026-03-13_11h18.41.764,2026A_exp2,2022.2.4,59.81140269723851,
1,0,3.7,0.0,1,0,88,88,55,,,,,259.5709250001237,260.2217812000308,260.2217812000308,260.70621410012245,45,315,260.70621410012245,260.70621410012245,260.70621410012245,260.70621410012245,260.70621410012245,260.70621410012245,260.70621410012245,260.70621410012245,260.70621410012245,261.07224690006115,261.07224690006115,261.07224690006115,261.07224690006115,261.07224690006115,261.07224690006115,261.07224690006115,261.07224690006115,261.07224690006115,0,1,[0.0013772000093013048],[0.36707779997959733],261.07224690006115,261.2730531000998,0.0,261.2730531000998,1,0.0,0,0,1000,num_4,0.8864684000145644,,34,14,2026-03-13_11h18.41.764,2026A_exp2,2022.2.4,59.81140269723851,
1,0,0.0,0.0,0,0,89,89,64,,,,,262.17402069992386,262.82555419998243,262.82555419998243,263.32534070010297,315,315,263.32534070010297,263.32534070010297,263.32534070010297,263.32534070010297,263.32534070010297,263.32534070010297,263.32534070010297,263.32534070010297,263.32534070010297,263.6917538000271,263.6917538000271,263.6917538000271,263.6917538000271,263.6917538000271,263.6917538000271,263.6917538000271,263.6917538000271,263.6917538000271,0,1,[0.0012083000037819147],[0.3670709999278188],263.6917538000271,263.8918972001411,0.0,263.8918972001411,0,0.0,0,1,1000,num_1,0.7402155997697264,,34,14,2026-03-13_11h18.41.764,2026A_exp2,2022.2.4,59.81140269723851,
,,,,,,,,,,,,,,,,,,,,,,,,,,,,,,,,,,,,,,,,,,,,,,,,,,,,264.6596210000571,,,,,,,
