validity,detectorcomp,contrastCW,contrastCCW,precueCWorCCW,block_80trials.thisRepN,block_80trials.thisTrialN,block_80trials.thisN,block_80trials.thisIndex,etRecord.started,etRecord.stopped,text.started,text.stopped,text_4.started,text_4.stopped,text_6.started,text_6.stopped,oriCW,oriCCW,roi_2.started,grating_UR.started,grating_UL.started,grating_LR.started,grating_LL.started,noise_UR.started,noise_UL.started,noise_LR.started,noise_LL.started,roi_2.stopped,grating_UR.stopped,grating_UL.stopped,grating_LR.stopped,grating_LL.stopped,noise_UR.stopped,noise_UL.stopped,noise_LR.stopped,noise_LL.stopped,outframe,roi_2.numLooks,roi_2.timesOn,roi_2.timesOff,text_2.started,text_2.stopped,probedcontrast,key_resp.started,respdetect,relevantContrast,correctDetect,TorFdetect,respCWorCCW,key_resp.keys,key_resp.rt,feedback_display_.started,participantNo,blockNo,date,expName,psychopyVersion,frameRate,
1000,1,6.1,0.0,0,0,0,0,14,0.00015460001304745674,0.00015460001304745674,46.99743149988353,49.00221479986794,49.00221479986794,49.63427859987132,49.63427859987132,50.15512889996171,315,45,50.15512889996171,50.15512889996171,50.15512889996171,50.15512889996171,50.15512889996171,50.15512889996171,50.15512889996171,50.15512889996171,50.15512889996171,50.501990099903196,50.501990099903196,50.501990099903196,50.501990099903196,50.501990099903196,50.501990099903196,50.501990099903196,50.501990099903196,50.501990099903196,0,1,[0.0009254999458789825],[0.3676115998532623],50.501990099903196,50.7090616999194,1000,50.7090616999194,1000,1000,1000,1000,0,num_3,0.4472618999425322,,33,10,2026-03-12_18h04.41.423,2026A_exp2,2022.2.4,59.931630006135016,
1,0,0.0,6.1,1,0,1,1,36,,,,,51.18566499999724,51.82000319985673,51.82000319985673,52.32096079993062,315,45,52.32096079993062,52.32096079993062,52.32096079993062,52.32096079993062,52.32096079993062,52.32096079993062,52.32096079993062,52.32096079993062,52.32096079993062,52.68755939998664,52.68755939998664,52.68755939998664,52.68755939998664,52.68755939998664,52.68755939998664,52.68755939998664,52.68755939998664,52.68755939998664,7,1,[0.11698759999126196],[0.3673322000540793],52.68755939998664,52.88774279993959,6.1,52.88774279993959,1,6.1,1,1,1000,num_4,0.651736999861896,,33,10,2026-03-12_18h04.41.423,2026A_exp2,2022.2.4,59.931630006135016,
1000,1,0.0,3.7,1,0,2,2,47,,,,,53.5551197999157,54.20562059991062,54.20562059991062,54.706736699910834,315,45,54.706736699910834,54.706736699910834,54.706736699910834,54.706736699910834,54.706736699910834,54.706736699910834,54.706736699910834,54.706736699910834,54.706736699910834,55.07321779988706,55.07321779988706,55.07321779988706,55.07321779988706,55.07321779988706,55.07321779988706,55.07321779988706,55.07321779988706,55.07321779988706,0,1,[0.0012101999018341303],[0.3672517999075353],55.07321779988706,55.27510489989072,1000,55.27510489989072,1000,1000,1000,1000,1,num_2,0.22517369990237057,,33,10,2026-03-12_18h04.41.423,2026A_exp2,2022.2.4,59.931630006135016,
1000,1,0.0,3.7,0,0,3,3,78,,,,,55.52381809987128,56.18591089989059,56.18591089989059,56.67532319994643,45,315,56.67532319994643,56.67532319994643,56.67532319994643,56.67532319994643,56.67532319994643,56.67532319994643,56.67532319994643,56.67532319994643,56.67532319994643,57.04175449977629,57.04175449977629,57.04175449977629,57.04175449977629,57.04175449977629,57.04175449977629,57.04175449977629,57.04175449977629,57.04175449977629,13,1,[0.0012437999248504639],[0.1667804999742657],57.04175449977629,57.24441189994104,1000,57.24441189994104,1000,1000,1000,1000,1,num_2,0.2961832000873983,,33,10,2026-03-12_18h04.41.423,2026A_exp2,2022.2.4,59.931630006135016,
1000,1,0.0,0.0,0,0,4,4,64,,,,,57.559085899963975,58.20961759984493,58.20961759984493,58.710748199839145,315,45,58.710748199839145,58.710748199839145,58.710748199839145,58.710748199839145,58.710748199839145,58.710748199839145,58.710748199839145,58.710748199839145,58.710748199839145,59.0772597999312,59.0772597999312,59.0772597999312,59.0772597999312,59.0772597999312,59.0772597999312,59.0772597999312,59.0772597999312,59.0772597999312,0,1,[0.001236999873071909],[0.3672058000229299],59.0772597999312,59.279265199787915,1000,59.279265199787915,1000,1000,1000,1000,0,num_3,0.372609700076282,,33,10,2026-03-12_18h04.41.423,2026A_exp2,2022.2.4,59.931630006135016,
1,0,0.0,6.1,0,0,5,5,60,,,,,59.67781379981898,60.32836149982177,60.32836149982177,60.81443499983288,45,315,60.81443499983288,60.81443499983288,60.81443499983288,60.81443499983288,60.81443499983288,60.81443499983288,60.81443499983288,60.81443499983288,60.81443499983288,61.17923229979351,61.17923229979351,61.17923229979351,61.17923229979351,61.17923229979351,61.17923229979351,61.17923229979351,61.17923229979351,61.17923229979351,0,1,[0.0019364000763744116],[0.3663325000088662],61.17923229979351,61.37944639986381,0.0,61.37944639986381,0,0.0,0,1,1000,num_1,0.6414317998569459,,33,10,2026-03-12_18h04.41.423,2026A_exp2,2022.2.4,59.931630006135016,
1000,1,6.1,0.0,1,0,6,6,30,,,,,62.046734099974856,62.6976228998974,62.6976228998974,63.18212779983878,45,45,63.18212779983878,63.18212779983878,63.18212779983878,63.18212779983878,63.18212779983878,63.18212779983878,63.18212779983878,63.18212779983878,63.18212779983878,63.54840539977886,63.54840539977886,63.54840539977886,63.54840539977886,63.54840539977886,63.54840539977886,63.54840539977886,63.54840539977886,63.54840539977886,0,1,[0.0007130000740289688],[0.367451700149104],63.54840539977886,63.75009449990466,1000,63.75009449990466,1000,1000,1000,1000,0,num_3,0.2543490999378264,,33,10,2026-03-12_18h04.41.423,2026A_exp2,2022.2.4,59.931630006135016,
1000,1,6.1,0.0,0,0,7,7,82,,,,,64.03205039980821,64.68286269996315,64.68286269996315,65.1839941998478,45,45,65.1839941998478,65.1839941998478,65.1839941998478,65.1839941998478,65.1839941998478,65.1839941998478,65.1839941998478,65.1839941998478,65.1839941998478,65.55037979991175,65.55037979991175,65.55037979991175,65.55037979991175,65.55037979991175,65.55037979991175,65.55037979991175,65.55037979991175,65.55037979991175,0,1,[0.0012438998091965914],[0.3671903000213206],65.55037979991175,65.75246619991958,1000,65.75246619991958,1000,1000,1000,1000,0,num_3,0.3470783999655396,,33,10,2026-03-12_18h04.41.423,2026A_exp2,2022.2.4,59.931630006135016,
1,0,3.7,0.0,0,0,8,8,3,,,,,66.11757479980588,66.76824459992349,66.76824459992349,67.2693073998671,45,315,67.2693073998671,67.2693073998671,67.2693073998671,67.2693073998671,67.2693073998671,67.2693073998671,67.2693073998671,67.2693073998671,67.2693073998671,67.61918879998848,67.61918879998848,67.61918879998848,67.61918879998848,67.61918879998848,67.61918879998848,67.61918879998848,67.61918879998848,67.61918879998848,0,1,[0.0013035000301897526],[0.35059689986519516],67.61918879998848,67.81929509993643,3.7,67.83613569987938,1,3.7,1,1,1000,num_4,0.6324024999048561,,33,10,2026-03-12_18h04.41.423,2026A_exp2,2022.2.4,59.931630006135016,
1000,1,4.9,0.0,0,0,9,9,26,,,,,68.48646319983527,69.1372744999826,69.1372744999826,69.62159959995188,45,315,69.62159959995188,69.62159959995188,69.62159959995188,69.62159959995188,69.62159959995188,69.62159959995188,69.62159959995188,69.62159959995188,69.62159959995188,69.98817339981906,69.98817339981906,69.98817339981906,69.98817339981906,69.98817339981906,69.98817339981906,69.98817339981906,69.98817339981906,69.98817339981906,0,1,[0.0012139000464230776],[0.3672736999578774],69.98817339981906,70.19003719999455,1000,70.19003719999455,1000,1000,1000,1000,0,num_3,0.14979069982655346,,33,10,2026-03-12_18h04.41.423,2026A_exp2,2022.2.4,59.931630006135016,
1000,1,0.0,4.9,1,0,10,10,79,,,,,70.35509239998646,71.00581099977717,71.00581099977717,71.50688109989278,315,45,71.50688109989278,71.50688109989278,71.50688109989278,71.50688109989278,71.50688109989278,71.50688109989278,71.50688109989278,71.50688109989278,71.50688109989278,71.87327729980461,71.87327729980461,71.87327729980461,71.87327729980461,71.87327729980461,71.87327729980461,71.87327729980461,71.87327729980461,71.87327729980461,1,2,"[0.0012558000162243843, 0.08355739992111921]","[0.0501524000428617, 0.36713919998146594]",71.87327729980461,72.0816416000016,1000,72.0816416000016,1000,1000,1000,1000,1,num_2,0.10636789980344474,,33,10,2026-03-12_18h04.41.423,2026A_exp2,2022.2.4,59.931630006135016,
1,0,0.0,0.0,0,0,11,11,63,,,,,72.20696739992127,72.85769319999963,72.85769319999963,73.35881189978682,315,315,73.35881189978682,73.35881189978682,73.35881189978682,73.35881189978682,73.35881189978682,73.35881189978682,73.35881189978682,73.35881189978682,73.35881189978682,73.72524239984341,73.72524239984341,73.72524239984341,73.72524239984341,73.72524239984341,73.72524239984341,73.72524239984341,73.72524239984341,73.72524239984341,0,1,[0.0012423000298440456],[0.36732469988055527],73.72524239984341,73.92527779983357,0.0,73.92527779983357,1,0.0,0,0,1000,num_4,0.9751579998992383,,33,10,2026-03-12_18h04.41.423,2026A_exp2,2022.2.4,59.931630006135016,
1000,1,3.7,0.0,0,0,12,12,57,,,,,74.92629779991694,75.57705909991637,75.57705909991637,76.06150859990157,315,315,76.06150859990157,76.06150859990157,76.06150859990157,76.06150859990157,76.06150859990157,76.06150859990157,76.06150859990157,76.06150859990157,76.06150859990157,76.42792649986222,76.42792649986222,76.42792649986222,76.42792649986222,76.42792649986222,76.42792649986222,76.42792649986222,76.42792649986222,76.42792649986222,0,1,[0.0012572999112308025],[0.36707379994913936],76.42792649986222,76.62966469977982,1000,76.62966469977982,1000,1000,1000,1000,0,num_3,0.3099819999188185,,33,10,2026-03-12_18h04.41.423,2026A_exp2,2022.2.4,59.931630006135016,
0,0,0.0,0.0,1,0,13,13,89,,,,,76.9616815999616,77.61245269980282,77.61245269980282,78.11346979998052,315,315,78.11346979998052,78.11346979998052,78.11346979998052,78.11346979998052,78.11346979998052,78.11346979998052,78.11346979998052,78.11346979998052,78.11346979998052,78.46322829998098,78.46322829998098,78.46322829998098,78.46322829998098,78.46322829998098,78.46322829998098,78.46322829998098,78.46322829998098,78.46322829998098,0,1,[0.0012171999551355839],[0.3506694999523461],78.46322829998098,78.6634678998962,0.0,78.6634678998962,1,0.0,0,0,1000,num_4,1.0519860999193043,,33,10,2026-03-12_18h04.41.423,2026A_exp2,2022.2.4,59.931630006135016,
1,0,0.0,0.0,0,0,14,14,1,,,,,79.74787299986929,80.38186219986528,80.38186219986528,80.8829340999946,45,45,80.8829340999946,80.8829340999946,80.8829340999946,80.8829340999946,80.8829340999946,80.8829340999946,80.8829340999946,80.8829340999946,80.8829340999946,81.24946269998327,81.24946269998327,81.24946269998327,81.24946269998327,81.24946269998327,81.24946269998327,81.24946269998327,81.24946269998327,81.24946269998327,0,1,[0.0010525998659431934],[0.36715730000287294],81.24946269998327,81.44948179996572,0.0,81.44948179996572,0,0.0,0,1,1000,num_1,0.7228135999757797,,33,10,2026-03-12_18h04.41.423,2026A_exp2,2022.2.4,59.931630006135016,
1,0,3.7,3.7,0,0,15,15,13,,,,,82.20015229983255,82.85101769980974,82.85101769980974,83.33544999989681,45,315,83.33544999989681,83.33544999989681,83.33544999989681,83.33544999989681,83.33544999989681,83.33544999989681,83.33544999989681,83.33544999989681,83.33544999989681,83.70185249997303,83.70185249997303,83.70185249997303,83.70185249997303,83.70185249997303,83.70185249997303,83.70185249997303,83.70185249997303,83.70185249997303,0,1,[0.0007207999005913734],[0.3674773999955505],83.70185249997303,83.90198519988917,3.7,83.90198519988917,0,3.7,1,0,1000,num_1,0.870850200066343,,33,10,2026-03-12_18h04.41.423,2026A_exp2,2022.2.4,59.931630006135016,
1000,1,4.9,0.0,1,0,16,16,5,,,,,84.80282279988751,85.4536444998812,85.4536444998812,85.93807409983128,315,315,85.93807409983128,85.93807409983128,85.93807409983128,85.93807409983128,85.93807409983128,85.93807409983128,85.93807409983128,85.93807409983128,85.93807409983128,86.3042783997953,86.3042783997953,86.3042783997953,86.3042783997953,86.3042783997953,86.3042783997953,86.3042783997953,86.3042783997953,86.3042783997953,22,1,[0.0012634999584406614],[0.0174579001031816],86.3042783997953,86.50675659999251,1000,86.50675659999251,1000,1000,1000,1000,0,num_3,0.3700685000512749,,33,10,2026-03-12_18h04.41.423,2026A_exp2,2022.2.4,59.931630006135016,
1000,1,6.1,0.0,1,0,17,17,69,,,,,86.90508589986712,87.55572479986586,87.55572479986586,88.05696069984697,315,45,88.05696069984697,88.05696069984697,88.05696069984697,88.05696069984697,88.05696069984697,88.05696069984697,88.05696069984697,88.05696069984697,88.05696069984697,88.42325169988908,88.42325169988908,88.42325169988908,88.42325169988908,88.42325169988908,88.42325169988908,88.42325169988908,88.42325169988908,88.42325169988908,0,1,[0.0012297001667320728],[0.36727950000204146],88.42325169988908,88.62545319995843,1000,88.62545319995843,1000,1000,1000,1000,0,num_3,0.30677709984593093,,33,10,2026-03-12_18h04.41.423,2026A_exp2,2022.2.4,59.931630006135016,
1,0,0.0,6.1,0,0,18,18,34,,,,,88.95698669995181,89.60748199978843,89.60748199978843,90.10854929988272,45,45,90.10854929988272,90.10854929988272,90.10854929988272,90.10854929988272,90.10854929988272,90.10854929988272,90.10854929988272,90.10854929988272,90.10854929988272,90.47528639994562,90.47528639994562,90.47528639994562,90.47528639994562,90.47528639994562,90.47528639994562,90.47528639994562,90.47528639994562,90.47528639994562,0,1,[0.0007366000209003687],[0.36780120013281703],90.47528639994562,90.67529949988239,0.0,90.67529949988239,0,0.0,0,1,1000,num_1,0.6564535000361502,,33,10,2026-03-12_18h04.41.423,2026A_exp2,2022.2.4,59.931630006135016,
1000,1,0.0,4.9,1,0,19,19,31,,,,,91.35939809982665,92.01017609983683,92.01017609983683,92.49463949981146,45,45,92.49463949981146,92.49463949981146,92.49463949981146,92.49463949981146,92.49463949981146,92.49463949981146,92.49463949981146,92.49463949981146,92.49463949981146,92.86103449994698,92.86103449994698,92.86103449994698,92.86103449994698,92.86103449994698,92.86103449994698,92.86103449994698,92.86103449994698,92.86103449994698,1,1,[0.01743829995393753],[0.36705709993839264],92.86103449994698,93.0633886998985,1000,93.0633886998985,1000,1000,1000,1000,1,num_2,0.23612670018337667,,33,10,2026-03-12_18h04.41.423,2026A_exp2,2022.2.4,59.931630006135016,
1000,1,4.9,6.1,0,0,20,20,20,,,,,93.327787599992,93.96221699984744,93.96221699984744,94.46310129994527,45,45,94.46310129994527,94.46310129994527,94.46310129994527,94.46310129994527,94.46310129994527,94.46310129994527,94.46310129994527,94.46310129994527,94.46310129994527,94.82966409996152,94.82966409996152,94.82966409996152,94.82966409996152,94.82966409996152,94.82966409996152,94.82966409996152,94.82966409996152,94.82966409996152,0,1,[0.0012032999657094479],[0.3672907999716699],94.82966409996152,95.03150469996035,1000,95.03150469996035,1000,1000,1000,1000,1,num_2,0.23611490009352565,,33,10,2026-03-12_18h04.41.423,2026A_exp2,2022.2.4,59.931630006135016,
1000,1,0.0,0.0,1,0,21,21,67,,,,,95.29685149993747,95.94741609995253,95.94741609995253,96.44845099980012,45,315,96.44845099980012,96.44845099980012,96.44845099980012,96.44845099980012,96.44845099980012,96.44845099980012,96.44845099980012,96.44845099980012,96.44845099980012,96.8149593998678,96.8149593998678,96.8149593998678,96.8149593998678,96.8149593998678,96.8149593998678,96.8149593998678,96.8149593998678,96.8149593998678,0,1,[0.0012197000905871391],[0.36711500003002584],96.8149593998678,97.01698399987072,1000,97.01698399987072,1000,1000,1000,1000,0,num_3,0.3545925999060273,,33,10,2026-03-12_18h04.41.423,2026A_exp2,2022.2.4,59.931630006135016,
1000,1,0.0,4.9,1,0,22,22,59,,,,,97.39869199995883,98.04962319997139,98.04962319997139,98.55081609985791,45,315,98.55081609985791,98.55081609985791,98.55081609985791,98.55081609985791,98.55081609985791,98.55081609985791,98.55081609985791,98.55081609985791,98.55081609985791,98.90031599998474,98.90031599998474,98.90031599998474,98.90031599998474,98.90031599998474,98.90031599998474,98.90031599998474,98.90031599998474,98.90031599998474,0,1,[0.0015211999416351318],[0.3506607001181692],98.90031599998474,99.10098409978673,1000,99.10098409978673,1000,1000,1000,1000,1,num_2,0.15123609988950193,,33,10,2026-03-12_18h04.41.423,2026A_exp2,2022.2.4,59.931630006135016,
1,0,4.9,0.0,1,0,23,23,38,,,,,99.26737269992009,99.91786119993776,99.91786119993776,100.41912629990838,315,315,100.41912629990838,100.41912629990838,100.41912629990838,100.41912629990838,100.41912629990838,100.41912629990838,100.41912629990838,100.41912629990838,100.41912629990838,100.78557989979163,100.78557989979163,100.78557989979163,100.78557989979163,100.78557989979163,100.78557989979163,100.78557989979163,100.78557989979163,100.78557989979163,4,1,[0.06689429981634021],[0.36722949985414743],100.78557989979163,100.9859973997809,0.0,100.9859973997809,0,0.0,0,1,1000,num_1,0.6663452999200672,,33,10,2026-03-12_18h04.41.423,2026A_exp2,2022.2.4,59.931630006135016,
1000,1,0.0,6.1,0,0,24,24,37,,,,,101.6696511998307,102.32034599990584,102.32034599990584,102.80481719993986,315,315,102.80481719993986,102.80481719993986,102.80481719993986,102.80481719993986,102.80481719993986,102.80481719993986,102.80481719993986,102.80481719993986,102.80481719993986,103.17129129986279,103.17129129986279,103.17129129986279,103.17129129986279,103.17129129986279,103.17129129986279,103.17129129986279,103.17129129986279,103.17129129986279,0,1,[0.0012194998562335968],[0.3671742998994887],103.17129129986279,103.37136509991251,1000,103.37136509991251,1000,1000,1000,1000,1,num_2,0.2566207000054419,,33,10,2026-03-12_18h04.41.423,2026A_exp2,2022.2.4,59.931630006135016,
1,0,0.0,6.1,1,0,25,25,40,,,,,103.654996199999,104.30577679979615,104.30577679979615,104.80694309994578,45,45,104.80694309994578,104.80694309994578,104.80694309994578,104.80694309994578,104.80694309994578,104.80694309994578,104.80694309994578,104.80694309994578,104.80694309994578,105.17336749983951,105.17336749983951,105.17336749983951,105.17336749983951,105.17336749983951,105.17336749983951,105.17336749983951,105.17336749983951,105.17336749983951,1,2,"[0.0012074001133441925, 0.2834664999973029]","[0.2668337000068277, 0.3669946000445634]",105.17336749983951,105.37357839988545,6.1,105.37357839988545,1,6.1,1,1,1000,num_4,0.6465892000123858,,33,10,2026-03-12_18h04.41.423,2026A_exp2,2022.2.4,59.931630006135016,
1000,1,3.7,0.0,0,0,26,26,2,,,,,106.04088489990681,106.67511640000157,106.67511640000157,107.17576189991087,45,315,107.17576189991087,107.17576189991087,107.17576189991087,107.17576189991087,107.17576189991087,107.17576189991087,107.17576189991087,107.17576189991087,107.17576189991087,107.54232789995149,107.54232789995149,107.54232789995149,107.54232789995149,107.54232789995149,107.54232789995149,107.54232789995149,107.54232789995149,107.54232789995149,0,1,[0.001628299942240119],[0.3668490001000464],107.54232789995149,107.74298619991168,1000,107.74298619991168,1000,1000,1000,1000,0,num_3,0.20564779988490045,,33,10,2026-03-12_18h04.41.423,2026A_exp2,2022.2.4,59.931630006135016,
1,0,3.7,6.1,0,0,27,27,55,,,,,107.97600809996948,108.62648179987445,108.62648179987445,109.12776009994559,45,45,109.12776009994559,109.12776009994559,109.12776009994559,109.12776009994559,109.12776009994559,109.12776009994559,109.12776009994559,109.12776009994559,109.12776009994559,109.49433609982952,109.49433609982952,109.49433609982952,109.49433609982952,109.49433609982952,109.49433609982952,109.49433609982952,109.49433609982952,109.49433609982952,0,1,[0.0012655002065002918],[0.36694320011883974],109.49433609982952,109.69453429989517,3.7,109.69453429989517,0,3.7,1,0,1000,num_1,1.5895096000749618,,33,10,2026-03-12_18h04.41.423,2026A_exp2,2022.2.4,59.931630006135016,
1000,1,4.9,0.0,1,0,28,28,22,,,,,111.31266879988834,111.96358249988407,111.96358249988407,112.46447029989213,45,45,112.46447029989213,112.46447029989213,112.46447029989213,112.46447029989213,112.46447029989213,112.46447029989213,112.46447029989213,112.46447029989213,112.46447029989213,112.83096609986387,112.83096609986387,112.83096609986387,112.83096609986387,112.83096609986387,112.83096609986387,112.83096609986387,112.83096609986387,112.83096609986387,0,1,[0.0012388001196086407],[0.3669523000717163],112.83096609986387,113.03324329992756,1000,113.03324329992756,1000,1000,1000,1000,0,num_3,0.23484320007264614,,33,10,2026-03-12_18h04.41.423,2026A_exp2,2022.2.4,59.931630006135016,
1,0,0.0,0.0,1,0,29,29,87,,,,,113.29796579992399,113.94872819981538,113.94872819981538,114.44990179990418,315,315,114.44990179990418,114.44990179990418,114.44990179990418,114.44990179990418,114.44990179990418,114.44990179990418,114.44990179990418,114.44990179990418,114.44990179990418,114.81633279984817,114.81633279984817,114.81633279984817,114.81633279984817,114.81633279984817,114.81633279984817,114.81633279984817,114.81633279984817,114.81633279984817,5,5,"[0.0012395998928695917, 0.16661029984243214, 0.20004769996739924, 0.30023199995048344, 0.33353249984793365]","[0.13336599990725517, 0.18341269996017218, 0.283351699821651, 0.31656680000014603, 0.3668762999586761]",114.81633279984817,115.0164988997858,0.0,115.0164988997858,0,0.0,0,1,1000,num_1,0.5802039001137018,,33,10,2026-03-12_18h04.41.423,2026A_exp2,2022.2.4,59.931630006135016,
1,0,0.0,0.0,0,0,30,30,29,,,,,115.61697829980403,116.2676528999582,116.2676528999582,116.7523126997985,45,315,116.7523126997985,116.7523126997985,116.7523126997985,116.7523126997985,116.7523126997985,116.7523126997985,116.7523126997985,116.7523126997985,116.7523126997985,117.11851159995422,117.11851159995422,117.11851159995422,117.11851159995422,117.11851159995422,117.11851159995422,117.11851159995422,117.11851159995422,117.11851159995422,0,1,[0.0011697998270392418],[0.3674196000210941],117.11851159995422,117.31880939984694,0.0,117.31880939984694,0,0.0,0,1,1000,num_1,0.7579912999644876,,33,10,2026-03-12_18h04.41.423,2026A_exp2,2022.2.4,59.931630006135016,
1,0,0.0,4.9,0,0,31,31,4,,,,,118.10283129988238,118.7537524998188,118.7537524998188,119.23804999981076,45,315,119.23804999981076,119.23804999981076,119.23804999981076,119.23804999981076,119.23804999981076,119.23804999981076,119.23804999981076,119.23804999981076,119.23804999981076,119.6044389999006,119.6044389999006,119.6044389999006,119.6044389999006,119.6044389999006,119.6044389999006,119.6044389999006,119.6044389999006,119.6044389999006,0,1,[0.0011881000827997923],[0.3667939000297338],119.6044389999006,119.8043060998898,0.0,119.8043060998898,0,0.0,0,1,1000,num_1,0.5684465998783708,,33,10,2026-03-12_18h04.41.423,2026A_exp2,2022.2.4,59.931630006135016,
1000,1,4.9,3.7,0,0,32,32,32,,,,,120.3886598998215,121.0391304998193,121.0391304998193,121.54015009989962,315,315,121.54015009989962,121.54015009989962,121.54015009989962,121.54015009989962,121.54015009989962,121.54015009989962,121.54015009989962,121.54015009989962,121.54015009989962,121.90675899991766,121.90675899991766,121.90675899991766,121.90675899991766,121.90675899991766,121.90675899991766,121.90675899991766,121.90675899991766,121.90675899991766,0,1,[0.0012480998411774635],[0.3670415999367833],121.90675899991766,122.10923719988205,1000,122.10923719988205,1000,1000,1000,1000,0,num_3,0.334601900074631,,33,10,2026-03-12_18h04.41.423,2026A_exp2,2022.2.4,59.931630006135016,
1,0,0.0,3.7,1,0,33,33,66,,,,,122.47381439991295,123.12457749992609,123.12457749992609,123.62575609982014,45,315,123.62575609982014,123.62575609982014,123.62575609982014,123.62575609982014,123.62575609982014,123.62575609982014,123.62575609982014,123.62575609982014,123.62575609982014,123.99209579988383,123.99209579988383,123.99209579988383,123.99209579988383,123.99209579988383,123.99209579988383,123.99209579988383,123.99209579988383,123.99209579988383,0,1,[0.0009542000479996204],[0.36748500005342066],123.99209579988383,124.19240759988315,3.7,124.19240759988315,1,3.7,1,1,1000,num_4,0.6597742999438196,,33,10,2026-03-12_18h04.41.423,2026A_exp2,2022.2.4,59.931630006135016,
1000,1,3.7,4.9,1,0,34,34,43,,,,,124.87639119988307,125.51016419986263,125.51016419986263,126.01146369986236,315,315,126.01146369986236,126.01146369986236,126.01146369986236,126.01146369986236,126.01146369986236,126.01146369986236,126.01146369986236,126.01146369986236,126.01146369986236,126.37744789989665,126.37744789989665,126.37744789989665,126.37744789989665,126.37744789989665,126.37744789989665,126.37744789989665,126.37744789989665,126.37744789989665,0,1,[0.0012054999824613333],[0.36728359991684556],126.37744789989665,126.5799070999492,1000,126.5799070999492,1000,1000,1000,1000,1,num_2,0.32767540006898344,,33,10,2026-03-12_18h04.41.423,2026A_exp2,2022.2.4,59.931630006135016,
1000,1,3.7,4.9,1,0,35,35,46,,,,,126.92825159989297,127.57901449990459,127.57901449990459,128.06375809991732,45,45,128.06375809991732,128.06375809991732,128.06375809991732,128.06375809991732,128.06375809991732,128.06375809991732,128.06375809991732,128.06375809991732,128.06375809991732,128.44655789993703,128.44655789993703,128.44655789993703,128.44655789993703,128.44655789993703,128.44655789993703,128.44655789993703,128.44655789993703,128.44655789993703,0,1,[0.0007176999934017658],[0.3831480999942869],128.44655789993703,128.6487106999848,1000,128.6487106999848,1000,1000,1000,1000,1,num_2,0.2909873998723924,,33,10,2026-03-12_18h04.41.423,2026A_exp2,2022.2.4,59.931630006135016,
1,0,3.7,0.0,0,0,36,36,42,,,,,128.96364259999245,129.61429289984517,129.61429289984517,130.11558919982053,315,45,130.11558919982053,130.11558919982053,130.11558919982053,130.11558919982053,130.11558919982053,130.11558919982053,130.11558919982053,130.11558919982053,130.11558919982053,130.48204709985293,130.48204709985293,130.48204709985293,130.48204709985293,130.48204709985293,130.48204709985293,130.48204709985293,130.48204709985293,130.48204709985293,0,1,[0.0012647002004086971],[0.36685850005596876],130.48204709985293,130.69402119982988,3.7,130.69402119982988,1,3.7,1,1,1000,num_4,0.7583552000578493,,33,10,2026-03-12_18h04.41.423,2026A_exp2,2022.2.4,59.931630006135016,
1000,1,6.1,0.0,1,0,37,37,75,,,,,131.48270519985817,132.13365340000018,132.13365340000018,132.63452659989707,315,45,132.63452659989707,132.63452659989707,132.63452659989707,132.63452659989707,132.63452659989707,132.63452659989707,132.63452659989707,132.63452659989707,132.63452659989707,132.98447309993207,132.98447309993207,132.98447309993207,132.98447309993207,132.98447309993207,132.98447309993207,132.98447309993207,132.98447309993207,132.98447309993207,0,1,[0.0014096000231802464],[0.3501430000178516],132.98447309993207,133.18690189998597,1000,133.18690189998597,1000,1000,1000,1000,0,num_3,0.25807849992997944,,33,10,2026-03-12_18h04.41.423,2026A_exp2,2022.2.4,59.931630006135016,
1,0,6.1,0.0,0,0,38,38,70,,,,,133.46823969995603,134.11912499996834,134.11912499996834,134.61992689990439,45,45,134.61992689990439,134.61992689990439,134.61992689990439,134.61992689990439,134.61992689990439,134.61992689990439,134.61992689990439,134.61992689990439,134.61992689990439,134.98647019988857,134.98647019988857,134.98647019988857,134.98647019988857,134.98647019988857,134.98647019988857,134.98647019988857,134.98647019988857,134.98647019988857,0,1,[0.0010935000609606504],[0.36738339997828007],134.98647019988857,135.18660469981842,6.1,135.18660469981842,1,6.1,1,1,1000,num_4,0.6014455000404269,,33,10,2026-03-12_18h04.41.423,2026A_exp2,2022.2.4,59.931630006135016,
1,0,0.0,6.1,0,0,39,39,11,,,,,135.803824899951,136.45460399985313,136.45460399985313,136.93893349985592,45,315,136.93893349985592,136.93893349985592,136.93893349985592,136.93893349985592,136.93893349985592,136.93893349985592,136.93893349985592,136.93893349985592,136.93893349985592,137.30543219996616,137.30543219996616,137.30543219996616,137.30543219996616,137.30543219996616,137.30543219996616,137.30543219996616,137.30543219996616,137.30543219996616,11,4,"[0.0012886999174952507, 0.1168531000148505, 0.233532200101763, 0.367147299926728]","[0.05031810002401471, 0.13347460003569722, 0.3504085000604391, 0.3671518999617547]",137.30543219996616,137.50572829996236,0.0,137.50572829996236,0,0.0,0,1,1000,num_1,0.6027533998712897,,33,10,2026-03-12_18h04.41.423,2026A_exp2,2022.2.4,59.931630006135016,
1000,1,0.0,6.1,1,0,40,40,88,,,,,138.13948529982008,138.77365429978818,138.77365429978818,139.2747672998812,315,315,139.2747672998812,139.2747672998812,139.2747672998812,139.2747672998812,139.2747672998812,139.2747672998812,139.2747672998812,139.2747672998812,139.2747672998812,139.64099849993363,139.64099849993363,139.64099849993363,139.64099849993363,139.64099849993363,139.64099849993363,139.64099849993363,139.64099849993363,139.64099849993363,0,1,[0.0012217001058161259],[0.3672232001554221],139.64099849993363,139.84330619988032,1000,139.84330619988032,1000,1000,1000,1000,1,num_2,0.4416549999732524,,33,10,2026-03-12_18h04.41.423,2026A_exp2,2022.2.4,59.931630006135016,
1000,1,3.7,0.0,1,0,41,41,48,,,,,140.3083509998396,140.95881469990127,140.95881469990127,141.4602264999412,45,315,141.4602264999412,141.4602264999412,141.4602264999412,141.4602264999412,141.4602264999412,141.4602264999412,141.4602264999412,141.4602264999412,141.4602264999412,141.82659109984525,141.82659109984525,141.82659109984525,141.82659109984525,141.82659109984525,141.82659109984525,141.82659109984525,141.82659109984525,141.82659109984525,0,1,[0.0012418997939676046],[0.36717849993146956],141.82659109984525,142.02870079991408,1000,142.02870079991408,1000,1000,1000,1000,0,num_3,0.2870671001728624,,33,10,2026-03-12_18h04.41.423,2026A_exp2,2022.2.4,59.931630006135016,
1000,1,3.7,6.1,0,0,42,42,0,,,,,142.34371619997546,142.99410429992713,142.99410429992713,143.49548509996384,45,45,143.49548509996384,143.49548509996384,143.49548509996384,143.49548509996384,143.49548509996384,143.49548509996384,143.49548509996384,143.49548509996384,143.49548509996384,143.86188939982094,143.86188939982094,143.86188939982094,143.86188939982094,143.86188939982094,143.86188939982094,143.86188939982094,143.86188939982094,143.86188939982094,5,1,[0.0012476998381316662],[0.30050459993071854],143.86188939982094,144.06412719981745,1000,144.06412719981745,1000,1000,1000,1000,1,num_2,0.4125113000627607,,33,10,2026-03-12_18h04.41.423,2026A_exp2,2022.2.4,59.931630006135016,
1000,1,0.0,6.1,1,0,43,43,62,,,,,144.49586069979705,145.1466837998014,145.1466837998014,145.64782049995847,45,315,145.64782049995847,145.64782049995847,145.64782049995847,145.64782049995847,145.64782049995847,145.64782049995847,145.64782049995847,145.64782049995847,145.64782049995847,146.01411469979212,146.01411469979212,146.01411469979212,146.01411469979212,146.01411469979212,146.01411469979212,146.01411469979212,146.01411469979212,146.01411469979212,0,1,[0.0012488998472690582],[0.3671609000302851],146.01411469979212,146.21607869979925,1000,146.21607869979925,1000,1000,1000,1000,1,num_2,0.12479999987408519,,33,10,2026-03-12_18h04.41.423,2026A_exp2,2022.2.4,59.931630006135016,
1000,1,6.1,6.1,1,0,44,44,77,,,,,146.36439229990356,147.0150789998006,147.0150789998006,147.5162849999033,315,315,147.5162849999033,147.5162849999033,147.5162849999033,147.5162849999033,147.5162849999033,147.5162849999033,147.5162849999033,147.5162849999033,147.5162849999033,147.8825627998449,147.8825627998449,147.8825627998449,147.8825627998449,147.8825627998449,147.8825627998449,147.8825627998449,147.8825627998449,147.8825627998449,0,1,[0.0012069998774677515],[0.367171399993822],147.8825627998449,148.08453649980947,1000,148.08453649980947,1000,1000,1000,1000,1,num_2,0.14316189987584949,,33,10,2026-03-12_18h04.41.423,2026A_exp2,2022.2.4,59.931630006135016,
0,0,0.0,0.0,1,0,45,45,71,,,,,148.24971569981426,148.90041169989854,148.90041169989854,149.4014800998848,315,45,149.4014800998848,149.4014800998848,149.4014800998848,149.4014800998848,149.4014800998848,149.4014800998848,149.4014800998848,149.4014800998848,149.4014800998848,149.75096859992482,149.75096859992482,149.75096859992482,149.75096859992482,149.75096859992482,149.75096859992482,149.75096859992482,149.75096859992482,149.75096859992482,2,2,"[0.0012405000161379576, 0.05018800008110702]","[0.017266300041228533, 0.35006420011632144]",149.75096859992482,149.95140139991418,0.0,149.95140139991418,1,0.0,0,0,1000,num_4,0.7971302000805736,,33,10,2026-03-12_18h04.41.423,2026A_exp2,2022.2.4,59.931630006135016,
1,0,3.7,0.0,1,0,46,46,19,,,,,150.76879010000266,151.41957569983788,151.41957569983788,151.90389129985124,45,315,151.90389129985124,151.90389129985124,151.90389129985124,151.90389129985124,151.90389129985124,151.90389129985124,151.90389129985124,151.90389129985124,151.90389129985124,152.27042379998602,152.27042379998602,152.27042379998602,152.27042379998602,152.27042379998602,152.27042379998602,152.27042379998602,152.27042379998602,152.27042379998602,0,1,[0.0012469000648707151],[0.367129199905321],152.27042379998602,152.4705397998914,0.0,152.4705397998914,0,0.0,0,1,1000,num_1,0.7100880001671612,,33,10,2026-03-12_18h04.41.423,2026A_exp2,2022.2.4,59.931630006135016,
0,0,0.0,3.7,1,0,47,47,10,,,,,153.20443599997088,153.85531879984774,153.85531879984774,154.33977659977973,45,315,154.33977659977973,154.33977659977973,154.33977659977973,154.33977659977973,154.33977659977973,154.33977659977973,154.33977659977973,154.33977659977973,154.33977659977973,154.70622509997338,154.70622509997338,154.70622509997338,154.70622509997338,154.70622509997338,154.70622509997338,154.70622509997338,154.70622509997338,154.70622509997338,9,7,"[0.0012540000025182962, 0.03356579993851483, 0.10033539985306561, 0.18371689994819462, 0.23370179999619722, 0.3004433000460267, 0.35047219996340573]","[0.017505399882793427, 0.05032130004838109, 0.15037329983897507, 0.21715529984794557, 0.2837507000658661, 0.3339976998977363, 0.3672332998830825]",154.70622509997338,154.90621769987047,0.0,154.90621769987047,0,0.0,0,1,1000,num_1,0.5298172000329942,,33,10,2026-03-12_18h04.41.423,2026A_exp2,2022.2.4,59.931630006135016,
1000,1,6.1,0.0,1,0,48,48,16,,,,,155.45677389996126,156.10750789986923,156.10750789986923,156.5919245998375,45,45,156.5919245998375,156.5919245998375,156.5919245998375,156.5919245998375,156.5919245998375,156.5919245998375,156.5919245998375,156.5919245998375,156.5919245998375,156.95841729990207,156.95841729990207,156.95841729990207,156.95841729990207,156.95841729990207,156.95841729990207,156.95841729990207,156.95841729990207,156.95841729990207,0,1,[0.0012517999857664108],[0.36722519993782043],156.95841729990207,157.16040940000676,1000,157.16040940000676,1000,1000,1000,1000,0,num_3,0.20364509988576174,,33,10,2026-03-12_18h04.41.423,2026A_exp2,2022.2.4,59.931630006135016,
1000,1,6.1,0.0,1,0,49,49,68,,,,,157.39210709999315,158.04286369984038,158.04286369984038,158.54389390000142,315,45,158.54389390000142,158.54389390000142,158.54389390000142,158.54389390000142,158.54389390000142,158.54389390000142,158.54389390000142,158.54389390000142,158.54389390000142,158.89370849984698,158.89370849984698,158.89370849984698,158.89370849984698,158.89370849984698,158.89370849984698,158.89370849984698,158.89370849984698,158.89370849984698,0,1,[0.001204799860715866],[0.350524399895221],158.89370849984698,159.0956357999239,1000,159.0956357999239,1000,1000,1000,1000,0,num_3,0.3006768000777811,,33,10,2026-03-12_18h04.41.423,2026A_exp2,2022.2.4,59.931630006135016,
1000,1,0.0,0.0,0,0,50,50,86,,,,,159.42751279985532,160.07820170000196,160.07820170000196,160.57937839999795,315,45,160.57937839999795,160.57937839999795,160.57937839999795,160.57937839999795,160.57937839999795,160.57937839999795,160.57937839999795,160.57937839999795,160.57937839999795,160.92907309997827,160.92907309997827,160.92907309997827,160.92907309997827,160.92907309997827,160.92907309997827,160.92907309997827,160.92907309997827,160.92907309997827,0,1,[0.0013602001126855612],[0.3505808999761939],160.92907309997827,161.13088129996322,1000,161.13088129996322,1000,1000,1000,1000,1,num_2,0.33737679990008473,,33,10,2026-03-12_18h04.41.423,2026A_exp2,2022.2.4,59.931630006135016,
1000,1,0.0,0.0,1,0,51,51,27,,,,,161.49618819984607,162.1469634999521,162.1469634999521,162.64796819980256,315,315,162.64796819980256,162.64796819980256,162.64796819980256,162.64796819980256,162.64796819980256,162.64796819980256,162.64796819980256,162.64796819980256,162.64796819980256,163.014542899793,163.014542899793,163.014542899793,163.014542899793,163.014542899793,163.014542899793,163.014542899793,163.014542899793,163.014542899793,0,1,[0.0012483000755310059],[0.36710690008476377],163.014542899793,163.2167274998501,1000,163.2167274998501,1000,1000,1000,1000,1,num_2,0.8429676000960171,,33,10,2026-03-12_18h04.41.423,2026A_exp2,2022.2.4,59.931630006135016,
1,0,6.1,0.0,0,0,52,52,56,,,,,164.0822451999411,164.73296139994636,164.73296139994636,165.23400309984572,315,45,165.23400309984572,165.23400309984572,165.23400309984572,165.23400309984572,165.23400309984572,165.23400309984572,165.23400309984572,165.23400309984572,165.23400309984572,165.60040139988996,165.60040139988996,165.60040139988996,165.60040139988996,165.60040139988996,165.60040139988996,165.60040139988996,165.60040139988996,165.60040139988996,8,3,"[0.0012378001119941473, 0.26705050002783537, 0.3171135000884533]","[0.1502565999981016, 0.3003601001109928, 0.36715440009720623]",165.60040139988996,165.80028399988078,6.1,165.80028399988078,1,6.1,1,1,1000,num_4,0.7078597000800073,,33,10,2026-03-12_18h04.41.423,2026A_exp2,2022.2.4,59.931630006135016,
1,0,0.0,4.9,1,0,53,53,53,,,,,166.5343939999584,167.1701621999964,167.1701621999964,167.66955459979363,45,45,167.66955459979363,167.66955459979363,167.66955459979363,167.66955459979363,167.66955459979363,167.66955459979363,167.66955459979363,167.66955459979363,167.66955459979363,168.03620319999754,168.03620319999754,168.03620319999754,168.03620319999754,168.03620319999754,168.03620319999754,168.03620319999754,168.03620319999754,168.03620319999754,2,1,[0.0015303997788578272],[0.3501857998780906],168.03620319999754,168.236363499891,4.9,168.236363499891,1,4.9,1,1,1000,num_4,0.6478484999388456,,33,10,2026-03-12_18h04.41.423,2026A_exp2,2022.2.4,59.931630006135016,
0,0,0.0,6.1,0,0,54,54,7,,,,,168.90370119991712,169.5543735998217,169.5543735998217,170.03879319992848,315,315,170.03879319992848,170.03879319992848,170.03879319992848,170.03879319992848,170.03879319992848,170.03879319992848,170.03879319992848,170.03879319992848,170.03879319992848,170.40524939983152,170.40524939983152,170.40524939983152,170.40524939983152,170.40524939983152,170.40524939983152,170.40524939983152,170.40524939983152,170.40524939983152,0,1,[0.0012413999065756798],[0.3672117998357862],170.40524939983152,170.6054342999123,6.1,170.6054342999123,1,6.1,1,1,1000,num_4,0.5991535000503063,,33,10,2026-03-12_18h04.41.423,2026A_exp2,2022.2.4,59.931630006135016,
1000,1,4.9,6.1,1,0,55,55,28,,,,,171.22249149996787,171.87333339988254,171.87333339988254,172.37447939999402,45,45,172.37447939999402,172.37447939999402,172.37447939999402,172.37447939999402,172.37447939999402,172.37447939999402,172.37447939999402,172.37447939999402,172.37447939999402,172.74081270000897,172.74081270000897,172.74081270000897,172.74081270000897,172.74081270000897,172.74081270000897,172.74081270000897,172.74081270000897,172.74081270000897,0,1,[0.0012274000328034163],[0.36713550006970763],172.74081270000897,172.94284839998,1000,172.94284839998,1000,1000,1000,1000,1,num_2,0.3654346000403166,,33,10,2026-03-12_18h04.41.423,2026A_exp2,2022.2.4,59.931630006135016,
1,0,0.0,6.1,1,0,56,56,52,,,,,173.32482889993116,173.97551259980537,173.97551259980537,174.4599180999212,45,315,174.4599180999212,174.4599180999212,174.4599180999212,174.4599180999212,174.4599180999212,174.4599180999212,174.4599180999212,174.4599180999212,174.4599180999212,174.82632089988329,174.82632089988329,174.82632089988329,174.82632089988329,174.82632089988329,174.82632089988329,174.82632089988329,174.82632089988329,174.82632089988329,0,1,[0.001216700067743659],[0.3672428000718355],174.82632089988329,175.02652369998395,6.1,175.02652369998395,1,6.1,1,1,1000,num_4,0.6411307000089437,,33,10,2026-03-12_18h04.41.423,2026A_exp2,2022.2.4,59.931630006135016,
1,0,0.0,3.7,0,0,57,57,61,,,,,175.69371619983576,176.34432659996673,176.34432659996673,176.828942499822,45,315,176.828942499822,176.828942499822,176.828942499822,176.828942499822,176.828942499822,176.828942499822,176.828942499822,176.828942499822,176.828942499822,177.19536399981007,177.19536399981007,177.19536399981007,177.19536399981007,177.19536399981007,177.19536399981007,177.19536399981007,177.19536399981007,177.19536399981007,11,8,"[0.0012143999338150024, 0.05014110007323325, 0.10010010004043579, 0.15037699998356402, 0.21713069989345968, 0.2836746000684798, 0.31723119993694127, 0.350546499947086]","[0.017559600062668324, 0.08350789989344776, 0.13367650005966425, 0.1669288999401033, 0.2505954001098871, 0.3005754998885095, 0.33377070003189147, 0.36721540009602904]",177.19536399981007,177.39559309999458,0.0,177.39559309999458,0,0.0,0,1,1000,num_1,0.8169191000051796,,33,10,2026-03-12_18h04.41.423,2026A_exp2,2022.2.4,59.931630006135016,
1,0,4.9,0.0,0,0,58,58,58,,,,,178.2295801998116,178.88034259993583,178.88034259993583,179.36445619980805,315,45,179.36445619980805,179.36445619980805,179.36445619980805,179.36445619980805,179.36445619980805,179.36445619980805,179.36445619980805,179.36445619980805,179.36445619980805,179.73093969980255,179.73093969980255,179.73093969980255,179.73093969980255,179.73093969980255,179.73093969980255,179.73093969980255,179.73093969980255,179.73093969980255,23,0,,,179.73093969980255,179.93119779997505,4.9,179.93119779997505,1,4.9,1,1,1000,num_4,0.6729998998343945,,33,10,2026-03-12_18h04.41.423,2026A_exp2,2022.2.4,59.931630006135016,
1000,1,0.0,0.0,0,0,59,59,81,,,,,180.6318701999262,181.2827880999539,181.2827880999539,181.76712549990043,315,45,181.76712549990043,181.76712549990043,181.76712549990043,181.76712549990043,181.76712549990043,181.76712549990043,181.76712549990043,181.76712549990043,181.76712549990043,182.1336061998736,182.1336061998736,182.1336061998736,182.1336061998736,182.1336061998736,182.1336061998736,182.1336061998736,182.1336061998736,182.1336061998736,1,2,"[0.0011990000493824482, 0.13354209996759892]","[0.1169732001144439, 0.3671240999829024]",182.1336061998736,182.3356372998096,1000,182.3356372998096,1000,1000,1000,1000,0,num_3,0.5092982000205666,,33,10,2026-03-12_18h04.41.423,2026A_exp2,2022.2.4,59.931630006135016,
1000,1,0.0,0.0,0,0,60,60,17,,,,,182.86767089995556,183.518487499794,183.518487499794,184.01932439999655,45,45,184.01932439999655,184.01932439999655,184.01932439999655,184.01932439999655,184.01932439999655,184.01932439999655,184.01932439999655,184.01932439999655,184.01932439999655,184.3856804999523,184.3856804999523,184.3856804999523,184.3856804999523,184.3856804999523,184.3856804999523,184.3856804999523,184.3856804999523,184.3856804999523,16,3,"[0.06665950012393296, 0.15009750006720424, 0.3670793001074344]","[0.08333620009943843, 0.23343900009058416, 0.36708430014550686]",184.3856804999523,184.58822949999012,1000,184.58822949999012,1000,1000,1000,1000,0,num_3,0.5362291000783443,,33,10,2026-03-12_18h04.41.423,2026A_exp2,2022.2.4,59.931630006135016,
1,0,6.1,4.9,0,0,61,61,24,,,,,185.15319939982146,185.80394429992884,185.80394429992884,186.30502849980257,315,45,186.30502849980257,186.30502849980257,186.30502849980257,186.30502849980257,186.30502849980257,186.30502849980257,186.30502849980257,186.30502849980257,186.30502849980257,186.67142119980417,186.67142119980417,186.67142119980417,186.67142119980417,186.67142119980417,186.67142119980417,186.67142119980417,186.67142119980417,186.67142119980417,22,1,[0.01716239983215928],[0.033333899918943644],186.67142119980417,186.87170969997533,6.1,186.87170969997533,1,6.1,1,1,1000,num_4,0.8527921000495553,,33,10,2026-03-12_18h04.41.423,2026A_exp2,2022.2.4,59.931630006135016,
1,0,6.1,4.9,0,0,62,62,39,,,,,187.75576249998994,188.40631089988165,188.40631089988165,188.89091719989665,315,45,188.89091719989665,188.89091719989665,188.89091719989665,188.89091719989665,188.89091719989665,188.89091719989665,188.89091719989665,188.89091719989665,188.89091719989665,189.25744469999336,189.25744469999336,189.25744469999336,189.25744469999336,189.25744469999336,189.25744469999336,189.25744469999336,189.25744469999336,189.25744469999336,22,1,[0.017325899796560407],[0.03341879998333752],189.25744469999336,189.45741549995728,6.1,189.45741549995728,1,6.1,1,1,1000,num_4,1.0989655000157654,,33,10,2026-03-12_18h04.41.423,2026A_exp2,2022.2.4,59.931630006135016,
1,0,3.7,0.0,0,0,63,63,65,,,,,190.57532159984112,191.22607859992422,191.22607859992422,191.7104119998403,45,315,191.7104119998403,191.7104119998403,191.7104119998403,191.7104119998403,191.7104119998403,191.7104119998403,191.7104119998403,191.7104119998403,191.7104119998403,192.07687489991076,192.07687489991076,192.07687489991076,192.07687489991076,192.07687489991076,192.07687489991076,192.07687489991076,192.07687489991076,192.07687489991076,23,0,,,192.07687489991076,192.27708339993842,3.7,192.27708339993842,1,3.7,1,1,1000,num_4,0.6870126000139862,,33,10,2026-03-12_18h04.41.423,2026A_exp2,2022.2.4,59.931630006135016,
1000,1,0.0,0.0,0,0,64,64,15,,,,,192.99423589999788,193.64510109997354,193.64510109997354,194.12939919997007,315,315,194.12939919997007,194.12939919997007,194.12939919997007,194.12939919997007,194.12939919997007,194.12939919997007,194.12939919997007,194.12939919997007,194.12939919997007,194.4959495998919,194.4959495998919,194.4959495998919,194.4959495998919,194.4959495998919,194.4959495998919,194.4959495998919,194.4959495998919,194.4959495998919,15,2,"[0.16689240001142025, 0.2669414000120014]","[0.21690239990130067, 0.35050619998946786]",194.4959495998919,194.69788849982433,1000,194.69788849982433,1000,1000,1000,1000,0,num_3,0.7783848999533802,,33,10,2026-03-12_18h04.41.423,2026A_exp2,2022.2.4,59.931630006135016,
1000,1,0.0,0.0,1,0,65,65,12,,,,,195.49684019992128,196.1476272,196.1476272,196.64863859978504,45,315,196.64863859978504,196.64863859978504,196.64863859978504,196.64863859978504,196.64863859978504,196.64863859978504,196.64863859978504,196.64863859978504,196.64863859978504,196.99847769993357,196.99847769993357,196.99847769993357,196.99847769993357,196.99847769993357,196.99847769993357,196.99847769993357,196.99847769993357,196.99847769993357,13,5,"[0.0012405000161379576, 0.08315169997513294, 0.11673829983919859, 0.2497101000044495, 0.31674819998443127]","[0.016860799863934517, 0.09976889984682202, 0.16662799986079335, 0.2831166998948902, 0.3333024999592453]",196.99847769993357,197.200477699982,1000,197.21548859984614,1000,1000,1000,1000,1,num_2,0.5641743999440223,,33,10,2026-03-12_18h04.41.423,2026A_exp2,2022.2.4,59.931630006135016,
1,0,0.0,0.0,1,0,66,66,73,,,,,197.79966959985904,198.44993929984048,198.44993929984048,198.95253179990686,315,45,198.95253179990686,198.95253179990686,198.95253179990686,198.95253179990686,198.95253179990686,198.95253179990686,198.95253179990686,198.95253179990686,198.95253179990686,199.300661199959,199.300661199959,199.300661199959,199.300661199959,199.300661199959,199.300661199959,199.300661199959,199.300661199959,199.300661199959,9,1,[0.1488700001500547],[0.34945910004898906],199.300661199959,199.50094369985163,0.0,199.51773119997233,0,0.0,0,1,1000,num_1,1.1265748001169413,,33,10,2026-03-12_18h04.41.423,2026A_exp2,2022.2.4,59.931630006135016,
1,0,3.7,0.0,1,0,67,67,50,,,,,200.66863889992237,201.31942049995996,201.31942049995996,201.8038222999312,45,315,201.8038222999312,201.8038222999312,201.8038222999312,201.8038222999312,201.8038222999312,201.8038222999312,201.8038222999312,201.8038222999312,201.8038222999312,202.17036719992757,202.17036719992757,202.17036719992757,202.17036719992757,202.17036719992757,202.17036719992757,202.17036719992757,202.17036719992757,202.17036719992757,23,0,,,202.17036719992757,202.37046249979176,0.0,202.37046249979176,0,0.0,0,1,1000,num_1,0.6812382999341935,,33,10,2026-03-12_18h04.41.423,2026A_exp2,2022.2.4,59.931630006135016,
1000,1,0.0,6.1,0,0,68,68,9,,,,,203.0710642999038,203.7217457999941,203.7217457999941,204.20633079996333,45,45,204.20633079996333,204.20633079996333,204.20633079996333,204.20633079996333,204.20633079996333,204.20633079996333,204.20633079996333,204.20633079996333,204.20633079996333,204.5726950999815,204.5726950999815,204.5726950999815,204.5726950999815,204.5726950999815,204.5726950999815,204.5726950999815,204.5726950999815,204.5726950999815,23,0,,,204.5726950999815,204.7747313999571,1000,204.7747313999571,1000,1000,1000,1000,1,num_2,0.4208925000857562,,33,10,2026-03-12_18h04.41.423,2026A_exp2,2022.2.4,59.931630006135016,
1000,1,0.0,0.0,0,0,69,69,74,,,,,205.2232773997821,205.87401049979962,205.87401049979962,206.35833469987847,315,315,206.35833469987847,206.35833469987847,206.35833469987847,206.35833469987847,206.35833469987847,206.35833469987847,206.35833469987847,206.35833469987847,206.35833469987847,206.7247756998986,206.7247756998986,206.7247756998986,206.7247756998986,206.7247756998986,206.7247756998986,206.7247756998986,206.7247756998986,206.7247756998986,15,3,"[0.2003486999310553, 0.2337060000281781, 0.3005461001303047]","[0.21726329997181892, 0.26710029994137585, 0.36711600003764033]",206.7247756998986,206.92691069981083,1000,206.92691069981083,1000,1000,1000,1000,1,num_2,0.36504649999551475,,33,10,2026-03-12_18h04.41.423,2026A_exp2,2022.2.4,59.931630006135016,
1000,1,0.0,0.0,1,0,70,70,23,,,,,207.30884349998087,207.95938929985277,207.95938929985277,208.4605407998897,45,45,208.4605407998897,208.4605407998897,208.4605407998897,208.4605407998897,208.4605407998897,208.4605407998897,208.4605407998897,208.4605407998897,208.4605407998897,208.81024639983661,208.81024639983661,208.81024639983661,208.81024639983661,208.81024639983661,208.81024639983661,208.81024639983661,208.81024639983661,208.81024639983661,9,4,"[0.01726510003209114, 0.11692479997873306, 0.16692940006032586, 0.3335549000184983]","[0.05006160004995763, 0.1503029998857528, 0.30043489998206496, 0.3500002999790013]",208.81024639983661,209.01209189998917,1000,209.01209189998917,1000,1000,1000,1000,1,num_2,0.40728579997085035,,33,10,2026-03-12_18h04.41.423,2026A_exp2,2022.2.4,59.931630006135016,
1,0,0.0,0.0,1,0,71,71,6,,,,,209.44419599999674,210.0780423998367,210.0780423998367,210.5799967998173,45,45,210.5799967998173,210.5799967998173,210.5799967998173,210.5799967998173,210.5799967998173,210.5799967998173,210.5799967998173,210.5799967998173,210.5799967998173,210.94579019979574,210.94579019979574,210.94579019979574,210.94579019979574,210.94579019979574,210.94579019979574,210.94579019979574,210.94579019979574,210.94579019979574,12,2,"[0.0018159998580813408, 0.3163052999880165]","[0.11670219991356134, 0.3664327000733465]",210.94579019979574,211.14600629988126,0.0,211.14600629988126,0,0.0,0,1,1000,num_1,0.7468934000935405,,33,10,2026-03-12_18h04.41.423,2026A_exp2,2022.2.4,59.931630006135016,
1000,1,4.9,0.0,0,0,72,72,54,,,,,211.91349159996025,212.56405529985204,212.56405529985204,213.0485270000063,45,45,213.0485270000063,213.0485270000063,213.0485270000063,213.0485270000063,213.0485270000063,213.0485270000063,213.0485270000063,213.0485270000063,213.0485270000063,213.41490389988758,213.41490389988758,213.41490389988758,213.41490389988758,213.41490389988758,213.41490389988758,213.41490389988758,213.41490389988758,213.41490389988758,20,2,"[0.26719829998910427, 0.350582999875769]","[0.30048429989255965, 0.367082699900493]",213.41490389988758,213.6435032999143,1000,213.6435032999143,1000,1000,1000,1000,0,num_3,0.4879880999214947,,33,10,2026-03-12_18h04.41.423,2026A_exp2,2022.2.4,59.931630006135016,
1000,1,4.9,0.0,1,0,73,73,72,,,,,214.14876399980858,214.7997247998137,214.7997247998137,215.28406499978155,45,315,215.28406499978155,215.28406499978155,215.28406499978155,215.28406499978155,215.28406499978155,215.28406499978155,215.28406499978155,215.28406499978155,215.28406499978155,215.65051019983366,215.65051019983366,215.65051019983366,215.65051019983366,215.65051019983366,215.65051019983366,215.65051019983366,215.65051019983366,215.65051019983366,7,2,"[0.10010430007241666, 0.1503415999468416]","[0.1334629999473691, 0.36722559994086623]",215.65051019983366,215.8526441999711,1000,215.8526441999711,1000,1000,1000,1000,0,num_3,0.41511559998616576,,33,10,2026-03-12_18h04.41.423,2026A_exp2,2022.2.4,59.931630006135016,
1000,1,0.0,0.0,0,0,74,74,83,,,,,216.28460549982265,216.93500749999657,216.93500749999657,217.43628349993378,315,315,217.43628349993378,217.43628349993378,217.43628349993378,217.43628349993378,217.43628349993378,217.43628349993378,217.43628349993378,217.43628349993378,217.43628349993378,217.802639399888,217.802639399888,217.802639399888,217.802639399888,217.802639399888,217.802639399888,217.802639399888,217.802639399888,217.802639399888,23,0,,,217.802639399888,218.02745479997247,1000,218.02745479997247,1000,1000,1000,1000,1,num_2,0.5209175001364201,,33,10,2026-03-12_18h04.41.423,2026A_exp2,2022.2.4,59.931630006135016,
1000,1,0.0,0.0,0,0,75,75,80,,,,,218.57018419983797,219.22065309993923,219.22065309993923,219.70526199997403,45,315,219.70526199997403,219.70526199997403,219.70526199997403,219.70526199997403,219.70526199997403,219.70526199997403,219.70526199997403,219.70526199997403,219.70526199997403,220.07141119986773,220.07141119986773,220.07141119986773,220.07141119986773,220.07141119986773,220.07141119986773,220.07141119986773,220.07141119986773,220.07141119986773,0,1,[0.0012044000905007124],[0.3674716001842171],220.07141119986773,220.27360799978487,1000,220.27360799978487,1000,1000,1000,1000,0,num_3,0.5463972000870854,,33,10,2026-03-12_18h04.41.423,2026A_exp2,2022.2.4,59.931630006135016,
1000,1,0.0,3.7,0,0,76,76,51,,,,,220.83904659980908,221.48963709990494,221.48963709990494,221.9907623999752,315,315,221.9907623999752,221.9907623999752,221.9907623999752,221.9907623999752,221.9907623999752,221.9907623999752,221.9907623999752,221.9907623999752,221.9907623999752,222.35713249980472,222.35713249980472,222.35713249980472,222.35713249980472,222.35713249980472,222.35713249980472,222.35713249980472,222.35713249980472,222.35713249980472,0,1,[0.0012116001453250647],[0.36736150016076863],222.35713249980472,222.5592756997794,1000,222.5592756997794,1000,1000,1000,1000,1,num_2,0.4128062000963837,,33,10,2026-03-12_18h04.41.423,2026A_exp2,2022.2.4,59.931630006135016,
1,0,0.0,4.9,1,0,77,77,21,,,,,222.9912073998712,223.64175989991054,223.64175989991054,224.14279879978858,45,45,224.14279879978858,224.14279879978858,224.14279879978858,224.14279879978858,224.14279879978858,224.14279879978858,224.14279879978858,224.14279879978858,224.14279879978858,224.5093231999781,224.5093231999781,224.5093231999781,224.5093231999781,224.5093231999781,224.5093231999781,224.5093231999781,224.5093231999781,224.5093231999781,0,1,[0.0012061998713761568],[0.3671518999617547],224.5093231999781,224.70939679979347,4.9,224.70939679979347,1,4.9,1,1,1000,num_4,0.6381558000575751,,33,10,2026-03-12_18h04.41.423,2026A_exp2,2022.2.4,59.931630006135016,
1000,1,0.0,0.0,0,0,78,78,18,,,,,225.37679069978185,226.02749339980073,226.02749339980073,226.52831540000625,315,45,226.52831540000625,226.52831540000625,226.52831540000625,226.52831540000625,226.52831540000625,226.52831540000625,226.52831540000625,226.52831540000625,226.52831540000625,226.87819699989632,226.87819699989632,226.87819699989632,226.87819699989632,226.87819699989632,226.87819699989632,226.87819699989632,226.87819699989632,226.87819699989632,11,1,[0.18415319989435375],[0.350215399870649],226.87819699989632,227.080881399801,1000,227.080881399801,1000,1000,1000,1000,0,num_3,0.4111367999576032,,33,10,2026-03-12_18h04.41.423,2026A_exp2,2022.2.4,59.931630006135016,
1000,1,0.0,0.0,1,0,79,79,33,,,,,227.51238789991476,228.16313679981977,228.16313679981977,228.6640469999984,45,315,228.6640469999984,228.6640469999984,228.6640469999984,228.6640469999984,228.6640469999984,228.6640469999984,228.6640469999984,228.6640469999984,228.6640469999984,229.03053939994425,229.03053939994425,229.03053939994425,229.03053939994425,229.03053939994425,229.03053939994425,229.03053939994425,229.03053939994425,229.03053939994425,13,5,"[0.10025690007023513, 0.13355150003917515, 0.250327100045979, 0.30028610001318157, 0.33358950004912913]","[0.11697600013576448, 0.23383129993453622, 0.28376929997466505, 0.3170247001107782, 0.35055049997754395]",229.03053939994425,229.24563439982012,1000,229.24563439982012,1000,1000,1000,1000,1,num_2,0.5430616000667214,,33,10,2026-03-12_18h04.41.423,2026A_exp2,2022.2.4,59.931630006135016,
0,0,4.9,0.0,1,0,80,80,25,,,,,229.81446329993196,230.46536489995196,230.46536489995196,230.96633569989353,315,45,230.96633569989353,230.96633569989353,230.96633569989353,230.96633569989353,230.96633569989353,230.96633569989353,230.96633569989353,230.96633569989353,230.96633569989353,231.33283819979988,231.33283819979988,231.33283819979988,231.33283819979988,231.33283819979988,231.33283819979988,231.33283819979988,231.33283819979988,231.33283819979988,0,1,[0.001589599996805191],[0.3667982998304069],231.33283819979988,231.5330439999234,4.9,231.5330439999234,1,4.9,1,1,1000,num_4,0.5983886001631618,,33,10,2026-03-12_18h04.41.423,2026A_exp2,2022.2.4,59.931630006135016,
1000,1,3.7,4.9,1,0,81,81,44,,,,,232.150313799968,232.78436339995824,232.78436339995824,233.28534449986182,315,315,233.28534449986182,233.28534449986182,233.28534449986182,233.28534449986182,233.28534449986182,233.28534449986182,233.28534449986182,233.28534449986182,233.28534449986182,233.6516202997882,233.6516202997882,233.6516202997882,233.6516202997882,233.6516202997882,233.6516202997882,233.6516202997882,233.6516202997882,233.6516202997882,16,2,"[0.2503512999974191, 0.3005987999495119]","[0.28344189980998635, 0.36680199997499585]",233.6516202997882,233.85367029998451,1000,233.85367029998451,1000,1000,1000,1000,1,num_2,0.1906081000342965,,33,10,2026-03-12_18h04.41.423,2026A_exp2,2022.2.4,59.931630006135016,
1000,1,3.7,6.1,0,0,82,82,84,,,,,234.06895849993452,234.71938829985447,234.71938829985447,235.22072099987417,315,315,235.22072099987417,235.22072099987417,235.22072099987417,235.22072099987417,235.22072099987417,235.22072099987417,235.22072099987417,235.22072099987417,235.22072099987417,235.57029629987665,235.57029629987665,235.57029629987665,235.57029629987665,235.57029629987665,235.57029629987665,235.57029629987665,235.57029629987665,235.57029629987665,22,0,,,235.57029629987665,235.7722961998079,1000,235.78715959982947,1000,1000,1000,1000,1,num_2,0.2813888001255691,,33,10,2026-03-12_18h04.41.423,2026A_exp2,2022.2.4,59.931630006135016,
1,0,4.9,0.0,1,0,83,83,8,,,,,236.08761439984664,236.7394945998676,236.7394945998676,237.23928129998967,315,45,237.23928129998967,237.23928129998967,237.23928129998967,237.23928129998967,237.23928129998967,237.23928129998967,237.23928129998967,237.23928129998967,237.23928129998967,237.60562049993314,237.60562049993314,237.60562049993314,237.60562049993314,237.60562049993314,237.60562049993314,237.60562049993314,237.60562049993314,237.60562049993314,18,3,"[0.0014822999946773052, 0.10028119990602136, 0.1503409999422729]","[0.05016450001858175, 0.11695849988609552, 0.1669339998625219]",237.60562049993314,237.8059931998141,0.0,237.8059931998141,0,0.0,0,1,1000,num_1,0.5983008998446167,,33,10,2026-03-12_18h04.41.423,2026A_exp2,2022.2.4,59.931630006135016,
0,0,6.1,3.7,1,0,84,84,49,,,,,238.4234409998171,239.05696409987286,239.05696409987286,239.55822829995304,45,315,239.55822829995304,239.55822829995304,239.55822829995304,239.55822829995304,239.55822829995304,239.55822829995304,239.55822829995304,239.55822829995304,239.55822829995304,239.92446699994616,239.92446699994616,239.92446699994616,239.92446699994616,239.92446699994616,239.92446699994616,239.92446699994616,239.92446699994616,239.92446699994616,7,4,"[0.0007774000987410545, 0.11686200019903481, 0.16719900001771748, 0.33375240000896156]","[0.10033660009503365, 0.15038780006580055, 0.2837452001404017, 0.35026970016770065]",239.92446699994616,240.1246252998244,6.1,240.1246252998244,1,6.1,1,1,1000,num_4,0.6716323001310229,,33,10,2026-03-12_18h04.41.423,2026A_exp2,2022.2.4,59.931630006135016,
1000,1,0.0,0.0,0,0,85,85,85,,,,,240.82567099994048,241.4762819998432,241.4762819998432,241.96073369984515,315,45,241.96073369984515,241.96073369984515,241.96073369984515,241.96073369984515,241.96073369984515,241.96073369984515,241.96073369984515,241.96073369984515,241.96073369984515,242.32706979988143,242.32706979988143,242.32706979988143,242.32706979988143,242.32706979988143,242.32706979988143,242.32706979988143,242.32706979988143,242.32706979988143,23,0,,,242.32706979988143,242.53365389979444,1000,242.53365389979444,1000,1000,1000,1000,0,num_3,0.6938392000738531,,33,10,2026-03-12_18h04.41.423,2026A_exp2,2022.2.4,59.931630006135016,
1,0,0.0,3.7,0,0,86,86,35,,,,,243.24489569989964,243.89527099998668,243.89527099998668,244.39628009987064,315,315,244.39628009987064,244.39628009987064,244.39628009987064,244.39628009987064,244.39628009987064,244.39628009987064,244.39628009987064,244.39628009987064,244.39628009987064,244.76287380000576,244.76287380000576,244.76287380000576,244.76287380000576,244.76287380000576,244.76287380000576,244.76287380000576,244.76287380000576,244.76287380000576,22,1,[0.08405070006847382],[0.10092499991878867],244.76287380000576,244.96308659994975,0.0,244.96308659994975,0,0.0,0,1,1000,num_1,0.6333750998601317,,33,10,2026-03-12_18h04.41.423,2026A_exp2,2022.2.4,59.931630006135016,
1000,1,0.0,4.9,1,0,87,87,76,,,,,245.6138198999688,246.2642959000077,246.2642959000077,246.74870719993487,315,45,246.74870719993487,246.74870719993487,246.74870719993487,246.74870719993487,246.74870719993487,246.74870719993487,246.74870719993487,246.74870719993487,246.74870719993487,247.1152850999497,247.1152850999497,247.1152850999497,247.1152850999497,247.1152850999497,247.1152850999497,247.1152850999497,247.1152850999497,247.1152850999497,17,2,"[0.09961949987336993, 0.2669501998461783]","[0.11637019994668663, 0.35021850001066923]",247.1152850999497,247.3171153999865,1000,247.3171153999865,1000,1000,1000,1000,1,num_2,0.35061839991249144,,33,10,2026-03-12_18h04.41.423,2026A_exp2,2022.2.4,59.931630006135016,
1000,1,3.7,0.0,0,0,88,88,45,,,,,247.6992569998838,248.34973499993794,248.34973499993794,248.85086629982106,45,45,248.85086629982106,248.85086629982106,248.85086629982106,248.85086629982106,248.85086629982106,248.85086629982106,248.85086629982106,248.85086629982106,248.85086629982106,249.20049919979647,249.20049919979647,249.20049919979647,249.20049919979647,249.20049919979647,249.20049919979647,249.20049919979647,249.20049919979647,249.20049919979647,14,1,[0.2340603000484407],[0.3507042001001537],249.20049919979647,249.40300069982186,1000,249.41758949984796,1000,1000,1000,1000,0,num_3,0.43492519995197654,,33,10,2026-03-12_18h04.41.423,2026A_exp2,2022.2.4,59.931630006135016,
1,0,0.0,3.7,1,0,89,89,41,,,,,249.86819229996763,250.51863399986178,250.51863399986178,251.02962839999236,315,45,251.02962839999236,251.02962839999236,251.02962839999236,251.02962839999236,251.02962839999236,251.02962839999236,251.02962839999236,251.02962839999236,251.02962839999236,251.38612279994413,251.38612279994413,251.38612279994413,251.38612279994413,251.38612279994413,251.38612279994413,251.38612279994413,251.38612279994413,251.38612279994413,0,1,[0.004184599965810776],[0.3640757000539452],251.38612279994413,251.5862605997827,3.7,251.5862605997827,1,3.7,1,1,1000,num_4,0.7306160000152886,,33,10,2026-03-12_18h04.41.423,2026A_exp2,2022.2.4,59.931630006135016,
,,,,,,,,,,,,,,,,,,,,,,,,,,,,,,,,,,,,,,,,,,,,,,,,,,,,252.34556399984285,,,,,,,
