validity,detectorcomp,contrastCW,contrastCCW,precueCWorCCW,block_80trials.thisRepN,block_80trials.thisTrialN,block_80trials.thisN,block_80trials.thisIndex,etRecord.started,etRecord.stopped,text.started,text.stopped,text_4.started,text_4.stopped,text_6.started,text_6.stopped,oriCW,oriCCW,roi_2.started,grating_UR.started,grating_UL.started,grating_LR.started,grating_LL.started,noise_UR.started,noise_UL.started,noise_LR.started,noise_LL.started,roi_2.stopped,grating_UR.stopped,grating_UL.stopped,grating_LR.stopped,grating_LL.stopped,noise_UR.stopped,noise_UL.stopped,noise_LR.stopped,noise_LL.stopped,outframe,roi_2.numLooks,roi_2.timesOn,roi_2.timesOff,text_2.started,text_2.stopped,probedcontrast,key_resp.started,respdetect,relevantContrast,correctDetect,TorFdetect,respCWorCCW,key_resp.keys,key_resp.rt,feedback_display_.started,participantNo,blockNo,date,expName,psychopyVersion,frameRate,
1000,1,0.0,0.0,0,0,0,0,24,6.229995051398873e-05,6.229995051398873e-05,52.49353900004644,54.496279900020454,54.496279900020454,55.14664140000241,55.14664140000241,55.66698510001879,45,45,55.66698510001879,55.66698510001879,55.66698510001879,55.66698510001879,55.66698510001879,55.66698510001879,55.66698510001879,55.66698510001879,55.66698510001879,55.997523199999705,55.997523199999705,55.997523199999705,55.997523199999705,55.997523199999705,55.997523199999705,55.997523199999705,55.997523199999705,55.997523199999705,22,0,,,55.997523199999705,56.20439480000641,1000,56.20439480000641,1000,1000,1000,1000,0,num_3,0.20864570001140237,,25,15,2026-03-04_18h34.31.590,2026A_exp2,2022.2.4,59.97472665323993,
1,0,0.0,6.1,1,0,1,1,5,,,,,56.43138100003125,57.0818089999957,57.0818089999957,57.582972800009884,315,315,57.582972800009884,57.582972800009884,57.582972800009884,57.582972800009884,57.582972800009884,57.582972800009884,57.582972800009884,57.582972800009884,57.582972800009884,57.9495476000011,57.9495476000011,57.9495476000011,57.9495476000011,57.9495476000011,57.9495476000011,57.9495476000011,57.9495476000011,57.9495476000011,23,0,,,57.9495476000011,58.14956910000183,6.1,58.14956910000183,0,6.1,1,0,1000,num_1,0.7671097000129521,,25,15,2026-03-04_18h34.31.590,2026A_exp2,2022.2.4,59.97472665323993,
0,0,6.1,6.1,1,0,2,2,48,,,,,58.93363840004895,59.584442500025034,59.584442500025034,60.06879020004999,45,45,60.06879020004999,60.06879020004999,60.06879020004999,60.06879020004999,60.06879020004999,60.06879020004999,60.06879020004999,60.06879020004999,60.06879020004999,60.43525310000405,60.43525310000405,60.43525310000405,60.43525310000405,60.43525310000405,60.43525310000405,60.43525310000405,60.43525310000405,60.43525310000405,23,0,,,60.43525310000405,60.63553110003704,6.1,60.63553110003704,0,6.1,1,0,1000,num_1,1.1051637000055052,,25,15,2026-03-04_18h34.31.590,2026A_exp2,2022.2.4,59.97472665323993,
0,0,4.9,6.1,1,0,3,3,70,,,,,61.769645200052764,62.42050280002877,62.42050280002877,62.90488660003757,315,315,62.90488660003757,62.90488660003757,62.90488660003757,62.90488660003757,62.90488660003757,62.90488660003757,62.90488660003757,62.90488660003757,62.90488660003757,63.271474300010595,63.271474300010595,63.271474300010595,63.271474300010595,63.271474300010595,63.271474300010595,63.271474300010595,63.271474300010595,63.271474300010595,23,0,,,63.271474300010595,63.47162379999645,4.9,63.47162379999645,1,4.9,1,1,1000,num_4,0.6443900999729522,,25,15,2026-03-04_18h34.31.590,2026A_exp2,2022.2.4,59.97472665323993,
1000,1,3.7,3.7,1,0,4,4,54,,,,,64.13867480005138,64.78947720001452,64.78947720001452,65.2739446000196,45,45,65.2739446000196,65.2739446000196,65.2739446000196,65.2739446000196,65.2739446000196,65.2739446000196,65.2739446000196,65.2739446000196,65.2739446000196,65.64053020003485,65.64053020003485,65.64053020003485,65.64053020003485,65.64053020003485,65.64053020003485,65.64053020003485,65.64053020003485,65.64053020003485,23,0,,,65.64053020003485,65.84214170003543,1000,65.84214170003543,1000,1000,1000,1000,1,num_2,0.41848719998961315,,25,15,2026-03-04_18h34.31.590,2026A_exp2,2022.2.4,59.97472665323993,
1,0,4.9,0.0,0,0,5,5,47,,,,,66.29087940003956,66.94164259999525,66.94164259999525,67.44296240003314,45,45,67.44296240003314,67.44296240003314,67.44296240003314,67.44296240003314,67.44296240003314,67.44296240003314,67.44296240003314,67.44296240003314,67.44296240003314,67.79256460000761,67.79256460000761,67.79256460000761,67.79256460000761,67.79256460000761,67.79256460000761,67.79256460000761,67.79256460000761,67.79256460000761,22,0,,,67.79256460000761,67.99277190002613,4.9,67.99277190002613,0,4.9,1,0,1000,num_1,0.6676740000257269,,25,15,2026-03-04_18h34.31.590,2026A_exp2,2022.2.4,59.97472665323993,
1,0,0.0,0.0,0,0,6,6,39,,,,,68.67671300005168,69.32733570004348,69.32733570004348,69.82868880004389,315,315,69.82868880004389,69.82868880004389,69.82868880004389,69.82868880004389,69.82868880004389,69.82868880004389,69.82868880004389,69.82868880004389,69.82868880004389,70.17832560004899,70.17832560004899,70.17832560004899,70.17832560004899,70.17832560004899,70.17832560004899,70.17832560004899,70.17832560004899,70.17832560004899,22,0,,,70.17832560004899,70.3785738000297,0.0,70.3785738000297,0,0.0,0,1,1000,num_1,0.34556220000376925,,25,15,2026-03-04_18h34.31.590,2026A_exp2,2022.2.4,59.97472665323993,
0,0,0.0,0.0,1,0,7,7,80,,,,,70.7455706000328,71.39626400003908,71.39626400003908,71.88064300001133,45,315,71.88064300001133,71.88064300001133,71.88064300001133,71.88064300001133,71.88064300001133,71.88064300001133,71.88064300001133,71.88064300001133,71.88064300001133,72.24709390004864,72.24709390004864,72.24709390004864,72.24709390004864,72.24709390004864,72.24709390004864,72.24709390004864,72.24709390004864,72.24709390004864,23,0,,,72.24709390004864,72.44721720000962,0.0,72.44721720000962,1,0.0,0,0,1000,num_4,0.8926272999960929,,25,15,2026-03-04_18h34.31.590,2026A_exp2,2022.2.4,59.97472665323993,
1,0,0.0,3.7,0,0,8,8,31,,,,,73.3648683000356,74.0154734000098,74.0154734000098,74.49986820004415,315,315,74.49986820004415,74.49986820004415,74.49986820004415,74.49986820004415,74.49986820004415,74.49986820004415,74.49986820004415,74.49986820004415,74.49986820004415,74.86642980005126,74.86642980005126,74.86642980005126,74.86642980005126,74.86642980005126,74.86642980005126,74.86642980005126,74.86642980005126,74.86642980005126,16,3,"[0.09996299998601899, 0.18389749998459592, 0.2505634999834001]","[0.1672013999777846, 0.20052219997160137, 0.283822399971541]",74.86642980005126,75.06652410002425,0.0,75.06652410002425,1,0.0,0,0,1000,num_4,1.2896441000048071,,25,15,2026-03-04_18h34.31.590,2026A_exp2,2022.2.4,59.97472665323993,
1000,1,0.0,0.0,0,0,9,9,13,,,,,76.3846315999981,77.03522040002281,77.03522040002281,77.51961930003017,315,45,77.51961930003017,77.51961930003017,77.51961930003017,77.51961930003017,77.51961930003017,77.51961930003017,77.51961930003017,77.51961930003017,77.51961930003017,77.88605670002289,77.88605670002289,77.88605670002289,77.88605670002289,77.88605670002289,77.88605670002289,77.88605670002289,77.88605670002289,77.88605670002289,1,2,"[0.0012488000211305916, 0.09980299999006093]","[0.08301850000862032, 0.3667831000057049]",77.88605670002289,78.08795050001936,1000,78.08795050001936,1000,1000,1000,1000,0,num_3,0.6280476999818347,,25,15,2026-03-04_18h34.31.590,2026A_exp2,2022.2.4,59.97472665323993,
1000,1,3.7,4.9,0,0,10,10,25,,,,,78.73688100004802,79.38764640002046,79.38764640002046,79.88861040002666,45,45,79.88861040002666,79.88861040002666,79.88861040002666,79.88861040002666,79.88861040002666,79.88861040002666,79.88861040002666,79.88861040002666,79.88861040002666,80.23846320004668,80.23846320004668,80.23846320004668,80.23846320004668,80.23846320004668,80.23846320004668,80.23846320004668,80.23846320004668,80.23846320004668,22,0,,,80.23846320004668,80.44053060002625,1000,80.44053060002625,1000,1000,1000,1000,0,num_3,0.6513834000215866,,25,15,2026-03-04_18h34.31.590,2026A_exp2,2022.2.4,59.97472665323993,
1,0,6.1,6.1,0,0,11,11,89,,,,,81.12267750001047,81.7731930000009,81.7731930000009,82.27431010000873,45,315,82.27431010000873,82.27431010000873,82.27431010000873,82.27431010000873,82.27431010000873,82.27431010000873,82.27431010000873,82.27431010000873,82.27431010000873,82.64081100001931,82.64081100001931,82.64081100001931,82.64081100001931,82.64081100001931,82.64081100001931,82.64081100001931,82.64081100001931,82.64081100001931,1,1,[0.0012436999822966754],[0.3669563999865204],82.64081100001931,82.84095570002683,6.1,82.84095570002683,0,6.1,1,0,1000,num_1,1.0509023000486195,,25,15,2026-03-04_18h34.31.590,2026A_exp2,2022.2.4,59.97472665323993,
0,0,0.0,4.9,0,0,12,12,65,,,,,83.90864360000705,84.55960040003993,84.55960040003993,85.04404900001828,45,315,85.04404900001828,85.04404900001828,85.04404900001828,85.04404900001828,85.04404900001828,85.04404900001828,85.04404900001828,85.04404900001828,85.04404900001828,85.41020680003567,85.41020680003567,85.41020680003567,85.41020680003567,85.41020680003567,85.41020680003567,85.41020680003567,85.41020680003567,85.41020680003567,12,5,"[0.06680899998173118, 0.15043470001546666, 0.23367560002952814, 0.2840672000311315, 0.350475599989295]","[0.08360860001994297, 0.20051649998640642, 0.2673168000183068, 0.31704530003480613, 0.3669613000238314]",85.41020680003567,85.61050870001782,4.9,85.61050870001782,1,4.9,1,1,1000,num_4,1.034090799978003,,25,15,2026-03-04_18h34.31.590,2026A_exp2,2022.2.4,59.97472665323993,
1000,1,4.9,0.0,1,0,13,13,56,,,,,86.66158630000427,87.31200560001889,87.31200560001889,87.8133093000506,45,315,87.8133093000506,87.8133093000506,87.8133093000506,87.8133093000506,87.8133093000506,87.8133093000506,87.8133093000506,87.8133093000506,87.8133093000506,88.16298470000038,88.16298470000038,88.16298470000038,88.16298470000038,88.16298470000038,88.16298470000038,88.16298470000038,88.16298470000038,88.16298470000038,22,0,,,88.16298470000038,88.36504270002479,1000,88.36504270002479,1000,1000,1000,1000,1,num_2,0.5195002999971621,,25,15,2026-03-04_18h34.31.590,2026A_exp2,2022.2.4,59.97472665323993,
1,0,0.0,0.0,0,0,14,14,6,,,,,88.91392910003196,89.56440480001038,89.56440480001038,90.04887070000404,45,45,90.04887070000404,90.04887070000404,90.04887070000404,90.04887070000404,90.04887070000404,90.04887070000404,90.04887070000404,90.04887070000404,90.04887070000404,90.41530270001385,90.41530270001385,90.41530270001385,90.41530270001385,90.41530270001385,90.41530270001385,90.41530270001385,90.41530270001385,90.41530270001385,23,0,,,90.41530270001385,90.61543560004793,0.0,90.61543560004793,0,0.0,0,1,1000,num_1,0.4767578999744728,,25,15,2026-03-04_18h34.31.590,2026A_exp2,2022.2.4,59.97472665323993,
1,0,6.1,6.1,1,0,15,15,49,,,,,91.1159389000386,91.76661900000181,91.76661900000181,92.25110770005267,45,315,92.25110770005267,92.25110770005267,92.25110770005267,92.25110770005267,92.25110770005267,92.25110770005267,92.25110770005267,92.25110770005267,92.25110770005267,92.61751340003684,92.61751340003684,92.61751340003684,92.61751340003684,92.61751340003684,92.61751340003684,92.61751340003684,92.61751340003684,92.61751340003684,23,0,,,92.61751340003684,92.81754540000111,6.1,92.81754540000111,0,6.1,1,0,1000,num_1,0.6756835000123829,,25,15,2026-03-04_18h34.31.590,2026A_exp2,2022.2.4,59.97472665323993,
1,0,4.9,4.9,1,0,16,16,18,,,,,93.51901470002485,94.1691012000083,94.1691012000083,94.65340860001743,315,45,94.65340860001743,94.65340860001743,94.65340860001743,94.65340860001743,94.65340860001743,94.65340860001743,94.65340860001743,94.65340860001743,94.65340860001743,95.01990940002725,95.01990940002725,95.01990940002725,95.01990940002725,95.01990940002725,95.01990940002725,95.01990940002725,95.01990940002725,95.01990940002725,23,0,,,95.01990940002725,95.22003170003882,4.9,95.22003170003882,0,4.9,1,0,1000,num_1,0.5452827999833971,,25,15,2026-03-04_18h34.31.590,2026A_exp2,2022.2.4,59.97472665323993,
1,0,0.0,3.7,0,0,17,17,76,,,,,95.78739120002137,96.43807279999601,96.43807279999601,96.92211490002228,315,45,96.92211490002228,96.92211490002228,96.92211490002228,96.92211490002228,96.92211490002228,96.92211490002228,96.92211490002228,96.92211490002228,96.92211490002228,97.28870380000444,97.28870380000444,97.28870380000444,97.28870380000444,97.28870380000444,97.28870380000444,97.28870380000444,97.28870380000444,97.28870380000444,20,2,"[0.08334559999639168, 0.2835787999792956]","[0.1000734000117518, 0.29984970000805333]",97.28870380000444,97.4889291000436,0.0,97.4889291000436,0,0.0,0,1,1000,num_1,0.5563052000361495,,25,15,2026-03-04_18h34.31.590,2026A_exp2,2022.2.4,59.97472665323993,
1,0,0.0,4.9,1,0,18,18,73,,,,,98.07287940004608,98.72356100002071,98.72356100002071,99.20794069999829,45,315,99.20794069999829,99.20794069999829,99.20794069999829,99.20794069999829,99.20794069999829,99.20794069999829,99.20794069999829,99.20794069999829,99.20794069999829,99.57444610004313,99.57444610004313,99.57444610004313,99.57444610004313,99.57444610004313,99.57444610004313,99.57444610004313,99.57444610004313,99.57444610004313,23,0,,,99.57444610004313,99.7747137999977,4.9,99.7747137999977,0,4.9,1,0,1000,num_1,0.5491402000188828,,25,15,2026-03-04_18h34.31.590,2026A_exp2,2022.2.4,59.97472665323993,
1,0,4.9,6.1,0,0,19,19,29,,,,,100.34188590000849,100.99237330001779,100.99237330001779,101.49360680003883,45,315,101.49360680003883,101.49360680003883,101.49360680003883,101.49360680003883,101.49360680003883,101.49360680003883,101.49360680003883,101.49360680003883,101.49360680003883,101.84355280001182,101.84355280001182,101.84355280001182,101.84355280001182,101.84355280001182,101.84355280001182,101.84355280001182,101.84355280001182,101.84355280001182,14,2,"[0.13368659996194765, 0.26717559999087825]","[0.18363179999869317, 0.33385729999281466]",101.84355280001182,102.0436016000458,4.9,102.0436016000458,0,4.9,1,0,1000,num_1,0.4253634000197053,,25,15,2026-03-04_18h34.31.590,2026A_exp2,2022.2.4,59.97472665323993,
1000,1,3.7,0.0,0,0,20,20,81,,,,,102.49405950005166,103.14455010002712,103.14455010002712,103.62900090002222,315,315,103.62900090002222,103.62900090002222,103.62900090002222,103.62900090002222,103.62900090002222,103.62900090002222,103.62900090002222,103.62900090002222,103.62900090002222,103.99534399999538,103.99534399999538,103.99534399999538,103.99534399999538,103.99534399999538,103.99534399999538,103.99534399999538,103.99534399999538,103.99534399999538,23,0,,,103.99534399999538,104.19760370004224,1000,104.19760370004224,1000,1000,1000,1000,0,num_3,0.39831040002172813,,25,15,2026-03-04_18h34.31.590,2026A_exp2,2022.2.4,59.97472665323993,
0,0,0.0,4.9,1,0,21,21,33,,,,,104.6128761,105.26346600003308,105.26346600003308,105.76443999999901,45,45,105.76443999999901,105.76443999999901,105.76443999999901,105.76443999999901,105.76443999999901,105.76443999999901,105.76443999999901,105.76443999999901,105.76443999999901,106.13087580003776,106.13087580003776,106.13087580003776,106.13087580003776,106.13087580003776,106.13087580003776,106.13087580003776,106.13087580003776,106.13087580003776,23,0,,,106.13087580003776,106.33120970003074,0.0,106.33120970003074,0,0.0,0,1,1000,num_1,0.858166899997741,,25,15,2026-03-04_18h34.31.590,2026A_exp2,2022.2.4,59.97472665323993,
0,0,0.0,0.0,1,0,22,22,14,,,,,107.21539460000349,107.86601180001162,107.86601180001162,108.35039950005012,45,315,108.35039950005012,108.35039950005012,108.35039950005012,108.35039950005012,108.35039950005012,108.35039950005012,108.35039950005012,108.35039950005012,108.35039950005012,108.71704290003981,108.71704290003981,108.71704290003981,108.71704290003981,108.71704290003981,108.71704290003981,108.71704290003981,108.71704290003981,108.71704290003981,23,0,,,108.71704290003981,108.91712739999639,0.0,108.91712739999639,1,0.0,0,0,1000,num_4,0.9277796000242233,,25,15,2026-03-04_18h34.31.590,2026A_exp2,2022.2.4,59.97472665323993,
1000,1,0.0,4.9,1,0,23,23,72,,,,,109.86795909999637,110.51875859999564,110.51875859999564,111.00315890001366,315,45,111.00315890001366,111.00315890001366,111.00315890001366,111.00315890001366,111.00315890001366,111.00315890001366,111.00315890001366,111.00315890001366,111.00315890001366,111.36961420002626,111.36961420002626,111.36961420002626,111.36961420002626,111.36961420002626,111.36961420002626,111.36961420002626,111.36961420002626,111.36961420002626,23,0,,,111.36961420002626,111.57193760003429,1000,111.57193760003429,1000,1000,1000,1000,1,num_2,0.48823640000773594,,25,15,2026-03-04_18h34.31.590,2026A_exp2,2022.2.4,59.97472665323993,
1,0,0.0,0.0,1,0,24,24,20,,,,,112.08705530001316,112.73755680001341,112.73755680001341,113.23884210002143,45,45,113.23884210002143,113.23884210002143,113.23884210002143,113.23884210002143,113.23884210002143,113.23884210002143,113.23884210002143,113.23884210002143,113.23884210002143,113.60513800004264,113.60513800004264,113.60513800004264,113.60513800004264,113.60513800004264,113.60513800004264,113.60513800004264,113.60513800004264,113.60513800004264,23,0,,,113.60513800004264,113.80548370000906,0.0,113.80548370000906,1,0.0,0,0,1000,num_4,0.22362959996098652,,25,15,2026-03-04_18h34.31.590,2026A_exp2,2022.2.4,59.97472665323993,
1000,1,6.1,0.0,0,0,25,25,69,,,,,114.05546300002607,114.7063252000371,114.7063252000371,115.19071240001358,45,315,115.19071240001358,115.19071240001358,115.19071240001358,115.19071240001358,115.19071240001358,115.19071240001358,115.19071240001358,115.19071240001358,115.19071240001358,115.55713990004733,115.55713990004733,115.55713990004733,115.55713990004733,115.55713990004733,115.55713990004733,115.55713990004733,115.55713990004733,115.55713990004733,23,0,,,115.55713990004733,115.75917450000998,1000,115.75917450000998,1000,1000,1000,1000,1,num_2,0.19691080000484362,,25,15,2026-03-04_18h34.31.590,2026A_exp2,2022.2.4,59.97472665323993,
0,0,0.0,6.1,1,0,26,26,46,,,,,115.97427910001716,116.6248620999977,116.6248620999977,117.1259974000277,45,45,117.1259974000277,117.1259974000277,117.1259974000277,117.1259974000277,117.1259974000277,117.1259974000277,117.1259974000277,117.1259974000277,117.1259974000277,117.49236640002346,117.49236640002346,117.49236640002346,117.49236640002346,117.49236640002346,117.49236640002346,117.49236640002346,117.49236640002346,117.49236640002346,23,0,,,117.49236640002346,117.69245380000211,0.0,117.69245380000211,1,0.0,0,0,1000,num_4,0.23219429998425767,,25,15,2026-03-04_18h34.31.590,2026A_exp2,2022.2.4,59.97472665323993,
1000,1,0.0,3.7,1,0,27,27,67,,,,,117.94316780002555,118.57680120004807,118.57680120004807,119.077917000046,315,45,119.077917000046,119.077917000046,119.077917000046,119.077917000046,119.077917000046,119.077917000046,119.077917000046,119.077917000046,119.077917000046,119.44436380005209,119.44436380005209,119.44436380005209,119.44436380005209,119.44436380005209,119.44436380005209,119.44436380005209,119.44436380005209,119.44436380005209,23,0,,,119.44436380005209,119.64631100004772,1000,119.64631100004772,1000,1000,1000,1000,1,num_2,0.23055720003321767,,25,15,2026-03-04_18h34.31.590,2026A_exp2,2022.2.4,59.97472665323993,
0,0,3.7,3.7,1,0,28,28,62,,,,,119.89480710000498,120.54543570004171,120.54543570004171,121.04649680003058,45,45,121.04649680003058,121.04649680003058,121.04649680003058,121.04649680003058,121.04649680003058,121.04649680003058,121.04649680003058,121.04649680003058,121.04649680003058,121.41281290003099,121.41281290003099,121.41281290003099,121.41281290003099,121.41281290003099,121.41281290003099,121.41281290003099,121.41281290003099,121.41281290003099,23,0,,,121.41281290003099,121.61297190003097,3.7,121.61297190003097,1,3.7,1,1,1000,num_4,0.21488159999717027,,25,15,2026-03-04_18h34.31.590,2026A_exp2,2022.2.4,59.97472665323993,
1,0,4.9,6.1,1,0,29,29,36,,,,,121.84677020000527,122.49752200004878,122.49752200004878,122.9817293000524,315,45,122.9817293000524,122.9817293000524,122.9817293000524,122.9817293000524,122.9817293000524,122.9817293000524,122.9817293000524,122.9817293000524,122.9817293000524,123.34804090001853,123.34804090001853,123.34804090001853,123.34804090001853,123.34804090001853,123.34804090001853,123.34804090001853,123.34804090001853,123.34804090001853,23,0,,,123.34804090001853,123.54831380001269,6.1,123.54831380001269,1,6.1,1,1,1000,num_4,0.36100299999816343,,25,15,2026-03-04_18h34.31.590,2026A_exp2,2022.2.4,59.97472665323993,
1000,1,6.1,6.1,1,0,30,30,53,,,,,123.93222720001359,124.5828636000515,124.5828636000515,125.06722880003508,45,45,125.06722880003508,125.06722880003508,125.06722880003508,125.06722880003508,125.06722880003508,125.06722880003508,125.06722880003508,125.06722880003508,125.06722880003508,125.43367460003356,125.43367460003356,125.43367460003356,125.43367460003356,125.43367460003356,125.43367460003356,125.43367460003356,125.43367460003356,125.43367460003356,23,0,,,125.43367460003356,125.6354466000339,1000,125.6354466000339,1000,1000,1000,1000,1,num_2,0.2655205999617465,,25,15,2026-03-04_18h34.31.590,2026A_exp2,2022.2.4,59.97472665323993,
1,0,0.0,0.0,0,0,31,31,11,,,,,125.91753810003866,126.56812440004433,126.56812440004433,127.07473230001051,45,315,127.07473230001051,127.07473230001051,127.07473230001051,127.07473230001051,127.07473230001051,127.07473230001051,127.07473230001051,127.07473230001051,127.07473230001051,127.43554990005214,127.43554990005214,127.43554990005214,127.43554990005214,127.43554990005214,127.43554990005214,127.43554990005214,127.43554990005214,127.43554990005214,23,0,,,127.43554990005214,127.64033130003372,0.0,127.64033130003372,1,0.0,0,0,1000,num_4,0.20354660000884905,,25,15,2026-03-04_18h34.31.590,2026A_exp2,2022.2.4,59.97472665323993,
1000,1,6.1,6.1,0,0,32,32,87,,,,,127.86947980005061,128.52007050003158,128.52007050003158,129.0210919000092,45,315,129.0210919000092,129.0210919000092,129.0210919000092,129.0210919000092,129.0210919000092,129.0210919000092,129.0210919000092,129.0210919000092,129.0210919000092,129.37085410003783,129.37085410003783,129.37085410003783,129.37085410003783,129.37085410003783,129.37085410003783,129.37085410003783,129.37085410003783,129.37085410003783,22,0,,,129.37085410003783,129.57310480001615,1000,129.57310480001615,1000,1000,1000,1000,0,num_3,0.3835908999899402,,25,15,2026-03-04_18h34.31.590,2026A_exp2,2022.2.4,59.97472665323993,
1000,1,4.9,0.0,0,0,33,33,37,,,,,129.98828340001637,130.6387362999958,130.6387362999958,131.1399891000474,315,315,131.1399891000474,131.1399891000474,131.1399891000474,131.1399891000474,131.1399891000474,131.1399891000474,131.1399891000474,131.1399891000474,131.1399891000474,131.50637120002648,131.50637120002648,131.50637120002648,131.50637120002648,131.50637120002648,131.50637120002648,131.50637120002648,131.50637120002648,131.50637120002648,0,1,[0.0012329000164754689],[0.3671415999997407],131.50637120002648,131.70668650005246,1000,131.70668650005246,1000,1000,1000,1000,0,num_3,0.4734500999911688,,25,15,2026-03-04_18h34.31.590,2026A_exp2,2022.2.4,59.97472665323993,
1000,1,3.7,0.0,1,0,34,34,52,,,,,132.20688140002312,132.8576043000212,132.8576043000212,133.35869810002623,45,315,133.35869810002623,133.35869810002623,133.35869810002623,133.35869810002623,133.35869810002623,133.35869810002623,133.35869810002623,133.35869810002623,133.35869810002623,133.7085916000069,133.7085916000069,133.7085916000069,133.7085916000069,133.7085916000069,133.7085916000069,133.7085916000069,133.7085916000069,133.7085916000069,22,0,,,133.7085916000069,133.91042140003992,1000,133.91042140003992,1000,1000,1000,1000,1,num_2,0.094096599961631,,25,15,2026-03-04_18h34.31.590,2026A_exp2,2022.2.4,59.97472665323993,
1,0,6.1,3.7,1,0,35,35,16,,,,,134.0255285000312,134.67631800001254,134.67631800001254,135.16067180002574,315,45,135.16067180002574,135.16067180002574,135.16067180002574,135.16067180002574,135.16067180002574,135.16067180002574,135.16067180002574,135.16067180002574,135.16067180002574,135.52699179999763,135.52699179999763,135.52699179999763,135.52699179999763,135.52699179999763,135.52699179999763,135.52699179999763,135.52699179999763,135.52699179999763,23,0,,,135.52699179999763,135.72727730002953,3.7,135.72727730002953,1,3.7,1,1,1000,num_4,0.18924999999580905,,25,15,2026-03-04_18h34.31.590,2026A_exp2,2022.2.4,59.97472665323993,
1,0,0.0,0.0,0,0,36,36,85,,,,,135.9442155000288,136.59465730004013,136.59465730004013,137.0792370000272,45,315,137.0792370000272,137.0792370000272,137.0792370000272,137.0792370000272,137.0792370000272,137.0792370000272,137.0792370000272,137.0792370000272,137.0792370000272,137.44562549999682,137.44562549999682,137.44562549999682,137.44562549999682,137.44562549999682,137.44562549999682,137.44562549999682,137.44562549999682,137.44562549999682,23,0,,,137.44562549999682,137.6458637000178,0.0,137.6458637000178,1,0.0,0,0,1000,num_4,0.11096269998233765,,25,15,2026-03-04_18h34.31.590,2026A_exp2,2022.2.4,59.97472665323993,
1,0,6.1,3.7,1,0,37,37,83,,,,,137.77933680004207,138.42984170001,138.42984170001,138.91413610003656,45,45,138.91413610003656,138.91413610003656,138.91413610003656,138.91413610003656,138.91413610003656,138.91413610003656,138.91413610003656,138.91413610003656,138.91413610003656,139.28084580000723,139.28084580000723,139.28084580000723,139.28084580000723,139.28084580000723,139.28084580000723,139.28084580000723,139.28084580000723,139.28084580000723,23,0,,,139.28084580000723,139.4809438000084,3.7,139.4809438000084,1,3.7,1,1,1000,num_4,0.08290280000073835,,25,15,2026-03-04_18h34.31.590,2026A_exp2,2022.2.4,59.97472665323993,
1000,1,0.0,3.7,1,0,38,38,1,,,,,139.58103560004383,140.231582300039,140.231582300039,140.73283029999584,315,45,140.73283029999584,140.73283029999584,140.73283029999584,140.73283029999584,140.73283029999584,140.73283029999584,140.73283029999584,140.73283029999584,140.73283029999584,141.08265019999817,141.08265019999817,141.08265019999817,141.08265019999817,141.08265019999817,141.08265019999817,141.08265019999817,141.08265019999817,141.08265019999817,22,0,,,141.08265019999817,141.28481900005136,1000,141.28481900005136,1000,1000,1000,1000,1,num_2,0.16702839999925345,,25,15,2026-03-04_18h34.31.590,2026A_exp2,2022.2.4,59.97472665323993,
1,0,6.1,0.0,0,0,39,39,77,,,,,141.48294430004898,142.13352780003333,142.13352780003333,142.63471940002637,45,45,142.63471940002637,142.63471940002637,142.63471940002637,142.63471940002637,142.63471940002637,142.63471940002637,142.63471940002637,142.63471940002637,142.63471940002637,143.00087550003082,143.00087550003082,143.00087550003082,143.00087550003082,143.00087550003082,143.00087550003082,143.00087550003082,143.00087550003082,143.00087550003082,23,0,,,143.00087550003082,143.20126290002372,6.1,143.20126290002372,0,6.1,1,0,1000,num_1,0.21097160002682358,,25,15,2026-03-04_18h34.31.590,2026A_exp2,2022.2.4,59.97472665323993,
1,0,0.0,0.0,1,0,40,40,4,,,,,143.43488290003734,144.08554430003278,144.08554430003278,144.57009410002502,45,45,144.57009410002502,144.57009410002502,144.57009410002502,144.57009410002502,144.57009410002502,144.57009410002502,144.57009410002502,144.57009410002502,144.57009410002502,144.93849010003032,144.93849010003032,144.93849010003032,144.93849010003032,144.93849010003032,144.93849010003032,144.93849010003032,144.93849010003032,144.93849010003032,23,0,,,144.93849010003032,145.16765469999518,0.0,145.16765469999518,0,0.0,0,1,1000,num_1,1.6283622999908403,,25,15,2026-03-04_18h34.31.590,2026A_exp2,2022.2.4,59.97472665323993,
1000,1,0.0,0.0,1,0,41,41,88,,,,,146.82166529999813,147.47241879999638,147.47241879999638,147.95661450002808,45,45,147.95661450002808,147.95661450002808,147.95661450002808,147.95661450002808,147.95661450002808,147.95661450002808,147.95661450002808,147.95661450002808,147.95661450002808,148.32327910000458,148.32327910000458,148.32327910000458,148.32327910000458,148.32327910000458,148.32327910000458,148.32327910000458,148.32327910000458,148.32327910000458,23,0,,,148.32327910000458,148.52313760004472,1000,148.52313760004472,1000,1000,1000,1000,1,num_2,0.9298154999851249,,25,15,2026-03-04_18h34.31.590,2026A_exp2,2022.2.4,59.97472665323993,
1000,1,0.0,0.0,1,0,42,42,44,,,,,149.47419010003796,150.12502360000508,150.12502360000508,150.60929990001023,315,45,150.60929990001023,150.60929990001023,150.60929990001023,150.60929990001023,150.60929990001023,150.60929990001023,150.60929990001023,150.60929990001023,150.60929990001023,150.97584000002826,150.97584000002826,150.97584000002826,150.97584000002826,150.97584000002826,150.97584000002826,150.97584000002826,150.97584000002826,150.97584000002826,23,0,,,150.97584000002826,151.17852330004098,1000,151.17852330004098,1000,1000,1000,1000,1,num_2,0.8261572000337765,,25,15,2026-03-04_18h34.31.590,2026A_exp2,2022.2.4,59.97472665323993,
1,0,6.1,0.0,0,0,43,43,51,,,,,152.0268830000423,152.67754300002707,152.67754300002707,153.17869440000504,45,45,153.17869440000504,153.17869440000504,153.17869440000504,153.17869440000504,153.17869440000504,153.17869440000504,153.17869440000504,153.17869440000504,153.17869440000504,153.545161200047,153.545161200047,153.545161200047,153.545161200047,153.545161200047,153.545161200047,153.545161200047,153.545161200047,153.545161200047,23,0,,,153.545161200047,153.74526330002118,6.1,153.74526330002118,0,6.1,1,0,1000,num_1,1.267708599974867,,25,15,2026-03-04_18h34.31.590,2026A_exp2,2022.2.4,59.97472665323993,
1,0,3.7,0.0,0,0,44,44,10,,,,,155.0299080000259,155.6804557000287,155.6804557000287,156.16499360004673,45,45,156.16499360004673,156.16499360004673,156.16499360004673,156.16499360004673,156.16499360004673,156.16499360004673,156.16499360004673,156.16499360004673,156.16499360004673,156.53141009999672,156.53141009999672,156.53141009999672,156.53141009999672,156.53141009999672,156.53141009999672,156.53141009999672,156.53141009999672,156.53141009999672,1,1,[0.0012146999943070114],[0.3670958000002429],156.53141009999672,156.73159430001397,3.7,156.73159430001397,0,3.7,1,0,1000,num_1,0.17763639998156577,,25,15,2026-03-04_18h34.31.590,2026A_exp2,2022.2.4,59.97472665323993,
1,0,4.9,4.9,0,0,45,45,28,,,,,156.93178530002479,157.58244530000957,157.58244530000957,158.06678000005195,45,315,158.06678000005195,158.06678000005195,158.06678000005195,158.06678000005195,158.06678000005195,158.06678000005195,158.06678000005195,158.06678000005195,158.06678000005195,158.43332770001143,158.43332770001143,158.43332770001143,158.43332770001143,158.43332770001143,158.43332770001143,158.43332770001143,158.43332770001143,158.43332770001143,23,0,,,158.43332770001143,158.63350779999746,4.9,158.63350779999746,0,4.9,1,0,1000,num_1,0.5397670000093058,,25,15,2026-03-04_18h34.31.590,2026A_exp2,2022.2.4,59.97472665323993,
1,0,0.0,4.9,1,0,46,46,41,,,,,159.20101110002724,159.85144310002215,159.85144310002215,160.35237850004341,45,45,160.35237850004341,160.35237850004341,160.35237850004341,160.35237850004341,160.35237850004341,160.35237850004341,160.35237850004341,160.35237850004341,160.35237850004341,160.71901480003726,160.71901480003726,160.71901480003726,160.71901480003726,160.71901480003726,160.71901480003726,160.71901480003726,160.71901480003726,160.71901480003726,23,0,,,160.71901480003726,160.91914950002683,4.9,160.91914950002683,1,4.9,1,1,1000,num_4,0.26954009995097294,,25,15,2026-03-04_18h34.31.590,2026A_exp2,2022.2.4,59.97472665323993,
1000,1,0.0,4.9,1,0,47,47,57,,,,,161.21943500003545,161.86990450002486,161.86990450002486,162.35457240004325,315,315,162.35457240004325,162.35457240004325,162.35457240004325,162.35457240004325,162.35457240004325,162.35457240004325,162.35457240004325,162.35457240004325,162.35457240004325,162.72095290001016,162.72095290001016,162.72095290001016,162.72095290001016,162.72095290001016,162.72095290001016,162.72095290001016,162.72095290001016,162.72095290001016,23,0,,,162.72095290001016,162.92327950004255,1000,162.92327950004255,1000,1000,1000,1000,1,num_2,0.5212987000122666,,25,15,2026-03-04_18h34.31.590,2026A_exp2,2022.2.4,59.97472665323993,
1000,1,0.0,0.0,0,0,48,48,79,,,,,163.4716718000127,164.1223108000122,164.1223108000122,164.62346110004,45,315,164.62346110004,164.62346110004,164.62346110004,164.62346110004,164.62346110004,164.62346110004,164.62346110004,164.62346110004,164.62346110004,164.98965420003515,164.98965420003515,164.98965420003515,164.98965420003515,164.98965420003515,164.98965420003515,164.98965420003515,164.98965420003515,164.98965420003515,23,0,,,164.98965420003515,165.19286670000292,1000,165.19286670000292,1000,1000,1000,1000,1,num_2,0.5244858000078239,,25,15,2026-03-04_18h34.31.590,2026A_exp2,2022.2.4,59.97472665323993,
1000,1,3.7,0.0,0,0,49,49,55,,,,,165.740634100046,166.3911652000388,166.3911652000388,166.8924105000333,45,315,166.8924105000333,166.8924105000333,166.8924105000333,166.8924105000333,166.8924105000333,166.8924105000333,166.8924105000333,166.8924105000333,166.8924105000333,167.24208080000244,167.24208080000244,167.24208080000244,167.24208080000244,167.24208080000244,167.24208080000244,167.24208080000244,167.24208080000244,167.24208080000244,22,0,,,167.24208080000244,167.4442323000403,1000,167.45903650001856,1000,1000,1000,1000,0,num_3,0.41021489998092875,,25,15,2026-03-04_18h34.31.590,2026A_exp2,2022.2.4,59.97472665323993,
1,0,3.7,6.1,1,0,50,50,75,,,,,167.893034800014,168.54352050001035,168.54352050001035,169.04448160005268,315,315,169.04448160005268,169.04448160005268,169.04448160005268,169.04448160005268,169.04448160005268,169.04448160005268,169.04448160005268,169.04448160005268,169.04448160005268,169.39424650004366,169.39424650004366,169.39424650004366,169.39424650004366,169.39424650004366,169.39424650004366,169.39424650004366,169.39424650004366,169.39424650004366,22,0,,,169.39424650004366,169.59431140002562,6.1,169.59431140002562,1,6.1,1,1,1000,num_4,0.5541300000040792,,25,15,2026-03-04_18h34.31.590,2026A_exp2,2022.2.4,59.97472665323993,
1000,1,0.0,0.0,1,0,51,51,34,,,,,170.17834460001905,170.8290334000485,170.8290334000485,171.31344500003615,315,45,171.31344500003615,171.31344500003615,171.31344500003615,171.31344500003615,171.31344500003615,171.31344500003615,171.31344500003615,171.31344500003615,171.31344500003615,171.67973610002082,171.67973610002082,171.67973610002082,171.67973610002082,171.67973610002082,171.67973610002082,171.67973610002082,171.67973610002082,171.67973610002082,23,0,,,171.67973610002082,171.88234020001255,1000,171.88234020001255,1000,1000,1000,1000,1,num_2,0.5135520999901928,,25,15,2026-03-04_18h34.31.590,2026A_exp2,2022.2.4,59.97472665323993,
1000,1,4.9,0.0,0,0,52,52,12,,,,,172.41397230001166,173.06458190002013,173.06458190002013,173.5656014000415,315,315,173.5656014000415,173.5656014000415,173.5656014000415,173.5656014000415,173.5656014000415,173.5656014000415,173.5656014000415,173.5656014000415,173.5656014000415,173.93206630001077,173.93206630001077,173.93206630001077,173.93206630001077,173.93206630001077,173.93206630001077,173.93206630001077,173.93206630001077,173.93206630001077,23,0,,,173.93206630001077,174.1348360000411,1000,174.1348360000411,1000,1000,1000,1000,0,num_3,0.38934479997260496,,25,15,2026-03-04_18h34.31.590,2026A_exp2,2022.2.4,59.97472665323993,
1,0,6.1,0.0,1,0,53,53,17,,,,,174.54910720000044,175.20007890003035,175.20007890003035,175.68451570003526,45,315,175.68451570003526,175.68451570003526,175.68451570003526,175.68451570003526,175.68451570003526,175.68451570003526,175.68451570003526,175.68451570003526,175.68451570003526,176.05094510002527,176.05094510002527,176.05094510002527,176.05094510002527,176.05094510002527,176.05094510002527,176.05094510002527,176.05094510002527,176.05094510002527,23,0,,,176.05094510002527,176.25098559999606,0.0,176.25098559999606,0,0.0,0,1,1000,num_1,1.2101479000411928,,25,15,2026-03-04_18h34.31.590,2026A_exp2,2022.2.4,59.97472665323993,
1000,1,0.0,0.0,1,0,54,54,35,,,,,177.48565889999736,178.1363379000104,178.1363379000104,178.62073510000482,45,45,178.62073510000482,178.62073510000482,178.62073510000482,178.62073510000482,178.62073510000482,178.62073510000482,178.62073510000482,178.62073510000482,178.62073510000482,178.98714550002478,178.98714550002478,178.98714550002478,178.98714550002478,178.98714550002478,178.98714550002478,178.98714550002478,178.98714550002478,178.98714550002478,23,0,,,178.98714550002478,179.18974230001913,1000,179.18974230001913,1000,1000,1000,1000,1,num_2,0.5507486999849789,,25,15,2026-03-04_18h34.31.590,2026A_exp2,2022.2.4,59.97472665323993,
1,0,0.0,0.0,1,0,55,55,58,,,,,179.7712927000248,180.42190780001692,180.42190780001692,180.92295320000267,45,45,180.92295320000267,180.92295320000267,180.92295320000267,180.92295320000267,180.92295320000267,180.92295320000267,180.92295320000267,180.92295320000267,180.92295320000267,181.28947300004074,181.28947300004074,181.28947300004074,181.28947300004074,181.28947300004074,181.28947300004074,181.28947300004074,181.28947300004074,181.28947300004074,23,0,,,181.28947300004074,181.4896238000365,0.0,181.4896238000365,0,0.0,0,1,1000,num_1,0.8105807999963872,,25,15,2026-03-04_18h34.31.590,2026A_exp2,2022.2.4,59.97472665323993,
1000,1,3.7,6.1,1,0,56,56,43,,,,,182.32375219999813,182.9744064999977,182.9744064999977,183.45886579999933,45,45,183.45886579999933,183.45886579999933,183.45886579999933,183.45886579999933,183.45886579999933,183.45886579999933,183.45886579999933,183.45886579999933,183.45886579999933,183.82536660000915,183.82536660000915,183.82536660000915,183.82536660000915,183.82536660000915,183.82536660000915,183.82536660000915,183.82536660000915,183.82536660000915,23,0,,,183.82536660000915,184.0256944000139,1000,184.0256944000139,1000,1000,1000,1000,1,num_2,0.4744228000054136,,25,15,2026-03-04_18h34.31.590,2026A_exp2,2022.2.4,59.97472665323993,
1000,1,0.0,3.7,1,0,57,57,82,,,,,184.52610850002384,185.17673910001758,185.17673910001758,185.6778252000222,315,45,185.6778252000222,185.6778252000222,185.6778252000222,185.6778252000222,185.6778252000222,185.6778252000222,185.6778252000222,185.6778252000222,185.6778252000222,186.04420050000772,186.04420050000772,186.04420050000772,186.04420050000772,186.04420050000772,186.04420050000772,186.04420050000772,186.04420050000772,186.04420050000772,23,0,,,186.04420050000772,186.2450653000269,1000,186.2450653000269,1000,1000,1000,1000,1,num_2,0.5189255000441335,,25,15,2026-03-04_18h34.31.590,2026A_exp2,2022.2.4,59.97472665323993,
1000,1,3.7,0.0,1,0,58,58,38,,,,,186.79482990002725,187.4456649000058,187.4456649000058,187.94666920002783,315,45,187.94666920002783,187.94666920002783,187.94666920002783,187.94666920002783,187.94666920002783,187.94666920002783,187.94666920002783,187.94666920002783,187.94666920002783,188.31316920003155,188.31316920003155,188.31316920003155,188.31316920003155,188.31316920003155,188.31316920003155,188.31316920003155,188.31316920003155,188.31316920003155,23,0,,,188.31316920003155,188.53399310004897,1000,188.53399310004897,1000,1000,1000,1000,1,num_2,0.3983350000344217,,25,15,2026-03-04_18h34.31.590,2026A_exp2,2022.2.4,59.97472665323993,
1,0,3.7,0.0,0,0,59,59,7,,,,,188.96385320002446,189.61452490004012,189.61452490004012,190.11558490002062,315,45,190.11558490002062,190.11558490002062,190.11558490002062,190.11558490002062,190.11558490002062,190.11558490002062,190.11558490002062,190.11558490002062,190.11558490002062,190.48196150001604,190.48196150001604,190.48196150001604,190.48196150001604,190.48196150001604,190.48196150001604,190.48196150001604,190.48196150001604,190.48196150001604,23,0,,,190.48196150001604,190.68225910002366,3.7,190.68225910002366,1,3.7,1,1,1000,num_4,0.6030447999946773,,25,15,2026-03-04_18h34.31.590,2026A_exp2,2022.2.4,59.97472665323993,
1,0,0.0,3.7,1,0,60,60,30,,,,,191.3162792000221,191.95021450001514,191.95021450001514,192.45120360003784,315,315,192.45120360003784,192.45120360003784,192.45120360003784,192.45120360003784,192.45120360003784,192.45120360003784,192.45120360003784,192.45120360003784,192.45120360003784,192.81776490004268,192.81776490004268,192.81776490004268,192.81776490004268,192.81776490004268,192.81776490004268,192.81776490004268,192.81776490004268,192.81776490004268,23,0,,,192.81776490004268,193.01774140005,3.7,193.01774140005,0,3.7,1,0,1000,num_1,0.6103510999819264,,25,15,2026-03-04_18h34.31.590,2026A_exp2,2022.2.4,59.97472665323993,
1,0,0.0,0.0,1,0,61,61,66,,,,,193.65164610004285,194.3025204000296,194.3025204000296,194.7869924000115,315,45,194.7869924000115,194.7869924000115,194.7869924000115,194.7869924000115,194.7869924000115,194.7869924000115,194.7869924000115,194.7869924000115,194.7869924000115,195.1531756000477,195.1531756000477,195.1531756000477,195.1531756000477,195.1531756000477,195.1531756000477,195.1531756000477,195.1531756000477,195.1531756000477,23,0,,,195.1531756000477,195.353853800043,0.0,195.353853800043,0,0.0,0,1,1000,num_1,0.6270793000003323,,25,15,2026-03-04_18h34.31.590,2026A_exp2,2022.2.4,59.97472665323993,
1000,1,4.9,0.0,0,0,62,62,45,,,,,196.0041606000159,196.65486830001464,196.65486830001464,197.13925960002234,45,315,197.13925960002234,197.13925960002234,197.13925960002234,197.13925960002234,197.13925960002234,197.13925960002234,197.13925960002234,197.13925960002234,197.13925960002234,197.50572310003918,197.50572310003918,197.50572310003918,197.50572310003918,197.50572310003918,197.50572310003918,197.50572310003918,197.50572310003918,197.50572310003918,23,0,,,197.50572310003918,197.7082918000524,1000,197.7082918000524,1000,1000,1000,1000,0,num_3,0.5445370999514125,,25,15,2026-03-04_18h34.31.590,2026A_exp2,2022.2.4,59.97472665323993,
0,0,4.9,0.0,1,0,63,63,26,,,,,198.2732171000098,198.92381740000565,198.92381740000565,199.42479120002827,315,315,199.42479120002827,199.42479120002827,199.42479120002827,199.42479120002827,199.42479120002827,199.42479120002827,199.42479120002827,199.42479120002827,199.42479120002827,199.79127780004637,199.79127780004637,199.79127780004637,199.79127780004637,199.79127780004637,199.79127780004637,199.79127780004637,199.79127780004637,199.79127780004637,23,0,,,199.79127780004637,199.99158370000077,4.9,199.99158370000077,0,4.9,1,0,1000,num_1,0.7811404999811202,,25,15,2026-03-04_18h34.31.590,2026A_exp2,2022.2.4,59.97472665323993,
1000,1,6.1,4.9,1,0,64,64,15,,,,,200.79233740002383,201.44288730004337,201.44288730004337,201.927427800023,45,315,201.927427800023,201.927427800023,201.927427800023,201.927427800023,201.927427800023,201.927427800023,201.927427800023,201.927427800023,201.927427800023,202.29386050003814,202.29386050003814,202.29386050003814,202.29386050003814,202.29386050003814,202.29386050003814,202.29386050003814,202.29386050003814,202.29386050003814,23,0,,,202.29386050003814,202.49608530005207,1000,202.49608530005207,1000,1000,1000,1000,1,num_2,0.5087576000369154,,25,15,2026-03-04_18h34.31.590,2026A_exp2,2022.2.4,59.97472665323993,
1000,1,4.9,0.0,1,0,65,65,84,,,,,203.02804340003058,203.67842350003775,203.67842350003775,204.1629782000091,315,45,204.1629782000091,204.1629782000091,204.1629782000091,204.1629782000091,204.1629782000091,204.1629782000091,204.1629782000091,204.1629782000091,204.1629782000091,204.52931040001567,204.52931040001567,204.52931040001567,204.52931040001567,204.52931040001567,204.52931040001567,204.52931040001567,204.52931040001567,204.52931040001567,23,0,,,204.52931040001567,204.7318643000326,1000,204.7318643000326,1000,1000,1000,1000,1,num_2,0.5446962999994867,,25,15,2026-03-04_18h34.31.590,2026A_exp2,2022.2.4,59.97472665323993,
1,0,0.0,0.0,0,0,66,66,32,,,,,205.29688790004002,205.94734060001792,205.94734060001792,206.44846909999615,315,45,206.44846909999615,206.44846909999615,206.44846909999615,206.44846909999615,206.44846909999615,206.44846909999615,206.44846909999615,206.44846909999615,206.44846909999615,206.81487010000274,206.81487010000274,206.81487010000274,206.81487010000274,206.81487010000274,206.81487010000274,206.81487010000274,206.81487010000274,206.81487010000274,23,0,,,206.81487010000274,207.01524840004276,0.0,207.01524840004276,1,0.0,0,0,1000,num_4,0.9421182000078261,,25,15,2026-03-04_18h34.31.590,2026A_exp2,2022.2.4,59.97472665323993,
1000,1,0.0,6.1,0,0,67,67,27,,,,,207.98277550004423,208.63346219999949,208.63346219999949,209.11760880000656,45,315,209.11760880000656,209.11760880000656,209.11760880000656,209.11760880000656,209.11760880000656,209.11760880000656,209.11760880000656,209.11760880000656,209.11760880000656,209.48430070001632,209.48430070001632,209.48430070001632,209.48430070001632,209.48430070001632,209.48430070001632,209.48430070001632,209.48430070001632,209.48430070001632,13,5,"[0.0012550000101327896, 0.08356260001892224, 0.13375590002397075, 0.1670853000250645, 0.26713829999789596]","[0.06678789999568835, 0.11691760004032403, 0.1503134000231512, 0.2003944999887608, 0.28375010000308976]",209.48430070001632,209.6845482000499,1000,209.6845482000499,1000,1000,1000,1000,1,num_2,0.4484447000431828,,25,15,2026-03-04_18h34.31.590,2026A_exp2,2022.2.4,59.97472665323993,
1,0,3.7,0.0,0,0,68,68,9,,,,,210.15174310002476,210.80236640002113,210.80236640002113,211.30346550000831,45,315,211.30346550000831,211.30346550000831,211.30346550000831,211.30346550000831,211.30346550000831,211.30346550000831,211.30346550000831,211.30346550000831,211.30346550000831,211.6698761000298,211.6698761000298,211.6698761000298,211.6698761000298,211.6698761000298,211.6698761000298,211.6698761000298,211.6698761000298,211.6698761000298,23,0,,,211.6698761000298,211.8699709000066,3.7,211.8699709000066,1,3.7,1,1,1000,num_4,0.23002799996174872,,25,15,2026-03-04_18h34.31.590,2026A_exp2,2022.2.4,59.97472665323993,
0,0,6.1,4.9,1,0,69,69,42,,,,,212.12027820001822,212.77091860002838,212.77091860002838,213.27224020002177,45,45,213.27224020002177,213.27224020002177,213.27224020002177,213.27224020002177,213.27224020002177,213.27224020002177,213.27224020002177,213.27224020002177,213.27224020002177,213.62182150001172,213.62182150001172,213.62182150001172,213.62182150001172,213.62182150001172,213.62182150001172,213.62182150001172,213.62182150001172,213.62182150001172,22,0,,,213.62182150001172,213.82204550004099,6.1,213.82204550004099,0,6.1,1,0,1000,num_1,0.2622185000218451,,25,15,2026-03-04_18h34.31.590,2026A_exp2,2022.2.4,59.97472665323993,
1000,1,4.9,3.7,0,0,70,70,40,,,,,214.10566760000074,214.75632660003612,214.75632660003612,215.2542563000461,45,45,215.2542563000461,215.2542563000461,215.2542563000461,215.2542563000461,215.2542563000461,215.2542563000461,215.2542563000461,215.2542563000461,215.2542563000461,215.60708690003958,215.60708690003958,215.60708690003958,215.60708690003958,215.60708690003958,215.60708690003958,215.60708690003958,215.60708690003958,215.60708690003958,0,1,[0.004001399967819452],[0.36440249998122454],215.60708690003958,215.80938430002425,1000,215.80938430002425,1000,1000,1000,1000,0,num_3,0.4670445999945514,,25,15,2026-03-04_18h34.31.590,2026A_exp2,2022.2.4,59.97472665323993,
1000,1,0.0,0.0,1,0,71,71,63,,,,,216.30780370003777,216.9584103000234,216.9584103000234,217.4596814000397,315,315,217.4596814000397,217.4596814000397,217.4596814000397,217.4596814000397,217.4596814000397,217.4596814000397,217.4596814000397,217.4596814000397,217.4596814000397,217.82591330003925,217.82591330003925,217.82591330003925,217.82591330003925,217.82591330003925,217.82591330003925,217.82591330003925,217.82591330003925,217.82591330003925,23,0,,,217.82591330003925,218.0279991000425,1000,218.0279991000425,1000,1000,1000,1000,1,num_2,0.5362896000151522,,25,15,2026-03-04_18h34.31.590,2026A_exp2,2022.2.4,59.97472665323993,
1000,1,0.0,0.0,0,0,72,72,2,,,,,218.59335500001907,219.24397890002,219.24397890002,219.7452071000007,315,45,219.7452071000007,219.7452071000007,219.7452071000007,219.7452071000007,219.7452071000007,219.7452071000007,219.7452071000007,219.7452071000007,219.7452071000007,220.11167700000806,220.11167700000806,220.11167700000806,220.11167700000806,220.11167700000806,220.11167700000806,220.11167700000806,220.11167700000806,220.11167700000806,23,0,,,220.11167700000806,220.31351050001103,1000,220.31351050001103,1000,1000,1000,1000,0,num_3,0.3304144999710843,,25,15,2026-03-04_18h34.31.590,2026A_exp2,2022.2.4,59.97472665323993,
1000,1,3.7,0.0,1,0,73,73,78,,,,,220.66225550003583,221.31285610003397,221.31285610003397,221.81385800003773,315,315,221.81385800003773,221.81385800003773,221.81385800003773,221.81385800003773,221.81385800003773,221.81385800003773,221.81385800003773,221.81385800003773,221.81385800003773,222.1802844000049,222.1802844000049,222.1802844000049,222.1802844000049,222.1802844000049,222.1802844000049,222.1802844000049,222.1802844000049,222.1802844000049,23,0,,,222.1802844000049,222.3830076000304,1000,222.3830076000304,1000,1000,1000,1000,1,num_2,0.43830169999273494,,25,15,2026-03-04_18h34.31.590,2026A_exp2,2022.2.4,59.97472665323993,
1000,1,6.1,4.9,1,0,74,74,86,,,,,222.8478120000218,223.49829380004667,223.49829380004667,223.98282570001902,45,45,223.98282570001902,223.98282570001902,223.98282570001902,223.98282570001902,223.98282570001902,223.98282570001902,223.98282570001902,223.98282570001902,223.98282570001902,224.34910110000055,224.34910110000055,224.34910110000055,224.34910110000055,224.34910110000055,224.34910110000055,224.34910110000055,224.34910110000055,224.34910110000055,23,0,,,224.34910110000055,224.5509743000148,1000,224.5509743000148,1000,1000,1000,1000,0,num_3,0.23791879997588694,,25,15,2026-03-04_18h34.31.590,2026A_exp2,2022.2.4,59.97472665323993,
1,0,3.7,0.0,0,0,75,75,3,,,,,224.8163889000425,225.46699450002052,225.46699450002052,225.96800039999653,315,315,225.96800039999653,225.96800039999653,225.96800039999653,225.96800039999653,225.96800039999653,225.96800039999653,225.96800039999653,225.96800039999653,225.96800039999653,226.33455520001007,226.33455520001007,226.33455520001007,226.33455520001007,226.33455520001007,226.33455520001007,226.33455520001007,226.33455520001007,226.33455520001007,23,0,,,226.33455520001007,226.53475980000803,3.7,226.53475980000803,0,3.7,1,0,1000,num_1,0.9337082999991253,,25,15,2026-03-04_18h34.31.590,2026A_exp2,2022.2.4,59.97472665323993,
1,0,3.7,3.7,0,0,76,76,60,,,,,227.48567340004956,228.1363718000357,228.1363718000357,228.62077610002598,315,315,228.62077610002598,228.62077610002598,228.62077610002598,228.62077610002598,228.62077610002598,228.62077610002598,228.62077610002598,228.62077610002598,228.62077610002598,228.9872156000347,228.9872156000347,228.9872156000347,228.9872156000347,228.9872156000347,228.9872156000347,228.9872156000347,228.9872156000347,228.9872156000347,22,1,[0.35051870002644137],[0.367628300038632],228.9872156000347,229.18737060000421,3.7,229.18737060000421,0,3.7,1,0,1000,num_1,0.45714289997704327,,25,15,2026-03-04_18h34.31.590,2026A_exp2,2022.2.4,59.97472665323993,
1,0,0.0,3.7,0,0,77,77,64,,,,,229.67118170001777,230.32462170004146,230.32462170004146,230.80629979999503,45,315,230.80629979999503,230.80629979999503,230.80629979999503,230.80629979999503,230.80629979999503,230.80629979999503,230.80629979999503,230.80629979999503,230.80629979999503,231.17265650001355,231.17265650001355,231.17265650001355,231.17265650001355,231.17265650001355,231.17265650001355,231.17265650001355,231.17265650001355,231.17265650001355,19,1,[0.317044299968984],[0.36712009995244443],231.17265650001355,231.37291279999772,0.0,231.37291279999772,0,0.0,0,1,1000,num_1,0.44795000000158325,,25,15,2026-03-04_18h34.31.590,2026A_exp2,2022.2.4,59.97472665323993,
0,0,0.0,4.9,1,0,78,78,0,,,,,231.840078200039,232.49056800000835,232.49056800000835,232.97514090000186,315,45,232.97514090000186,232.97514090000186,232.97514090000186,232.97514090000186,232.97514090000186,232.97514090000186,232.97514090000186,232.97514090000186,232.97514090000186,233.3416017999989,233.3416017999989,233.3416017999989,233.3416017999989,233.3416017999989,233.3416017999989,233.3416017999989,233.3416017999989,233.3416017999989,23,0,,,233.3416017999989,233.54168750002282,0.0,233.54168750002282,0,0.0,0,1,1000,num_1,0.43871399998897687,,25,15,2026-03-04_18h34.31.590,2026A_exp2,2022.2.4,59.97472665323993,
1,0,4.9,3.7,1,0,79,79,71,,,,,234.00896090001334,234.65955610002857,234.65955610002857,235.1604502000264,315,45,235.1604502000264,235.1604502000264,235.1604502000264,235.1604502000264,235.1604502000264,235.1604502000264,235.1604502000264,235.1604502000264,235.1604502000264,235.51037190004718,235.51037190004718,235.51037190004718,235.51037190004718,235.51037190004718,235.51037190004718,235.51037190004718,235.51037190004718,235.51037190004718,22,0,,,235.51037190004718,235.71057520003524,3.7,235.72708920005243,0,3.7,1,0,1000,num_1,1.006004800030496,,25,15,2026-03-04_18h34.31.590,2026A_exp2,2022.2.4,59.97472665323993,
1,0,0.0,0.0,0,0,80,80,61,,,,,236.7615635000402,237.41229200002272,237.41229200002272,237.89671840000665,45,315,237.89671840000665,237.89671840000665,237.89671840000665,237.89671840000665,237.89671840000665,237.89671840000665,237.89671840000665,237.89671840000665,237.89671840000665,238.26318900001934,238.26318900001934,238.26318900001934,238.26318900001934,238.26318900001934,238.26318900001934,238.26318900001934,238.26318900001934,238.26318900001934,0,1,[0.0012449999921955168],[0.36704260000260547],238.26318900001934,238.46319380000932,0.0,238.46319380000932,0,0.0,0,1,1000,num_1,0.14213870000094175,,25,15,2026-03-04_18h34.31.590,2026A_exp2,2022.2.4,59.97472665323993,
1,0,0.0,0.0,0,0,81,81,22,,,,,238.63018810003996,239.28066150000086,239.28066150000086,239.7650918000145,315,315,239.7650918000145,239.7650918000145,239.7650918000145,239.7650918000145,239.7650918000145,239.7650918000145,239.7650918000145,239.7650918000145,239.7650918000145,240.13163550000172,240.13163550000172,240.13163550000172,240.13163550000172,240.13163550000172,240.13163550000172,240.13163550000172,240.13163550000172,240.13163550000172,22,1,[0.18333919998258352],[0.1999023999669589],240.13163550000172,240.33187460002955,0.0,240.33187460002955,0,0.0,0,1,1000,num_1,0.3203390000271611,,25,15,2026-03-04_18h34.31.590,2026A_exp2,2022.2.4,59.97472665323993,
1,0,3.7,3.7,0,0,82,82,8,,,,,240.68221900000935,241.33276790002128,241.33276790002128,241.81727960001444,315,45,241.81727960001444,241.81727960001444,241.81727960001444,241.81727960001444,241.81727960001444,241.81727960001444,241.81727960001444,241.81727960001444,241.81727960001444,242.18369040003745,242.18369040003745,242.18369040003745,242.18369040003745,242.18369040003745,242.18369040003745,242.18369040003745,242.18369040003745,242.18369040003745,0,1,[0.0012362999841570854],[0.3672447000280954],242.18369040003745,242.38387370004784,3.7,242.38387370004784,0,3.7,1,0,1000,num_1,0.36409819999244064,,25,15,2026-03-04_18h34.31.590,2026A_exp2,2022.2.4,59.97472665323993,
1,0,0.0,0.0,1,0,83,83,59,,,,,242.76763770001708,243.41816860000836,243.41816860000836,243.90271930000745,45,45,243.90271930000745,243.90271930000745,243.90271930000745,243.90271930000745,243.90271930000745,243.90271930000745,243.90271930000745,243.90271930000745,243.90271930000745,244.26923510001507,244.26923510001507,244.26923510001507,244.26923510001507,244.26923510001507,244.26923510001507,244.26923510001507,244.26923510001507,244.26923510001507,23,0,,,244.26923510001507,244.46928950003348,0.0,244.46928950003348,0,0.0,0,1,1000,num_1,0.44674360001226887,,25,15,2026-03-04_18h34.31.590,2026A_exp2,2022.2.4,59.97472665323993,
1000,1,6.1,0.0,0,0,84,84,21,,,,,244.93645950005157,245.58719040005235,245.58719040005235,246.07154520001495,315,45,246.07154520001495,246.07154520001495,246.07154520001495,246.07154520001495,246.07154520001495,246.07154520001495,246.07154520001495,246.07154520001495,246.07154520001495,246.43791380000766,246.43791380000766,246.43791380000766,246.43791380000766,246.43791380000766,246.43791380000766,246.43791380000766,246.43791380000766,246.43791380000766,23,0,,,246.43791380000766,246.64309880003566,1000,246.64309880003566,1000,1000,1000,1000,0,num_3,0.5542987000080757,,25,15,2026-03-04_18h34.31.590,2026A_exp2,2022.2.4,59.97472665323993,
1000,1,0.0,3.7,0,0,85,85,50,,,,,247.22212800005218,247.8726738000405,247.8726738000405,248.3737651000265,45,45,248.3737651000265,248.3737651000265,248.3737651000265,248.3737651000265,248.3737651000265,248.3737651000265,248.3737651000265,248.3737651000265,248.3737651000265,248.72352260001935,248.72352260001935,248.72352260001935,248.72352260001935,248.72352260001935,248.72352260001935,248.72352260001935,248.72352260001935,248.72352260001935,10,1,[0.001974900020286441],[0.20031790004577488],248.72352260001935,248.925824200036,1000,248.94060200004606,1000,1000,1000,1000,0,num_3,0.3357022000127472,,25,15,2026-03-04_18h34.31.590,2026A_exp2,2022.2.4,59.97472665323993,
1000,1,0.0,0.0,1,0,86,86,68,,,,,249.30757500004256,249.95813430001726,249.95813430001726,250.44257320003817,315,45,250.44257320003817,250.44257320003817,250.44257320003817,250.44257320003817,250.44257320003817,250.44257320003817,250.44257320003817,250.44257320003817,250.44257320003817,250.82569490000606,250.82569490000606,250.82569490000606,250.82569490000606,250.82569490000606,250.82569490000606,250.82569490000606,250.82569490000606,250.82569490000606,24,0,,,250.82569490000606,251.027647000039,1000,251.027647000039,1000,1000,1000,1000,1,num_2,0.241442599974107,,25,15,2026-03-04_18h34.31.590,2026A_exp2,2022.2.4,59.97472665323993,
1000,1,4.9,0.0,1,0,87,87,74,,,,,251.29302560002543,251.94346460001543,251.94346460001543,252.44447360001504,45,315,252.44447360001504,252.44447360001504,252.44447360001504,252.44447360001504,252.44447360001504,252.44447360001504,252.44447360001504,252.44447360001504,252.44447360001504,252.81099830003222,252.81099830003222,252.81099830003222,252.81099830003222,252.81099830003222,252.81099830003222,252.81099830003222,252.81099830003222,252.81099830003222,23,0,,,252.81099830003222,253.01124850002816,1000,253.01124850002816,1000,1000,1000,1000,1,num_2,0.1618607999989763,,25,15,2026-03-04_18h34.31.590,2026A_exp2,2022.2.4,59.97472665323993,
1000,1,3.7,0.0,1,0,88,88,19,,,,,253.19479320000391,253.84501660004025,253.84501660004025,254.3297110000276,45,45,254.3297110000276,254.3297110000276,254.3297110000276,254.3297110000276,254.3297110000276,254.3297110000276,254.3297110000276,254.3297110000276,254.3297110000276,254.71281009999802,254.71281009999802,254.71281009999802,254.71281009999802,254.71281009999802,254.71281009999802,254.71281009999802,254.71281009999802,254.71281009999802,24,0,,,254.71281009999802,254.91583860001992,1000,254.91583860001992,1000,1000,1000,1000,1,num_2,0.2410062999697402,,25,15,2026-03-04_18h34.31.590,2026A_exp2,2022.2.4,59.97472665323993,
1000,1,0.0,4.9,0,0,89,89,23,,,,,255.18027620000066,255.81396640004823,255.81396640004823,256.31507830001647,45,315,256.31507830001647,256.31507830001647,256.31507830001647,256.31507830001647,256.31507830001647,256.31507830001647,256.31507830001647,256.31507830001647,256.31507830001647,256.68142710003303,256.68142710003303,256.68142710003303,256.68142710003303,256.68142710003303,256.68142710003303,256.68142710003303,256.68142710003303,256.68142710003303,23,0,,,256.68142710003303,256.88200130005134,1000,256.88200130005134,1000,1000,1000,1000,0,num_3,0.27452550001908094,,25,15,2026-03-04_18h34.31.590,2026A_exp2,2022.2.4,59.97472665323993,
,,,,,,,,,,,,,,,,,,,,,,,,,,,,,,,,,,,,,,,,,,,,,,,,,,,,257.19098000001395,,,,,,,
