validity,detectorcomp,contrastCW,contrastCCW,precueCWorCCW,block_80trials.thisRepN,block_80trials.thisTrialN,block_80trials.thisN,block_80trials.thisIndex,etRecord.started,etRecord.stopped,text.started,text.stopped,text_4.started,text_4.stopped,text_6.started,text_6.stopped,oriCW,oriCCW,roi_2.started,grating_UR.started,grating_UL.started,grating_LR.started,grating_LL.started,noise_UR.started,noise_UL.started,noise_LR.started,noise_LL.started,roi_2.stopped,grating_UR.stopped,grating_UL.stopped,grating_LR.stopped,grating_LL.stopped,noise_UR.stopped,noise_UL.stopped,noise_LR.stopped,noise_LL.stopped,outframe,roi_2.numLooks,roi_2.timesOn,roi_2.timesOff,text_2.started,text_2.stopped,probedcontrast,key_resp.started,respdetect,relevantContrast,correctDetect,TorFdetect,respCWorCCW,key_resp.keys,key_resp.rt,feedback_display_.started,participantNo,blockNo,date,expName,psychopyVersion,frameRate,
1000,1,0.0,0.0,0,0,0,0,62,6.250012665987015e-05,6.250012665987015e-05,49.17315290006809,51.181324400007725,51.181324400007725,51.810209000017494,51.810209000017494,52.328713700175285,45,315,52.328713700175285,52.328713700175285,52.328713700175285,52.328713700175285,52.328713700175285,52.328713700175285,52.328713700175285,52.328713700175285,52.328713700175285,52.677657100139186,52.677657100139186,52.677657100139186,52.677657100139186,52.677657100139186,52.677657100139186,52.677657100139186,52.677657100139186,52.677657100139186,0,1,[0.0009112001862376928],[0.3680164001416415],52.677657100139186,52.88497250014916,1000,52.88497250014916,1000,1000,1000,1000,0,num_3,0.7028729997109622,,33,5,2026-03-12_17h32.53.183,2026A_exp2,2022.2.4,59.94459918433608,
1000,1,0.0,0.0,0,0,1,1,64,,,,,53.61201360006817,54.26271790009923,54.26271790009923,54.76379770017229,315,45,54.76379770017229,54.76379770017229,54.76379770017229,54.76379770017229,54.76379770017229,54.76379770017229,54.76379770017229,54.76379770017229,54.76379770017229,55.13006170000881,55.13006170000881,55.13006170000881,55.13006170000881,55.13006170000881,55.13006170000881,55.13006170000881,55.13006170000881,55.13006170000881,0,1,[0.0012250000145286322],[0.36732469988055527],55.13006170000881,55.33209210005589,1000,55.33209210005589,1000,1000,1000,1000,0,num_3,0.5123724997974932,,33,5,2026-03-12_17h32.53.183,2026A_exp2,2022.2.4,59.94459918433608,
1000,1,0.0,0.0,0,0,2,2,7,,,,,55.86423599999398,56.51478140009567,56.51478140009567,57.01602280000225,45,315,57.01602280000225,57.01602280000225,57.01602280000225,57.01602280000225,57.01602280000225,57.01602280000225,57.01602280000225,57.01602280000225,57.01602280000225,57.382340100128204,57.382340100128204,57.382340100128204,57.382340100128204,57.382340100128204,57.382340100128204,57.382340100128204,57.382340100128204,57.382340100128204,0,1,[0.0012093998957425356],[0.3673972999677062],57.382340100128204,57.58438950008713,1000,57.58438950008713,1000,1000,1000,1000,1,num_2,0.3876514998264611,,33,5,2026-03-12_17h32.53.183,2026A_exp2,2022.2.4,59.94459918433608,
1000,1,0.0,0.0,1,0,3,3,29,,,,,57.999747700057924,58.650222999975085,58.650222999975085,59.151498100021854,45,315,59.151498100021854,59.151498100021854,59.151498100021854,59.151498100021854,59.151498100021854,59.151498100021854,59.151498100021854,59.151498100021854,59.151498100021854,59.51788119995035,59.51788119995035,59.51788119995035,59.51788119995035,59.51788119995035,59.51788119995035,59.51788119995035,59.51788119995035,59.51788119995035,0,1,[0.0012206998653709888],[0.36700750002637506],59.51788119995035,59.71980180009268,1000,59.71980180009268,1000,1000,1000,1000,1,num_2,0.5174249999690801,,33,5,2026-03-12_17h32.53.183,2026A_exp2,2022.2.4,59.94459918433608,
0,0,6.1,0.0,0,0,4,4,41,,,,,60.26870659994893,60.91933750011958,60.91933750011958,61.42038789996877,315,45,61.42038789996877,61.42038789996877,61.42038789996877,61.42038789996877,61.42038789996877,61.42038789996877,61.42038789996877,61.42038789996877,61.42038789996877,61.78670800011605,61.78670800011605,61.78670800011605,61.78670800011605,61.78670800011605,61.78670800011605,61.78670800011605,61.78670800011605,61.78670800011605,5,4,"[0.0013556999620050192, 0.14996029995381832, 0.2672400998417288, 0.350466099800542]","[0.13330470002256334, 0.23385820002295077, 0.317232099827379, 0.36727789998985827]",61.78670800011605,61.987040400039405,0.0,61.987040400039405,0,0.0,0,1,1000,num_1,0.705937699880451,,33,5,2026-03-12_17h32.53.183,2026A_exp2,2022.2.4,59.94459918433608,
1000,1,4.9,0.0,1,0,5,5,48,,,,,62.72111260006204,63.37176900007762,63.37176900007762,63.85621290002018,45,45,63.85621290002018,63.85621290002018,63.85621290002018,63.85621290002018,63.85621290002018,63.85621290002018,63.85621290002018,63.85621290002018,63.85621290002018,64.22227609995753,64.22227609995753,64.22227609995753,64.22227609995753,64.22227609995753,64.22227609995753,64.22227609995753,64.22227609995753,64.22227609995753,14,4,"[0.0012309001758694649, 0.10033670021221042, 0.2837106001097709, 0.33367100008763373]","[0.05012240004725754, 0.11706240009516478, 0.31717520020902157, 0.3670385000295937]",64.22227609995753,64.42439970001578,1000,64.42439970001578,1000,1000,1000,1000,0,num_3,0.7713142998982221,,33,5,2026-03-12_17h32.53.183,2026A_exp2,2022.2.4,59.94459918433608,
1,0,3.7,0.0,1,0,6,6,30,,,,,65.22361750015989,65.87423459999263,65.87423459999263,66.37530059996061,45,315,66.37530059996061,66.37530059996061,66.37530059996061,66.37530059996061,66.37530059996061,66.37530059996061,66.37530059996061,66.37530059996061,66.37530059996061,66.74190789996646,66.74190789996646,66.74190789996646,66.74190789996646,66.74190789996646,66.74190789996646,66.74190789996646,66.74190789996646,66.74190789996646,14,1,[0.23352400003932416],[0.3668092000298202],66.74190789996646,66.94188460009173,0.0,66.94188460009173,0,0.0,0,1,1000,num_1,0.6541196999605745,,33,5,2026-03-12_17h32.53.183,2026A_exp2,2022.2.4,59.94459918433608,
1000,1,3.7,0.0,0,0,7,7,69,,,,,67.62594770011492,68.2765125001315,68.2765125001315,68.76103819999844,315,45,68.76103819999844,68.76103819999844,68.76103819999844,68.76103819999844,68.76103819999844,68.76103819999844,68.76103819999844,68.76103819999844,68.76103819999844,69.12742060003802,69.12742060003802,69.12742060003802,69.12742060003802,69.12742060003802,69.12742060003802,69.12742060003802,69.12742060003802,69.12742060003802,20,1,[0.20086630014702678],[0.25099069997668266],69.12742060003802,69.32947080000304,1000,69.32947080000304,1000,1000,1000,1000,0,num_3,0.5553828997071832,,33,5,2026-03-12_17h32.53.183,2026A_exp2,2022.2.4,59.94459918433608,
1000,1,4.9,0.0,1,0,8,8,67,,,,,69.91154940007254,70.5623109000735,70.5623109000735,71.06323800003156,45,45,71.06323800003156,71.06323800003156,71.06323800003156,71.06323800003156,71.06323800003156,71.06323800003156,71.06323800003156,71.06323800003156,71.06323800003156,71.42980220005848,71.42980220005848,71.42980220005848,71.42980220005848,71.42980220005848,71.42980220005848,71.42980220005848,71.42980220005848,71.42980220005848,9,2,"[0.0012086001224815845, 0.05034920014441013]","[0.017270700074732304, 0.26708950009196997]",71.42980220005848,71.63187110004947,1000,71.63187110004947,1000,1000,1000,1000,0,num_3,0.4771016996819526,,33,5,2026-03-12_17h32.53.183,2026A_exp2,2022.2.4,59.94459918433608,
1000,1,0.0,0.0,1,0,9,9,73,,,,,72.13037819997407,72.78117410000414,72.78117410000414,73.28230880014598,45,315,73.28230880014598,73.28230880014598,73.28230880014598,73.28230880014598,73.28230880014598,73.28230880014598,73.28230880014598,73.28230880014598,73.28230880014598,73.64867949998006,73.64867949998006,73.64867949998006,73.64867949998006,73.64867949998006,73.64867949998006,73.64867949998006,73.64867949998006,73.64867949998006,0,1,[0.0012432998046278954],[0.36700710002332926],73.64867949998006,73.85099630011246,1000,73.85099630011246,1000,1000,1000,1000,0,num_3,0.7767012000549585,,33,5,2026-03-12_17h32.53.183,2026A_exp2,2022.2.4,59.94459918433608,
0,0,4.9,0.0,0,0,10,10,84,,,,,74.64962250017561,75.30033470015042,75.30033470015042,75.8013714000117,45,45,75.8013714000117,75.8013714000117,75.8013714000117,75.8013714000117,75.8013714000117,75.8013714000117,75.8013714000117,75.8013714000117,75.8013714000117,76.15103009995073,76.15103009995073,76.15103009995073,76.15103009995073,76.15103009995073,76.15103009995073,76.15103009995073,76.15103009995073,76.15103009995073,15,1,[0.2505049000028521],[0.3506237999536097],76.15103009995073,76.3512114000041,0.0,76.3512114000041,0,0.0,0,1,1000,num_1,0.5971186999231577,,33,5,2026-03-12_17h32.53.183,2026A_exp2,2022.2.4,59.94459918433608,
0,0,6.1,3.7,0,0,11,11,49,,,,,76.96845420007594,77.61931630014442,77.61931630014442,78.10368690011092,315,315,78.10368690011092,78.10368690011092,78.10368690011092,78.10368690011092,78.10368690011092,78.10368690011092,78.10368690011092,78.10368690011092,78.10368690011092,78.46984679996967,78.46984679996967,78.46984679996967,78.46984679996967,78.46984679996967,78.46984679996967,78.46984679996967,78.46984679996967,78.46984679996967,9,5,"[0.05021160002797842, 0.08364430000074208, 0.13342209998518229, 0.21646709996275604, 0.2498518000356853]","[0.06691890000365674, 0.10035940003581345, 0.18338950001634657, 0.2335458998568356, 0.3666294999420643]",78.46984679996967,78.67005730001256,3.7,78.67005730001256,0,3.7,1,0,1000,num_1,0.5342915998771787,,33,5,2026-03-12_17h32.53.183,2026A_exp2,2022.2.4,59.94459918433608,
1,0,0.0,4.9,0,0,12,12,32,,,,,79.22083829995245,79.87160870013759,79.87160870013759,80.3559892999474,315,45,80.3559892999474,80.3559892999474,80.3559892999474,80.3559892999474,80.3559892999474,80.3559892999474,80.3559892999474,80.3559892999474,80.3559892999474,80.7224074001424,80.7224074001424,80.7224074001424,80.7224074001424,80.7224074001424,80.7224074001424,80.7224074001424,80.7224074001424,80.7224074001424,0,1,[0.001199499936774373],[0.36713450006209314],80.7224074001424,80.92258960008621,0.0,80.92258960008621,0,0.0,0,1,1000,num_1,0.6259703999385238,,33,5,2026-03-12_17h32.53.183,2026A_exp2,2022.2.4,59.94459918433608,
1,0,6.1,0.0,1,0,13,13,17,,,,,81.57310110004619,82.22394020017236,82.22394020017236,82.70837260014378,45,315,82.70837260014378,82.70837260014378,82.70837260014378,82.70837260014378,82.70837260014378,82.70837260014378,82.70837260014378,82.70837260014378,82.70837260014378,83.07468860014342,83.07468860014342,83.07468860014342,83.07468860014342,83.07468860014342,83.07468860014342,83.07468860014342,83.07468860014342,83.07468860014342,23,0,,,83.07468860014342,83.27506850007921,0.0,83.27506850007921,0,0.0,0,1,1000,num_1,1.593342299805954,,33,5,2026-03-12_17h32.53.183,2026A_exp2,2022.2.4,59.94459918433608,
1000,1,4.9,0.0,0,0,14,14,50,,,,,84.89320669998415,85.54394230013713,85.54394230013713,86.02817080006935,45,315,86.02817080006935,86.02817080006935,86.02817080006935,86.02817080006935,86.02817080006935,86.02817080006935,86.02817080006935,86.02817080006935,86.02817080006935,86.39479200006463,86.39479200006463,86.39479200006463,86.39479200006463,86.39479200006463,86.39479200006463,86.39479200006463,86.39479200006463,86.39479200006463,0,1,[0.0012227999977767467],[0.36704879999160767],86.39479200006463,86.59679189999588,1000,86.59679189999588,1000,1000,1000,1000,0,num_3,0.9830727998632938,,33,5,2026-03-12_17h32.53.183,2026A_exp2,2022.2.4,59.94459918433608,
0,0,3.7,0.0,0,0,15,15,18,,,,,87.59593289997429,88.24659590004012,88.24659590004012,88.7476737999823,315,315,88.7476737999823,88.7476737999823,88.7476737999823,88.7476737999823,88.7476737999823,88.7476737999823,88.7476737999823,88.7476737999823,88.7476737999823,89.11403800011612,89.11403800011612,89.11403800011612,89.11403800011612,89.11403800011612,89.11403800011612,89.11403800011612,89.11403800011612,89.11403800011612,0,1,[0.00099839991889894],[0.367353199981153],89.11403800011612,89.31436450011097,0.0,89.31436450011097,0,0.0,0,1,1000,num_1,0.962291699834168,,33,5,2026-03-12_17h32.53.183,2026A_exp2,2022.2.4,59.94459918433608,
1,0,0.0,0.0,0,0,16,16,80,,,,,90.29853290016763,90.94913960015401,90.94913960015401,91.43370110006072,45,45,91.43370110006072,91.43370110006072,91.43370110006072,91.43370110006072,91.43370110006072,91.43370110006072,91.43370110006072,91.43370110006072,91.43370110006072,91.80011770012788,91.80011770012788,91.80011770012788,91.80011770012788,91.80011770012788,91.80011770012788,91.80011770012788,91.80011770012788,91.80011770012788,0,1,[0.0012244998943060637],[0.3671486999373883],91.80011770012788,92.00023779994808,0.0,92.00023779994808,0,0.0,0,1,1000,num_1,0.963559600058943,,33,5,2026-03-12_17h32.53.183,2026A_exp2,2022.2.4,59.94459918433608,
1,0,0.0,0.0,1,0,17,17,83,,,,,92.98448630003259,93.63543380005285,93.63543380005285,94.11978469998576,315,45,94.11978469998576,94.11978469998576,94.11978469998576,94.11978469998576,94.11978469998576,94.11978469998576,94.11978469998576,94.11978469998576,94.11978469998576,94.48622209997848,94.48622209997848,94.48622209997848,94.48622209997848,94.48622209997848,94.48622209997848,94.48622209997848,94.48622209997848,94.48622209997848,0,1,[0.0012896000407636166],[0.36724149994552135],94.48622209997848,94.68633430008776,0.0,94.68633430008776,0,0.0,0,1,1000,num_1,1.5573739998508245,,33,5,2026-03-12_17h32.53.183,2026A_exp2,2022.2.4,59.94459918433608,
1,0,0.0,4.9,0,0,18,18,14,,,,,96.27119180001318,96.92165979999118,96.92165979999118,97.40617640013807,45,315,97.40617640013807,97.40617640013807,97.40617640013807,97.40617640013807,97.40617640013807,97.40617640013807,97.40617640013807,97.40617640013807,97.40617640013807,97.77257200004533,97.77257200004533,97.77257200004533,97.77257200004533,97.77257200004533,97.77257200004533,97.77257200004533,97.77257200004533,97.77257200004533,0,1,[0.0012604999355971813],[0.36734210001304746],97.77257200004533,97.97299080016091,0.0,97.97299080016091,0,0.0,0,1,1000,num_1,0.6232577997725457,,33,5,2026-03-12_17h32.53.183,2026A_exp2,2022.2.4,59.94459918433608,
0,0,4.9,0.0,0,0,19,19,40,,,,,98.6233743999619,99.2741107000038,99.2741107000038,99.75855879997835,315,315,99.75855879997835,99.75855879997835,99.75855879997835,99.75855879997835,99.75855879997835,99.75855879997835,99.75855879997835,99.75855879997835,99.75855879997835,100.12519010016695,100.12519010016695,100.12519010016695,100.12519010016695,100.12519010016695,100.12519010016695,100.12519010016695,100.12519010016695,100.12519010016695,5,2,"[0.050114099867641926, 0.1670921000186354]","[0.13337149983271956, 0.36701849987730384]",100.12519010016695,100.32535249995999,0.0,100.32535249995999,0,0.0,0,1,1000,num_1,1.1346133998595178,,33,5,2026-03-12_17h32.53.183,2026A_exp2,2022.2.4,59.94459918433608,
1000,1,4.9,6.1,1,0,20,20,5,,,,,101.4764738001395,102.12711550015956,102.12711550015956,102.62818600004539,315,45,102.62818600004539,102.62818600004539,102.62818600004539,102.62818600004539,102.62818600004539,102.62818600004539,102.62818600004539,102.62818600004539,102.62818600004539,102.97794150002301,102.97794150002301,102.97794150002301,102.97794150002301,102.97794150002301,102.97794150002301,102.97794150002301,102.97794150002301,102.97794150002301,0,1,[0.001296499976888299],[0.3501418998930603],102.97794150002301,103.18015470006503,1000,103.18015470006503,1000,1000,1000,1000,1,num_2,0.6154847999569029,,33,5,2026-03-12_17h32.53.183,2026A_exp2,2022.2.4,59.94459918433608,
1000,1,0.0,6.1,1,0,21,21,42,,,,,103.81213199999183,104.46289830002934,104.46289830002934,104.96380430017598,45,315,104.96380430017598,104.96380430017598,104.96380430017598,104.96380430017598,104.96380430017598,104.96380430017598,104.96380430017598,104.96380430017598,104.96380430017598,105.3304022999946,105.3304022999946,105.3304022999946,105.3304022999946,105.3304022999946,105.3304022999946,105.3304022999946,105.3304022999946,105.3304022999946,2,2,"[0.001254499889910221, 0.3503713000100106]","[0.3168287000153214, 0.36725630005821586]",105.3304022999946,105.53217580006458,1000,105.53217580006458,1000,1000,1000,1000,1,num_2,0.4399084998294711,,33,5,2026-03-12_17h32.53.183,2026A_exp2,2022.2.4,59.94459918433608,
1000,1,0.0,0.0,0,0,22,22,65,,,,,105.99766860017553,106.64834730001166,106.64834730001166,107.1494525000453,45,45,107.1494525000453,107.1494525000453,107.1494525000453,107.1494525000453,107.1494525000453,107.1494525000453,107.1494525000453,107.1494525000453,107.1494525000453,107.4992188999895,107.4992188999895,107.4992188999895,107.4992188999895,107.4992188999895,107.4992188999895,107.4992188999895,107.4992188999895,107.4992188999895,0,1,[0.0012934999540448189],[0.350620900047943],107.4992188999895,107.70148540008813,1000,107.70148540008813,1000,1000,1000,1000,0,num_3,0.6468408000655472,,33,5,2026-03-12_17h32.53.183,2026A_exp2,2022.2.4,59.94459918433608,
0,0,0.0,3.7,1,0,23,23,53,,,,,108.36649000016041,109.00058380002156,109.00058380002156,109.50167850009166,315,315,109.50167850009166,109.50167850009166,109.50167850009166,109.50167850009166,109.50167850009166,109.50167850009166,109.50167850009166,109.50167850009166,109.50167850009166,109.86832060012966,109.86832060012966,109.86832060012966,109.86832060012966,109.86832060012966,109.86832060012966,109.86832060012966,109.86832060012966,109.86832060012966,0,1,[0.0012465000618249178],[0.36708780005574226],109.86832060012966,110.07740420009941,0.0,110.07740420009941,0,0.0,0,1,1000,num_1,1.150248099816963,,33,5,2026-03-12_17h32.53.183,2026A_exp2,2022.2.4,59.94459918433608,
1,0,6.1,6.1,1,0,24,24,47,,,,,111.25269640004262,111.90355010004714,111.90355010004714,112.38795230002142,45,315,112.38795230002142,112.38795230002142,112.38795230002142,112.38795230002142,112.38795230002142,112.38795230002142,112.38795230002142,112.38795230002142,112.38795230002142,112.75433270004578,112.75433270004578,112.75433270004578,112.75433270004578,112.75433270004578,112.75433270004578,112.75433270004578,112.75433270004578,112.75433270004578,0,1,[0.0010591000318527222],[0.3674121000804007],112.75433270004578,112.95458910008892,6.1,112.95458910008892,1,6.1,1,1,1000,num_4,1.0815731999464333,,33,5,2026-03-12_17h32.53.183,2026A_exp2,2022.2.4,59.94459918433608,
1000,1,4.9,0.0,1,0,25,25,12,,,,,114.0555382000748,114.70645550009795,114.70645550009795,115.20762790017761,45,45,115.20762790017761,115.20762790017761,115.20762790017761,115.20762790017761,115.20762790017761,115.20762790017761,115.20762790017761,115.20762790017761,115.20762790017761,115.55695959995501,115.55695959995501,115.55695959995501,115.55695959995501,115.55695959995501,115.55695959995501,115.55695959995501,115.55695959995501,115.55695959995501,0,1,[0.0012399000115692616],[0.3508379999548197],115.55695959995501,115.75914710015059,1000,115.75914710015059,1000,1000,1000,1000,0,num_3,0.44522529980167747,,33,5,2026-03-12_17h32.53.183,2026A_exp2,2022.2.4,59.94459918433608,
0,0,3.7,0.0,1,0,26,26,1,,,,,116.22452659998089,116.87513020006008,116.87513020006008,117.37633470003493,45,315,117.37633470003493,117.37633470003493,117.37633470003493,117.37633470003493,117.37633470003493,117.37633470003493,117.37633470003493,117.37633470003493,117.37633470003493,117.74266580003314,117.74266580003314,117.74266580003314,117.74266580003314,117.74266580003314,117.74266580003314,117.74266580003314,117.74266580003314,117.74266580003314,0,1,[0.0012229999992996454],[0.36713510006666183],117.74266580003314,117.94287999998778,3.7,117.94287999998778,1,3.7,1,1,1000,num_4,0.8055073998402804,,33,5,2026-03-12_17h32.53.183,2026A_exp2,2022.2.4,59.94459918433608,
1000,1,0.0,6.1,1,0,27,27,74,,,,,118.7769971000962,119.4277582000941,119.4277582000941,119.91217950009741,45,45,119.91217950009741,119.91217950009741,119.91217950009741,119.91217950009741,119.91217950009741,119.91217950009741,119.91217950009741,119.91217950009741,119.91217950009741,120.2784855000209,120.2784855000209,120.2784855000209,120.2784855000209,120.2784855000209,120.2784855000209,120.2784855000209,120.2784855000209,120.2784855000209,0,1,[0.0012083000037819147],[0.36726019997149706],120.2784855000209,120.48063959996216,1000,120.48063959996216,1000,1000,1000,1000,1,num_2,0.5239815998356789,,33,5,2026-03-12_17h32.53.183,2026A_exp2,2022.2.4,59.94459918433608,
1000,1,6.1,4.9,0,0,28,28,51,,,,,121.02929910016246,121.68006040016189,121.68006040016189,122.18103880016133,315,315,122.18103880016133,122.18103880016133,122.18103880016133,122.18103880016133,122.18103880016133,122.18103880016133,122.18103880016133,122.18103880016133,122.18103880016133,122.54750330001116,122.54750330001116,122.54750330001116,122.54750330001116,122.54750330001116,122.54750330001116,122.54750330001116,122.54750330001116,122.54750330001116,0,1,[0.0012076999992132187],[0.36726970016025007],122.54750330001116,122.75308850011788,1000,122.75308850011788,1000,1000,1000,1000,0,num_3,0.41052649985067546,,33,5,2026-03-12_17h32.53.183,2026A_exp2,2022.2.4,59.94459918433608,
1000,1,4.9,6.1,0,0,29,29,36,,,,,123.18173920013942,123.83227500016801,123.83227500016801,124.33327950001694,315,45,124.33327950001694,124.33327950001694,124.33327950001694,124.33327950001694,124.33327950001694,124.33327950001694,124.33327950001694,124.33327950001694,124.33327950001694,124.69964760006405,124.69964760006405,124.69964760006405,124.69964760006405,124.69964760006405,124.69964760006405,124.69964760006405,124.69964760006405,124.69964760006405,0,1,[0.00120749999769032],[0.3670669000130147],124.69964760006405,124.90440520015545,1000,124.90440520015545,1000,1000,1000,1000,1,num_2,0.45936059998348355,,33,5,2026-03-12_17h32.53.183,2026A_exp2,2022.2.4,59.94459918433608,
1000,1,0.0,6.1,1,0,30,30,13,,,,,125.38390390016139,126.03439120016992,126.03439120016992,126.51874019997194,315,315,126.51874019997194,126.51874019997194,126.51874019997194,126.51874019997194,126.51874019997194,126.51874019997194,126.51874019997194,126.51874019997194,126.51874019997194,126.88515880005434,126.88515880005434,126.88515880005434,126.88515880005434,126.88515880005434,126.88515880005434,126.88515880005434,126.88515880005434,126.88515880005434,0,1,[0.0012040999718010426],[0.3671528999693692],126.88515880005434,127.0852995000314,1000,127.0852995000314,1000,1000,1000,1000,1,num_2,0.31921530002728105,,33,5,2026-03-12_17h32.53.183,2026A_exp2,2022.2.4,59.94459918433608,
0,0,3.7,4.9,0,0,31,31,77,,,,,127.43615259998478,128.086462700041,128.086462700041,128.57091130013578,315,45,128.57091130013578,128.57091130013578,128.57091130013578,128.57091130013578,128.57091130013578,128.57091130013578,128.57091130013578,128.57091130013578,128.57091130013578,128.93732880009338,128.93732880009338,128.93732880009338,128.93732880009338,128.93732880009338,128.93732880009338,128.93732880009338,128.93732880009338,128.93732880009338,0,1,[0.0011953001376241446],[0.3669177000410855],128.93732880009338,129.1374542999547,4.9,129.1374542999547,1,4.9,1,1,1000,num_4,0.8344608000479639,,33,5,2026-03-12_17h32.53.183,2026A_exp2,2022.2.4,59.94459918433608,
1000,1,6.1,6.1,1,0,32,32,22,,,,,129.9881571000442,130.6389482000377,130.6389482000377,131.12327560014091,315,45,131.12327560014091,131.12327560014091,131.12327560014091,131.12327560014091,131.12327560014091,131.12327560014091,131.12327560014091,131.12327560014091,131.12327560014091,131.4897273001261,131.4897273001261,131.4897273001261,131.4897273001261,131.4897273001261,131.4897273001261,131.4897273001261,131.4897273001261,131.4897273001261,0,1,[0.0011928000021725893],[0.36680010007694364],131.4897273001261,131.69214579998516,1000,131.69214579998516,1000,1000,1000,1000,1,num_2,0.5354599999263883,,33,5,2026-03-12_17h32.53.183,2026A_exp2,2022.2.4,59.94459918433608,
1000,1,4.9,3.7,1,0,33,33,78,,,,,132.25713980011642,132.9079835000448,132.9079835000448,133.40906940004788,315,315,133.40906940004788,133.40906940004788,133.40906940004788,133.40906940004788,133.40906940004788,133.40906940004788,133.40906940004788,133.40906940004788,133.40906940004788,133.77547770016827,133.77547770016827,133.77547770016827,133.77547770016827,133.77547770016827,133.77547770016827,133.77547770016827,133.77547770016827,133.77547770016827,0,1,[0.0012014000676572323],[0.3675011999439448],133.77547770016827,133.9776060001459,1000,133.9776060001459,1000,1000,1000,1000,0,num_3,0.4425868997350335,,33,5,2026-03-12_17h32.53.183,2026A_exp2,2022.2.4,59.94459918433608,
0,0,6.1,0.0,1,0,34,34,52,,,,,134.44274369999766,135.09333010017872,135.09333010017872,135.59458449995145,45,315,135.59458449995145,135.59458449995145,135.59458449995145,135.59458449995145,135.59458449995145,135.59458449995145,135.59458449995145,135.59458449995145,135.59458449995145,135.960998600116,135.960998600116,135.960998600116,135.960998600116,135.960998600116,135.960998600116,135.960998600116,135.960998600116,135.960998600116,13,3,"[0.13380290009081364, 0.2168629001826048, 0.350687799975276]","[0.1499976001214236, 0.3340394999831915, 0.3675292001571506]",135.960998600116,136.16118280007504,6.1,136.16118280007504,1,6.1,1,1,1000,num_4,0.5865211999043822,,33,5,2026-03-12_17h32.53.183,2026A_exp2,2022.2.4,59.94459918433608,
1000,1,0.0,0.0,1,0,35,35,55,,,,,136.77834590012208,137.42903780005872,137.42903780005872,137.91367120016366,315,45,137.91367120016366,137.91367120016366,137.91367120016366,137.91367120016366,137.91367120016366,137.91367120016366,137.91367120016366,137.91367120016366,137.91367120016366,138.27971510007046,138.27971510007046,138.27971510007046,138.27971510007046,138.27971510007046,138.27971510007046,138.27971510007046,138.27971510007046,138.27971510007046,0,1,[0.0007444999646395445],[0.36701319995336235],138.27971510007046,138.4799214999657,1000,138.4799214999657,1000,1000,1000,1000,1,num_2,0.5242240000516176,,33,5,2026-03-12_17h32.53.183,2026A_exp2,2022.2.4,59.94459918433608,
1000,1,0.0,4.9,0,0,36,36,8,,,,,139.03081899997778,139.68138640001416,139.68138640001416,140.1656084000133,45,45,140.1656084000133,140.1656084000133,140.1656084000133,140.1656084000133,140.1656084000133,140.1656084000133,140.1656084000133,140.1656084000133,140.1656084000133,140.53214800008573,140.53214800008573,140.53214800008573,140.53214800008573,140.53214800008573,140.53214800008573,140.53214800008573,140.53214800008573,140.53214800008573,0,1,[0.001114899991080165],[0.3668408999219537],140.53214800008573,140.73436430003494,1000,140.73436430003494,1000,1000,1000,1000,1,num_2,0.49312769970856607,,33,5,2026-03-12_17h32.53.183,2026A_exp2,2022.2.4,59.94459918433608,
1000,1,6.1,3.7,1,0,37,37,11,,,,,141.24960400001146,141.90011180005968,141.90011180005968,142.40137220011093,45,45,142.40137220011093,142.40137220011093,142.40137220011093,142.40137220011093,142.40137220011093,142.40137220011093,142.40137220011093,142.40137220011093,142.40137220011093,142.7511335001327,142.7511335001327,142.7511335001327,142.7511335001327,142.7511335001327,142.7511335001327,142.7511335001327,142.7511335001327,142.7511335001327,2,3,"[0.0011982000432908535, 0.03360549989156425, 0.150271600112319]","[0.01745319995097816, 0.1337749999947846, 0.35046250000596046]",142.7511335001327,142.95329620013945,1000,142.95329620013945,1000,1000,1000,1000,0,num_3,0.38648419990204275,,33,5,2026-03-12_17h32.53.183,2026A_exp2,2022.2.4,59.94459918433608,
1000,1,0.0,6.1,0,0,38,38,20,,,,,143.36852290015668,144.01900280010886,144.01900280010886,144.50348710012622,45,45,144.50348710012622,144.50348710012622,144.50348710012622,144.50348710012622,144.50348710012622,144.50348710012622,144.50348710012622,144.50348710012622,144.50348710012622,144.86987920012325,144.86987920012325,144.86987920012325,144.86987920012325,144.86987920012325,144.86987920012325,144.86987920012325,144.86987920012325,144.86987920012325,13,3,"[0.0012397000100463629, 0.10034310002811253, 0.3337338001001626]","[0.03359130001626909, 0.20027030003257096, 0.3671209001913667]",144.86987920012325,145.0720822000876,1000,145.0720822000876,1000,1000,1000,1000,1,num_2,0.7318146000616252,,33,5,2026-03-12_17h32.53.183,2026A_exp2,2022.2.4,59.94459918433608,
1000,1,3.7,6.1,1,0,39,39,75,,,,,145.82106640003622,146.4715126999654,146.4715126999654,146.95595180010423,45,315,146.95595180010423,146.95595180010423,146.95595180010423,146.95595180010423,146.95595180010423,146.95595180010423,146.95595180010423,146.95595180010423,146.95595180010423,147.3224126000423,147.3224126000423,147.3224126000423,147.3224126000423,147.3224126000423,147.3224126000423,147.3224126000423,147.3224126000423,147.3224126000423,0,1,[0.0012207000982016325],[0.36679570004343987],147.3224126000423,147.52253110008314,1000,147.52253110008314,1000,1000,1000,1000,1,num_2,0.3542335999663919,,33,5,2026-03-12_17h32.53.183,2026A_exp2,2022.2.4,59.94459918433608,
1000,1,6.1,0.0,1,0,40,40,79,,,,,147.9066632001195,148.55686460016295,148.55686460016295,149.0579578001052,45,315,149.0579578001052,149.0579578001052,149.0579578001052,149.0579578001052,149.0579578001052,149.0579578001052,149.0579578001052,149.0579578001052,149.0579578001052,149.4244365999475,149.4244365999475,149.4244365999475,149.4244365999475,149.4244365999475,149.4244365999475,149.4244365999475,149.4244365999475,149.4244365999475,9,1,[0.15025179996155202],[0.36718329996801913],149.4244365999475,149.62469920003787,1000,149.62469920003787,1000,1000,1000,1000,0,num_3,0.3798942998982966,,33,5,2026-03-12_17h32.53.183,2026A_exp2,2022.2.4,59.94459918433608,
0,0,6.1,0.0,1,0,41,41,25,,,,,150.02494170004502,150.67574830004014,150.67574830004014,151.1767917999532,315,315,151.1767917999532,151.1767917999532,151.1767917999532,151.1767917999532,151.1767917999532,151.1767917999532,151.1767917999532,151.1767917999532,151.1767917999532,151.54315949999727,151.54315949999727,151.54315949999727,151.54315949999727,151.54315949999727,151.54315949999727,151.54315949999727,151.54315949999727,151.54315949999727,0,1,[0.0012154998257756233],[0.3669419998768717],151.54315949999727,151.74889930011705,6.1,151.74889930011705,1,6.1,1,1,1000,num_4,1.4874425998423249,,33,5,2026-03-12_17h32.53.183,2026A_exp2,2022.2.4,59.94459918433608,
0,0,0.0,0.0,0,0,42,42,15,,,,,153.2614488999825,153.91218240000308,153.91218240000308,154.39674170012586,315,45,154.39674170012586,154.39674170012586,154.39674170012586,154.39674170012586,154.39674170012586,154.39674170012586,154.39674170012586,154.39674170012586,154.39674170012586,154.76300609996542,154.76300609996542,154.76300609996542,154.76300609996542,154.76300609996542,154.76300609996542,154.76300609996542,154.76300609996542,154.76300609996542,0,1,[0.001238600118085742],[0.3671641000546515],154.76300609996542,154.9633274001535,0.0,154.9633274001535,0,0.0,0,1,1000,num_1,1.280460599809885,,33,5,2026-03-12_17h32.53.183,2026A_exp2,2022.2.4,59.94459918433608,
1000,1,0.0,3.7,0,0,43,43,23,,,,,156.26453160005622,156.91527740005404,156.91527740005404,157.39969710004516,315,315,157.39969710004516,157.39969710004516,157.39969710004516,157.39969710004516,157.39969710004516,157.39969710004516,157.39969710004516,157.39969710004516,157.39969710004516,157.76615780009888,157.76615780009888,157.76615780009888,157.76615780009888,157.76615780009888,157.76615780009888,157.76615780009888,157.76615780009888,157.76615780009888,4,3,"[0.000798800028860569, 0.20069579989649355, 0.3506418999750167]","[0.16721139987930655, 0.31738929986022413, 0.3674377999268472]",157.76615780009888,157.9839854000602,1000,157.9839854000602,1000,1000,1000,1000,1,num_2,0.45207619993016124,,33,5,2026-03-12_17h32.53.183,2026A_exp2,2022.2.4,59.94459918433608,
1000,1,3.7,4.9,1,0,44,44,71,,,,,158.46653860015795,159.1174667000305,159.1174667000305,159.6186373999808,315,315,159.6186373999808,159.6186373999808,159.6186373999808,159.6186373999808,159.6186373999808,159.6186373999808,159.6186373999808,159.6186373999808,159.6186373999808,159.96840799995698,159.96840799995698,159.96840799995698,159.96840799995698,159.96840799995698,159.96840799995698,159.96840799995698,159.96840799995698,159.96840799995698,0,1,[0.0012234998866915703],[0.3502404000610113],159.96840799995698,160.17025550012477,1000,160.185290500056,1000,1000,1000,1000,1,num_2,0.37961569987237453,,33,5,2026-03-12_17h32.53.183,2026A_exp2,2022.2.4,59.94459918433608,
1000,1,6.1,0.0,0,0,45,45,27,,,,,160.58550289995037,161.236236799974,161.236236799974,161.7375261001289,45,45,161.7375261001289,161.7375261001289,161.7375261001289,161.7375261001289,161.7375261001289,161.7375261001289,161.7375261001289,161.7375261001289,161.7375261001289,162.10382400010712,162.10382400010712,162.10382400010712,162.10382400010712,162.10382400010712,162.10382400010712,162.10382400010712,162.10382400010712,162.10382400010712,0,1,[0.001243300037458539],[0.36715160007588565],162.10382400010712,162.30568690015934,1000,162.30568690015934,1000,1000,1000,1000,0,num_3,0.42728399974294007,,33,5,2026-03-12_17h32.53.183,2026A_exp2,2022.2.4,59.94459918433608,
1,0,0.0,6.1,0,0,46,46,24,,,,,162.75416869996116,163.4049432000611,163.4049432000611,163.90624030004255,45,315,163.90624030004255,163.90624030004255,163.90624030004255,163.90624030004255,163.90624030004255,163.90624030004255,163.90624030004255,163.90624030004255,163.90624030004255,164.2726174001582,164.2726174001582,164.2726174001582,164.2726174001582,164.2726174001582,164.2726174001582,164.2726174001582,164.2726174001582,164.2726174001582,23,0,,,164.2726174001582,164.4727590000257,0.0,164.4727590000257,0,0.0,0,1,1000,num_1,0.6915515998844057,,33,5,2026-03-12_17h32.53.183,2026A_exp2,2022.2.4,59.94459918433608,
1,0,0.0,6.1,1,0,47,47,19,,,,,165.1900257000234,165.84081099997275,165.84081099997275,166.32517700013705,315,45,166.32517700013705,166.32517700013705,166.32517700013705,166.32517700013705,166.32517700013705,166.32517700013705,166.32517700013705,166.32517700013705,166.32517700013705,166.69168599997647,166.69168599997647,166.69168599997647,166.69168599997647,166.69168599997647,166.69168599997647,166.69168599997647,166.69168599997647,166.69168599997647,2,2,"[0.0011974999215453863, 0.10021069995127618]","[0.06680810009129345, 0.3670988001395017]",166.69168599997647,166.8920069001615,6.1,166.8920069001615,1,6.1,1,1,1000,num_4,0.655678299954161,,33,5,2026-03-12_17h32.53.183,2026A_exp2,2022.2.4,59.94459918433608,
1000,1,6.1,0.0,0,0,48,48,58,,,,,167.57575670001097,,168.22639700002037,168.72732000006363,45,315,168.72732000006363,168.72732000006363,168.72732000006363,168.72732000006363,168.72732000006363,168.72732000006363,168.72732000006363,168.72732000006363,168.72732000006363,169.07735180016607,169.07735180016607,169.07735180016607,169.07735180016607,169.07735180016607,169.07735180016607,169.07735180016607,169.07735180016607,169.07735180016607,22,0,,,169.07735180016607,169.27920119999908,1000,169.27920119999908,1000,1000,1000,1000,0,num_3,0.5805594997946173,,33,5,2026-03-12_17h32.53.183,2026A_exp2,2022.2.4,59.94459918433608,
1000,1,0.0,3.7,1,0,49,49,4,,,,,169.87809010013007,170.53675640001893,170.53675640001893,171.02978610014543,315,45,171.02978610014543,171.02978610014543,171.02978610014543,171.02978610014543,171.02978610014543,171.02978610014543,171.02978610014543,171.02978610014543,171.02978610014543,171.39643770013936,171.39643770013936,171.39643770013936,171.39643770013936,171.39643770013936,171.39643770013936,171.39643770013936,171.39643770013936,171.39643770013936,0,1,[0.001250299857929349],[0.36716239992529154],171.39643770013936,171.59694429999217,1000,171.59694429999217,1000,1000,1000,1000,1,num_2,0.41529139992780983,,33,5,2026-03-12_17h32.53.183,2026A_exp2,2022.2.4,59.94459918433608,
1,0,0.0,0.0,0,0,50,50,87,,,,,172.0303691001609,172.68105929996818,172.68105929996818,173.16551960003562,315,45,173.16551960003562,173.16551960003562,173.16551960003562,173.16551960003562,173.16551960003562,173.16551960003562,173.16551960003562,173.16551960003562,173.16551960003562,173.53183220000938,173.53183220000938,173.53183220000938,173.53183220000938,173.53183220000938,173.53183220000938,173.53183220000938,173.53183220000938,173.53183220000938,0,1,[0.0012022999580949545],[0.36726889992132783],173.53183220000938,173.7319404000882,0.0,173.7319404000882,0,0.0,0,1,1000,num_1,1.0320191998034716,,33,5,2026-03-12_17h32.53.183,2026A_exp2,2022.2.4,59.94459918433608,
1000,1,0.0,3.7,0,0,51,51,76,,,,,174.7828904001508,175.4337410000153,175.4337410000153,175.91823170008138,45,315,175.91823170008138,175.91823170008138,175.91823170008138,175.91823170008138,175.91823170008138,175.91823170008138,175.91823170008138,175.91823170008138,175.91823170008138,176.2842115999665,176.2842115999665,176.2842115999665,176.2842115999665,176.2842115999665,176.2842115999665,176.2842115999665,176.2842115999665,176.2842115999665,2,3,"[0.0007403998170047998, 0.25107120000757277, 0.35110629978589714]","[0.2341973998118192, 0.3343712999485433, 0.3676475000102073]",176.2842115999665,176.48618800006807,1000,176.48618800006807,1000,1000,1000,1000,1,num_2,0.5255038999021053,,33,5,2026-03-12_17h32.53.183,2026A_exp2,2022.2.4,59.94459918433608,
1000,1,0.0,6.1,0,0,52,52,16,,,,,177.0353071000427,177.68666890007444,177.68666890007444,178.1907882001251,315,315,178.1907882001251,178.1907882001251,178.1907882001251,178.1907882001251,178.1907882001251,178.1907882001251,178.1907882001251,178.1907882001251,178.1907882001251,178.55328970006667,178.55328970006667,178.55328970006667,178.55328970006667,178.55328970006667,178.55328970006667,178.55328970006667,178.55328970006667,178.55328970006667,0,1,[0.0024228000547736883],[0.3659820999018848],178.55328970006667,178.77861120016314,1000,178.77861120016314,1000,1000,1000,1000,1,num_2,0.5061131999827921,,33,5,2026-03-12_17h32.53.183,2026A_exp2,2022.2.4,59.94459918433608,
1,0,4.9,6.1,0,0,53,53,82,,,,,179.30424430011772,179.95502090011723,179.95502090011723,180.45611939998344,315,315,180.45611939998344,180.45611939998344,180.45611939998344,180.45611939998344,180.45611939998344,180.45611939998344,180.45611939998344,180.45611939998344,180.45611939998344,180.82253020000644,180.82253020000644,180.82253020000644,180.82253020000644,180.82253020000644,180.82253020000644,180.82253020000644,180.82253020000644,180.82253020000644,0,1,[0.0012309001758694649],[0.36729650013148785],180.82253020000644,181.02266390016302,4.9,181.02266390016302,0,4.9,1,0,1000,num_1,1.101170599926263,,33,5,2026-03-12_17h32.53.183,2026A_exp2,2022.2.4,59.94459918433608,
1000,1,0.0,3.7,0,0,54,54,21,,,,,182.14045129995793,182.79098820011131,182.79098820011131,183.27543270005845,45,45,183.27543270005845,183.27543270005845,183.27543270005845,183.27543270005845,183.27543270005845,183.27543270005845,183.27543270005845,183.27543270005845,183.27543270005845,183.64198660012335,183.64198660012335,183.64198660012335,183.64198660012335,183.64198660012335,183.64198660012335,183.64198660012335,183.64198660012335,183.64198660012335,0,1,[0.0012048999778926373],[0.3671574001200497],183.64198660012335,183.84409480006434,1000,183.84409480006434,1000,1000,1000,1000,1,num_2,0.4882900998927653,,33,5,2026-03-12_17h32.53.183,2026A_exp2,2022.2.4,59.94459918433608,
1000,1,0.0,6.1,0,0,55,55,61,,,,,184.3593550999649,185.00998080009595,185.00998080009595,185.51103679998778,45,45,185.51103679998778,185.51103679998778,185.51103679998778,185.51103679998778,185.51103679998778,185.51103679998778,185.51103679998778,185.51103679998778,185.51103679998778,185.87753080017865,185.87753080017865,185.87753080017865,185.87753080017865,185.87753080017865,185.87753080017865,185.87753080017865,185.87753080017865,185.87753080017865,0,1,[0.0012350000906735659],[0.3671482000499964],185.87753080017865,186.07916439999826,1000,186.07916439999826,1000,1000,1000,1000,1,num_2,0.5247004998382181,,33,5,2026-03-12_17h32.53.183,2026A_exp2,2022.2.4,59.94459918433608,
1000,1,0.0,0.0,1,0,56,56,3,,,,,186.62822409998626,187.2789753000252,187.2789753000252,187.7800551999826,45,45,187.7800551999826,187.7800551999826,187.7800551999826,187.7800551999826,187.7800551999826,187.7800551999826,187.7800551999826,187.7800551999826,187.7800551999826,188.12977640004829,188.12977640004829,188.12977640004829,188.12977640004829,188.12977640004829,188.12977640004829,188.12977640004829,188.12977640004829,188.12977640004829,16,2,"[0.0012262000236660242, 0.1502283001318574]","[0.08369730017147958, 0.16705449996516109]",188.12977640004829,188.32993620005436,1000,188.34683539997786,1000,1000,1000,1000,0,num_3,0.985510699916631,,33,5,2026-03-12_17h32.53.183,2026A_exp2,2022.2.4,59.94459918433608,
1,0,3.7,0.0,0,0,57,57,10,,,,,189.34763380000368,189.9982201999519,189.9982201999519,190.49950419995002,45,45,190.49950419995002,190.49950419995002,190.49950419995002,190.49950419995002,190.49950419995002,190.49950419995002,190.49950419995002,190.49950419995002,190.49950419995002,190.86593229998834,190.86593229998834,190.86593229998834,190.86593229998834,190.86593229998834,190.86593229998834,190.86593229998834,190.86593229998834,190.86593229998834,0,1,[0.0011979001574218273],[0.3671787001658231],190.86593229998834,191.06591450003907,3.7,191.06591450003907,1,3.7,1,1,1000,num_4,0.8268354998435825,,33,5,2026-03-12_17h32.53.183,2026A_exp2,2022.2.4,59.94459918433608,
1,0,4.9,4.9,1,0,58,58,9,,,,,191.9167134000454,192.5672496999614,192.5672496999614,193.06876490009017,45,45,193.06876490009017,193.06876490009017,193.06876490009017,193.06876490009017,193.06876490009017,193.06876490009017,193.06876490009017,193.06876490009017,193.06876490009017,193.41841339995153,193.41841339995153,193.41841339995153,193.41841339995153,193.41841339995153,193.41841339995153,193.41841339995153,193.41841339995153,193.41841339995153,0,1,[0.0012557001318782568],[0.3506610000040382],193.41841339995153,193.61866120016202,4.9,193.6351731000468,1,4.9,1,1,1000,num_4,1.3134011998772621,,33,5,2026-03-12_17h32.53.183,2026A_exp2,2022.2.4,59.94459918433608,
1,0,4.9,0.0,0,0,59,59,66,,,,,194.969864099985,195.62066280003637,195.62066280003637,196.1049731001258,45,315,196.1049731001258,196.1049731001258,196.1049731001258,196.1049731001258,196.1049731001258,196.1049731001258,196.1049731001258,196.1049731001258,196.1049731001258,196.47137130005285,196.47137130005285,196.47137130005285,196.47137130005285,196.47137130005285,196.47137130005285,196.47137130005285,196.47137130005285,196.47137130005285,0,1,[0.001208100002259016],[0.3673058000858873],196.47137130005285,196.67177100013942,4.9,196.67177100013942,1,4.9,1,1,1000,num_4,0.7644587999675423,,33,5,2026-03-12_17h32.53.183,2026A_exp2,2022.2.4,59.94459918433608,
1000,1,0.0,0.0,0,0,60,60,89,,,,,197.45563110010698,198.10648129996844,198.10648129996844,198.59074970008805,315,315,198.59074970008805,198.59074970008805,198.59074970008805,198.59074970008805,198.59074970008805,198.59074970008805,198.59074970008805,198.59074970008805,198.59074970008805,198.95708580012433,198.95708580012433,198.95708580012433,198.95708580012433,198.95708580012433,198.95708580012433,198.95708580012433,198.95708580012433,198.95708580012433,3,3,"[0.000714900204911828, 0.0502772000618279, 0.1001848999876529]","[0.0334173000883311, 0.06734449998475611, 0.36702640005387366]",198.95708580012433,199.15918880002573,1000,199.15918880002573,1000,1000,1000,1000,0,num_3,0.7170972998719662,,33,5,2026-03-12_17h32.53.183,2026A_exp2,2022.2.4,59.94459918433608,
1000,1,0.0,0.0,0,0,61,61,72,,,,,199.89182020002045,200.5423604999669,200.5423604999669,201.04325540014543,315,315,201.04325540014543,201.04325540014543,201.04325540014543,201.04325540014543,201.04325540014543,201.04325540014543,201.04325540014543,201.04325540014543,201.04325540014543,201.40970379998907,201.40970379998907,201.40970379998907,201.40970379998907,201.40970379998907,201.40970379998907,201.40970379998907,201.40970379998907,201.40970379998907,0,1,[0.001242100028321147],[0.3669142001308501],201.40970379998907,201.61166350007989,1000,201.61166350007989,1000,1000,1000,1000,0,num_3,0.6640067000407726,,33,5,2026-03-12_17h32.53.183,2026A_exp2,2022.2.4,59.94459918433608,
1000,1,0.0,0.0,1,0,62,62,56,,,,,202.29384550009854,202.94459750014357,202.94459750014357,203.44623879995197,315,45,203.44623879995197,203.44623879995197,203.44623879995197,203.44623879995197,203.44623879995197,203.44623879995197,203.44623879995197,203.44623879995197,203.44623879995197,203.81204530014656,203.81204530014656,203.81204530014656,203.81204530014656,203.81204530014656,203.81204530014656,203.81204530014656,203.81204530014656,203.81204530014656,4,1,[0.06704699993133545],[0.36767060006968677],203.81204530014656,204.0142135999631,1000,204.0142135999631,1000,1000,1000,1000,0,num_3,0.6617338000796735,,33,5,2026-03-12_17h32.53.183,2026A_exp2,2022.2.4,59.94459918433608,
1000,1,0.0,3.7,0,0,63,63,63,,,,,204.69630350009538,205.34689050004818,205.34689050004818,205.8313287999481,315,315,205.8313287999481,205.8313287999481,205.8313287999481,205.8313287999481,205.8313287999481,205.8313287999481,205.8313287999481,205.8313287999481,205.8313287999481,206.1978204001207,206.1978204001207,206.1978204001207,206.1978204001207,206.1978204001207,206.1978204001207,206.1978204001207,206.1978204001207,206.1978204001207,0,1,[0.0012507999781519175],[0.3672702999319881],206.1978204001207,206.40054469997995,1000,206.40054469997995,1000,1000,1000,1000,1,num_2,0.5228955000638962,,33,5,2026-03-12_17h32.53.183,2026A_exp2,2022.2.4,59.94459918433608,
1000,1,3.7,6.1,0,0,64,64,60,,,,,206.94856870011427,207.5991150001064,207.5991150001064,208.1004813001491,45,315,208.1004813001491,208.1004813001491,208.1004813001491,208.1004813001491,208.1004813001491,208.1004813001491,208.1004813001491,208.1004813001491,208.1004813001491,208.46682580001652,208.46682580001652,208.46682580001652,208.46682580001652,208.46682580001652,208.46682580001652,208.46682580001652,208.46682580001652,208.46682580001652,0,1,[0.0012072999961674213],[0.3672935999929905],208.46682580001652,208.66895020008087,1000,208.66895020008087,1000,1000,1000,1000,1,num_2,0.5351056999061257,,33,5,2026-03-12_17h32.53.183,2026A_exp2,2022.2.4,59.94459918433608,
1,0,0.0,0.0,1,0,65,65,33,,,,,209.23412979999557,209.8848725000862,209.8848725000862,210.38590260013007,315,315,210.38590260013007,210.38590260013007,210.38590260013007,210.38590260013007,210.38590260013007,210.38590260013007,210.38590260013007,210.38590260013007,210.38590260013007,210.75246990006417,210.75246990006417,210.75246990006417,210.75246990006417,210.75246990006417,210.75246990006417,210.75246990006417,210.75246990006417,210.75246990006417,0,1,[0.0012757000513374805],[0.3671214999631047],210.75246990006417,210.9527157000266,0.0,210.9527157000266,1,0.0,0,0,1000,num_4,1.4762380998581648,,33,5,2026-03-12_17h32.53.183,2026A_exp2,2022.2.4,59.94459918433608,
1000,1,3.7,3.7,0,0,66,66,59,,,,,212.45390160009265,213.10478950012475,213.10478950012475,213.58911820012145,315,45,213.58911820012145,213.58911820012145,213.58911820012145,213.58911820012145,213.58911820012145,213.58911820012145,213.58911820012145,213.58911820012145,213.58911820012145,213.95565959997475,213.95565959997475,213.95565959997475,213.95565959997475,213.95565959997475,213.95565959997475,213.95565959997475,213.95565959997475,213.95565959997475,0,1,[0.0012694001197814941],[0.3672812001314014],213.95565959997475,214.15777299995534,1000,214.15777299995534,1000,1000,1000,1000,0,num_3,0.6462384997867048,,33,5,2026-03-12_17h32.53.183,2026A_exp2,2022.2.4,59.94459918433608,
1,0,0.0,4.9,0,0,67,67,70,,,,,214.82301870011725,215.4740772000514,215.4740772000514,215.97488790005445,315,315,215.97488790005445,215.97488790005445,215.97488790005445,215.97488790005445,215.97488790005445,215.97488790005445,215.97488790005445,215.97488790005445,215.97488790005445,216.34134150017053,216.34134150017053,216.34134150017053,216.34134150017053,216.34134150017053,216.34134150017053,216.34134150017053,216.34134150017053,216.34134150017053,0,1,[0.001214900054037571],[0.3672537000384182],216.34134150017053,216.5416190000251,0.0,216.5416190000251,0,0.0,0,1,1000,num_1,0.9340889998711646,,33,5,2026-03-12_17h32.53.183,2026A_exp2,2022.2.4,59.94459918433608,
1000,1,0.0,0.0,0,0,68,68,57,,,,,217.4924147001002,218.1490335999988,218.1490335999988,218.62749620014802,315,315,218.62749620014802,218.62749620014802,218.62749620014802,218.62749620014802,218.62749620014802,218.62749620014802,218.62749620014802,218.62749620014802,218.62749620014802,218.99384759995155,218.99384759995155,218.99384759995155,218.99384759995155,218.99384759995155,218.99384759995155,218.99384759995155,218.99384759995155,218.99384759995155,0,1,[0.001222599996253848],[0.3671116998884827],218.99384759995155,219.19637780007906,1000,219.19637780007906,1000,1000,1000,1000,1,num_2,0.8726156998891383,,33,5,2026-03-12_17h32.53.183,2026A_exp2,2022.2.4,59.94459918433608,
1000,1,6.1,4.9,0,0,69,69,81,,,,,220.09508959995583,220.7457693000324,220.7457693000324,221.2463279000949,315,315,221.2463279000949,221.2463279000949,221.2463279000949,221.2463279000949,221.2463279000949,221.2463279000949,221.2463279000949,221.2463279000949,221.2463279000949,221.5966408001259,221.5966408001259,221.5966408001259,221.5966408001259,221.5966408001259,221.5966408001259,221.5966408001259,221.5966408001259,221.5966408001259,0,1,[0.00418669986538589],[0.3640590999275446],221.5966408001259,221.8004100001417,1000,221.8004100001417,1000,1000,1000,1000,0,num_3,0.6756992000155151,,33,5,2026-03-12_17h32.53.183,2026A_exp2,2022.2.4,59.94459918433608,
1,0,0.0,0.0,1,0,70,70,31,,,,,222.49734580004588,223.14800170017406,223.14800170017406,223.64928390015848,315,45,223.64928390015848,223.64928390015848,223.64928390015848,223.64928390015848,223.64928390015848,223.64928390015848,223.64928390015848,223.64928390015848,223.64928390015848,223.99899880005978,223.99899880005978,223.99899880005978,223.99899880005978,223.99899880005978,223.99899880005978,223.99899880005978,223.99899880005978,223.99899880005978,0,1,[0.0012354000937193632],[0.35050670010969043],223.99899880005978,224.1993295000866,0.0,224.21603360003792,0,0.0,0,1,1000,num_1,0.8360094998497516,,33,5,2026-03-12_17h32.53.183,2026A_exp2,2022.2.4,59.94459918433608,
1,0,0.0,0.0,1,0,71,71,38,,,,,225.08331320015714,225.73408880014904,225.73408880014904,226.218217600137,315,45,226.218217600137,226.218217600137,226.218217600137,226.218217600137,226.218217600137,226.218217600137,226.218217600137,226.218217600137,226.218217600137,226.58487370004877,226.58487370004877,226.58487370004877,226.58487370004877,226.58487370004877,226.58487370004877,226.58487370004877,226.58487370004877,226.58487370004877,23,0,,,226.58487370004877,226.78499500011094,0.0,226.78499500011094,1,0.0,0,0,1000,num_4,1.0345621998421848,,33,5,2026-03-12_17h32.53.183,2026A_exp2,2022.2.4,59.94459918433608,
1000,1,4.9,3.7,0,0,72,72,28,,,,,227.8359838000033,228.48661940009333,228.48661940009333,228.9877812000923,45,45,228.9877812000923,228.9877812000923,228.9877812000923,228.9877812000923,228.9877812000923,228.9877812000923,228.9877812000923,228.9877812000923,228.9877812000923,229.33764889999293,229.33764889999293,229.33764889999293,229.33764889999293,229.33764889999293,229.33764889999293,229.33764889999293,229.33764889999293,229.33764889999293,1,2,"[0.0011770999990403652, 0.0667549001518637]","[0.05000300006940961, 0.35073409997858107]",229.33764889999293,229.53957700007595,1000,229.53957700007595,1000,1000,1000,1000,0,num_3,0.5122833999339491,,33,5,2026-03-12_17h32.53.183,2026A_exp2,2022.2.4,59.94459918433608,
1,0,3.7,6.1,1,0,73,73,68,,,,,230.07166759995744,230.7313391000498,230.7313391000498,231.22520220000297,45,315,231.22520220000297,231.22520220000297,231.22520220000297,231.22520220000297,231.22520220000297,231.22520220000297,231.22520220000297,231.22520220000297,231.22520220000297,231.58985450002365,231.58985450002365,231.58985450002365,231.58985450002365,231.58985450002365,231.58985450002365,231.58985450002365,231.58985450002365,231.58985450002365,6,2,"[0.002081700135022402, 0.33298239996656775]","[0.26619440014474094, 0.3495577001012862]",231.58985450002365,231.79087450006045,6.1,231.79087450006045,1,6.1,1,1,1000,num_4,0.5254166997037828,,33,5,2026-03-12_17h32.53.183,2026A_exp2,2022.2.4,59.94459918433608,
1,0,4.9,0.0,1,0,74,74,34,,,,,232.34052750002593,232.99125270009972,232.99125270009972,233.49229430011474,45,315,233.49229430011474,233.49229430011474,233.49229430011474,233.49229430011474,233.49229430011474,233.49229430011474,233.49229430011474,233.49229430011474,233.49229430011474,233.8590657999739,233.8590657999739,233.8590657999739,233.8590657999739,233.8590657999739,233.8590657999739,233.8590657999739,233.8590657999739,233.8590657999739,22,1,[0.35046679992228746],[0.36742849997244775],233.8590657999739,234.05903030000627,0.0,234.05903030000627,0,0.0,0,1,1000,num_1,0.7454758998937905,,33,5,2026-03-12_17h32.53.183,2026A_exp2,2022.2.4,59.94459918433608,
1,0,3.7,0.0,0,0,75,75,26,,,,,234.8290272001177,235.47719420003705,235.47719420003705,235.97833960014395,315,45,235.97833960014395,235.97833960014395,235.97833960014395,235.97833960014395,235.97833960014395,235.97833960014395,235.97833960014395,235.97833960014395,235.97833960014395,236.34463350009173,236.34463350009173,236.34463350009173,236.34463350009173,236.34463350009173,236.34463350009173,236.34463350009173,236.34463350009173,236.34463350009173,0,1,[0.0012415999080985785],[0.3671411001123488],236.34463350009173,236.54487140011042,3.7,236.54487140011042,1,3.7,1,1,1000,num_4,0.6346656999085099,,33,5,2026-03-12_17h32.53.183,2026A_exp2,2022.2.4,59.94459918433608,
1,0,0.0,4.9,1,0,76,76,54,,,,,237.19544830010273,237.84578240010887,237.84578240010887,238.33051300002262,315,315,238.33051300002262,238.33051300002262,238.33051300002262,238.33051300002262,238.33051300002262,238.33051300002262,238.33051300002262,238.33051300002262,238.33051300002262,238.69716250011697,238.69716250011697,238.69716250011697,238.69716250011697,238.69716250011697,238.69716250011697,238.69716250011697,238.69716250011697,238.69716250011697,23,0,,,238.69716250011697,238.91058939998038,4.9,238.91058939998038,0,4.9,1,0,1000,num_1,0.749382299836725,,33,5,2026-03-12_17h32.53.183,2026A_exp2,2022.2.4,59.94459918433608,
1000,1,3.7,0.0,0,0,77,77,35,,,,,239.68126900005154,240.33201350015588,240.33201350015588,240.83295670012012,315,45,240.83295670012012,240.83295670012012,240.83295670012012,240.83295670012012,240.83295670012012,240.83295670012012,240.83295670012012,240.83295670012012,240.83295670012012,241.1995920999907,241.1995920999907,241.1995920999907,241.1995920999907,241.1995920999907,241.1995920999907,241.1995920999907,241.1995920999907,241.1995920999907,0,1,[0.0013723999727517366],[0.3669994999654591],241.1995920999907,241.40144539996982,1000,241.40144539996982,1000,1000,1000,1000,0,num_3,0.5306587999220937,,33,5,2026-03-12_17h32.53.183,2026A_exp2,2022.2.4,59.94459918433608,
1,0,0.0,6.1,1,0,78,78,46,,,,,241.95012390008196,242.60097090015188,242.60097090015188,243.10625230008736,45,45,243.10625230008736,243.10625230008736,243.10625230008736,243.10625230008736,243.10625230008736,243.10625230008736,243.10625230008736,243.10625230008736,243.10625230008736,243.46832119999453,243.46832119999453,243.46832119999453,243.46832119999453,243.46832119999453,243.46832119999453,243.46832119999453,243.46832119999453,243.46832119999453,0,1,[0.0024223001673817635],[0.36592869996093214],243.46832119999453,243.6687473000493,6.1,243.6687473000493,1,6.1,1,1,1000,num_4,0.648075700039044,,33,5,2026-03-12_17h32.53.183,2026A_exp2,2022.2.4,59.94459918433608,
0,0,0.0,0.0,1,0,79,79,44,,,,,244.33608210016973,244.9969681999646,244.9969681999646,245.4711096000392,45,45,245.4711096000392,245.4711096000392,245.4711096000392,245.4711096000392,245.4711096000392,245.4711096000392,245.4711096000392,245.4711096000392,245.4711096000392,245.8375220000744,245.8375220000744,245.8375220000744,245.8375220000744,245.8375220000744,245.8375220000744,245.8375220000744,245.8375220000744,245.8375220000744,0,1,[0.001001100055873394],[0.3670043000020087],245.8375220000744,246.03762940014713,0.0,246.03762940014713,1,0.0,0,0,1000,num_4,0.7914008998777717,,33,5,2026-03-12_17h32.53.183,2026A_exp2,2022.2.4,59.94459918433608,
1,0,0.0,0.0,1,0,80,80,6,,,,,246.85502779996023,247.51663139997981,247.51663139997981,247.99044120009057,315,45,247.99044120009057,247.99044120009057,247.99044120009057,247.99044120009057,247.99044120009057,247.99044120009057,247.99044120009057,247.99044120009057,247.99044120009057,248.35663890000433,248.35663890000433,248.35663890000433,248.35663890000433,248.35663890000433,248.35663890000433,248.35663890000433,248.35663890000433,248.35663890000433,16,2,"[0.15051519987173378, 0.2841276000253856]","[0.20074040000326931, 0.35083059989847243]",248.35663890000433,248.55692850006744,0.0,248.55692850006744,0,0.0,0,1,1000,num_1,0.9756893997546285,,33,5,2026-03-12_17h32.53.183,2026A_exp2,2022.2.4,59.94459918433608,
1000,1,0.0,3.7,1,0,81,81,88,,,,,249.55777209997177,250.20850559999235,250.20850559999235,250.6929788000416,315,315,250.6929788000416,250.6929788000416,250.6929788000416,250.6929788000416,250.6929788000416,250.6929788000416,250.6929788000416,250.6929788000416,250.6929788000416,251.059349300107,251.059349300107,251.059349300107,251.059349300107,251.059349300107,251.059349300107,251.059349300107,251.059349300107,251.059349300107,2,1,[0.03353670006617904],[0.3671537998598069],251.059349300107,251.28118490008637,1000,251.28118490008637,1000,1000,1000,1000,1,num_2,0.8267732998356223,,33,5,2026-03-12_17h32.53.183,2026A_exp2,2022.2.4,59.94459918433608,
1000,1,3.7,0.0,0,0,82,82,39,,,,,252.12703540013172,252.7843713001348,252.7843713001348,253.2789127000142,315,45,253.2789127000142,253.2789127000142,253.2789127000142,253.2789127000142,253.2789127000142,253.2789127000142,253.2789127000142,253.2789127000142,253.2789127000142,253.6452609000262,253.6452609000262,253.6452609000262,253.6452609000262,253.6452609000262,253.6452609000262,253.6452609000262,253.6452609000262,253.6452609000262,4,1,[0.0007571999449282885],[0.31760989991016686],253.6452609000262,253.84792880015448,1000,253.84792880015448,1000,1000,1000,1000,0,num_3,0.5569279997143894,,33,5,2026-03-12_17h32.53.183,2026A_exp2,2022.2.4,59.94459918433608,
1,0,6.1,0.0,0,0,83,83,85,,,,,254.42931560007855,255.08011070010252,255.08011070010252,255.58109039999545,315,315,255.58109039999545,255.58109039999545,255.58109039999545,255.58109039999545,255.58109039999545,255.58109039999545,255.58109039999545,255.58109039999545,255.58109039999545,255.93094020010903,255.93094020010903,255.93094020010903,255.93094020010903,255.93094020010903,255.93094020010903,255.93094020010903,255.93094020010903,255.93094020010903,21,1,[0.2337458000984043],[0.24998680013231933],255.93094020010903,256.131138100056,6.1,256.1477069000248,1,6.1,1,1,1000,num_4,0.6322220996953547,,33,5,2026-03-12_17h32.53.183,2026A_exp2,2022.2.4,59.94459918433608,
1000,1,0.0,4.9,0,0,84,84,0,,,,,256.7983987000771,257.4488954001572,257.4488954001572,257.93345470004715,315,315,257.93345470004715,257.93345470004715,257.93345470004715,257.93345470004715,257.93345470004715,257.93345470004715,257.93345470004715,257.93345470004715,257.93345470004715,258.29985750000924,258.29985750000924,258.29985750000924,258.29985750000924,258.29985750000924,258.29985750000924,258.29985750000924,258.29985750000924,258.29985750000924,0,1,[0.0012094001285731792],[0.3668061001226306],258.29985750000924,258.4999063999858,1000,258.4999063999858,1000,1000,1000,1000,1,num_2,0.5759079998824745,,33,5,2026-03-12_17h32.53.183,2026A_exp2,2022.2.4,59.94459918433608,
1000,1,0.0,0.0,1,0,85,85,2,,,,,259.10066820005886,259.75533429998904,259.75533429998904,260.2524574000854,315,45,260.2524574000854,260.2524574000854,260.2524574000854,260.2524574000854,260.2524574000854,260.2524574000854,260.2524574000854,260.2524574000854,260.2524574000854,260.61879830015823,260.61879830015823,260.61879830015823,260.61879830015823,260.61879830015823,260.61879830015823,260.61879830015823,260.61879830015823,260.61879830015823,21,2,"[0.2837551000993699, 0.3506393001880497]","[0.30062240012921393, 0.3672921000979841]",260.61879830015823,260.82109840004705,1000,260.82109840004705,1000,1000,1000,1000,0,num_3,0.4871650997083634,,33,5,2026-03-12_17h32.53.183,2026A_exp2,2022.2.4,59.94459918433608,
1000,1,0.0,0.0,0,0,86,86,45,,,,,261.33624370000325,261.98837350006215,261.98837350006215,262.48807570012286,315,45,262.48807570012286,262.48807570012286,262.48807570012286,262.48807570012286,262.48807570012286,262.48807570012286,262.48807570012286,262.48807570012286,262.48807570012286,262.8545536000747,262.8545536000747,262.8545536000747,262.8545536000747,262.8545536000747,262.8545536000747,262.8545536000747,262.8545536000747,262.8545536000747,0,1,[0.0007693998049944639],[0.3677359998691827],262.8545536000747,263.0588696000632,1000,263.0588696000632,1000,1000,1000,1000,1,num_2,0.44204859994351864,,33,5,2026-03-12_17h32.53.183,2026A_exp2,2022.2.4,59.94459918433608,
1000,1,0.0,3.7,0,0,87,87,43,,,,,263.5217556001153,264.1722856000997,264.1722856000997,264.6735317001585,45,315,264.6735317001585,264.6735317001585,264.6735317001585,264.6735317001585,264.6735317001585,264.6735317001585,264.6735317001585,264.6735317001585,264.6735317001585,265.0400998000987,265.0400998000987,265.0400998000987,265.0400998000987,265.0400998000987,265.0400998000987,265.0400998000987,265.0400998000987,265.0400998000987,3,3,"[0.0012038999702781439, 0.13380379998125136, 0.2337239000480622]","[0.10029800003394485, 0.2170184999704361, 0.36722519993782043]",265.0400998000987,265.2422295999713,1000,265.2422295999713,1000,1000,1000,1000,1,num_2,0.5548579997848719,,33,5,2026-03-12_17h32.53.183,2026A_exp2,2022.2.4,59.94459918433608,
1000,1,0.0,4.9,1,0,88,88,37,,,,,265.82438470004126,266.47483130008914,266.47483130008914,266.959307000041,45,45,266.959307000041,266.959307000041,266.959307000041,266.959307000041,266.959307000041,266.959307000041,266.959307000041,266.959307000041,266.959307000041,267.32562070013955,267.32562070013955,267.32562070013955,267.32562070013955,267.32562070013955,267.32562070013955,267.32562070013955,267.32562070013955,267.32562070013955,0,1,[0.0012101000174880028],[0.3671230000909418],267.32562070013955,267.5275674001314,1000,267.5275674001314,1000,1000,1000,1000,1,num_2,0.4292821998242289,,33,5,2026-03-12_17h32.53.183,2026A_exp2,2022.2.4,59.94459918433608,
1000,1,3.7,0.0,0,0,89,89,86,,,,,267.97623510006815,268.62703220010735,268.62703220010735,269.12809010013007,45,315,269.12809010013007,269.12809010013007,269.12809010013007,269.12809010013007,269.12809010013007,269.12809010013007,269.12809010013007,269.12809010013007,269.12809010013007,269.4945225000847,269.4945225000847,269.4945225000847,269.4945225000847,269.4945225000847,269.4945225000847,269.4945225000847,269.4945225000847,269.4945225000847,5,1,[0.08349620015360415],[0.36728270002640784],269.4945225000847,269.69618670013733,1000,269.69618670013733,1000,1000,1000,1000,0,num_3,0.3235746999271214,,33,5,2026-03-12_17h32.53.183,2026A_exp2,2022.2.4,59.94459918433608,
,,,,,,,,,,,,,,,,,,,,,,,,,,,,,,,,,,,,,,,,,,,,,,,,,,,,270.0795404999517,,,,,,,
