validity,detectorcomp,contrastCW,contrastCCW,precueCWorCCW,block_80trials.thisRepN,block_80trials.thisTrialN,block_80trials.thisN,block_80trials.thisIndex,etRecord.started,etRecord.stopped,text.started,text.stopped,text_4.started,text_4.stopped,text_6.started,text_6.stopped,oriCW,oriCCW,roi_2.started,grating_UR.started,grating_UL.started,grating_LR.started,grating_LL.started,noise_UR.started,noise_UL.started,noise_LR.started,noise_LL.started,roi_2.stopped,grating_UR.stopped,grating_UL.stopped,grating_LR.stopped,grating_LL.stopped,noise_UR.stopped,noise_UL.stopped,noise_LR.stopped,noise_LL.stopped,outframe,roi_2.numLooks,roi_2.timesOn,roi_2.timesOff,text_2.started,text_2.stopped,probedcontrast,key_resp.started,respdetect,relevantContrast,correctDetect,TorFdetect,respCWorCCW,key_resp.keys,key_resp.rt,feedback_display_.started,participantNo,blockNo,date,expName,psychopyVersion,frameRate,
1,0,0.0,4.9,0,0,0,0,85,4.020001506432891e-05,4.020001506432891e-05,44.38940280000679,46.39271730001201,46.39271730001201,47.02606679999735,47.02606679999735,47.55598520001513,45,315,47.55598520001513,47.55598520001513,47.55598520001513,47.55598520001513,47.55598520001513,47.55598520001513,47.55598520001513,47.55598520001513,47.55598520001513,47.892760899994755,47.892760899994755,47.892760899994755,47.892760899994755,47.892760899994755,47.892760899994755,47.892760899994755,47.892760899994755,47.892760899994755,23,0,,,47.892760899994755,48.093335800018394,0.0,48.093335800018394,0,0.0,0,1,1000,num_1,1.2960942000208888,,18,11,2026-03-02_11h09.15.203,2026A_exp2,2022.2.4,59.84569386538993,
1000,1,0.0,0.0,0,0,1,1,20,,,,,49.411671600013506,50.06162740002037,50.06162740002037,50.54629990001558,45,315,50.54629990001558,50.54629990001558,50.54629990001558,50.54629990001558,50.54629990001558,50.54629990001558,50.54629990001558,50.54629990001558,50.54629990001558,50.91283869999461,50.91283869999461,50.91283869999461,50.91283869999461,50.91283869999461,50.91283869999461,50.91283869999461,50.91283869999461,50.91283869999461,23,0,,,50.91283869999461,51.11290540001937,1000,51.11290540001937,1000,1000,1000,1000,1,num_2,0.692511100001866,,18,11,2026-03-02_11h09.15.203,2026A_exp2,2022.2.4,59.84569386538993,
1,0,0.0,0.0,0,0,2,2,9,,,,,51.83014600002207,52.46489040000597,52.46489040000597,52.96547769999597,315,45,52.96547769999597,52.96547769999597,52.96547769999597,52.96547769999597,52.96547769999597,52.96547769999597,52.96547769999597,52.96547769999597,52.96547769999597,53.3323081000126,53.3323081000126,53.3323081000126,53.3323081000126,53.3323081000126,53.3323081000126,53.3323081000126,53.3323081000126,53.3323081000126,23,0,,,53.3323081000126,53.53189790001488,0.0,53.53189790001488,0,0.0,0,1,1000,num_1,1.1534956999821588,,18,11,2026-03-02_11h09.15.203,2026A_exp2,2022.2.4,59.84569386538993,
1000,1,0.0,0.0,0,0,3,3,65,,,,,54.716508800018346,55.35054820001824,55.35054820001824,55.8515444000077,45,315,55.8515444000077,55.8515444000077,55.8515444000077,55.8515444000077,55.8515444000077,55.8515444000077,55.8515444000077,55.8515444000077,55.8515444000077,56.21821789999376,56.21821789999376,56.21821789999376,56.21821789999376,56.21821789999376,56.21821789999376,56.21821789999376,56.21821789999376,56.21821789999376,23,0,,,56.21821789999376,56.41869410002255,1000,56.41869410002255,1000,1000,1000,1000,1,num_2,0.8501213999988977,,18,11,2026-03-02_11h09.15.203,2026A_exp2,2022.2.4,59.84569386538993,
0,0,3.7,0.0,1,0,4,4,83,,,,,57.28611770001589,57.936713900009636,57.936713900009636,58.43771950001246,45,45,58.43771950001246,58.43771950001246,58.43771950001246,58.43771950001246,58.43771950001246,58.43771950001246,58.43771950001246,58.43771950001246,58.43771950001246,58.78935060001095,58.78935060001095,58.78935060001095,58.78935060001095,58.78935060001095,58.78935060001095,58.78935060001095,58.78935060001095,58.78935060001095,22,0,,,58.78935060001095,59.00493250001455,3.7,59.00493250001455,1,3.7,1,1,1000,num_4,0.7362718000076711,,18,11,2026-03-02_11h09.15.203,2026A_exp2,2022.2.4,59.84569386538993,
1000,1,0.0,3.7,0,0,5,5,44,,,,,59.77153470000485,60.40559670000221,60.40559670000221,60.90695540001616,315,315,60.90695540001616,60.90695540001616,60.90695540001616,60.90695540001616,60.90695540001616,60.90695540001616,60.90695540001616,60.90695540001616,60.90695540001616,61.272866300016176,61.272866300016176,61.272866300016176,61.272866300016176,61.272866300016176,61.272866300016176,61.272866300016176,61.272866300016176,61.272866300016176,23,0,,,61.272866300016176,61.473149600002216,1000,61.473149600002216,1000,1000,1000,1000,1,num_2,0.612016200000653,,18,11,2026-03-02_11h09.15.203,2026A_exp2,2022.2.4,59.84569386538993,
0,0,4.9,0.0,0,0,6,6,30,,,,,62.10717540001497,62.74155820001033,62.74155820001033,63.242596900003264,45,315,63.242596900003264,63.242596900003264,63.242596900003264,63.242596900003264,63.242596900003264,63.242596900003264,63.242596900003264,63.242596900003264,63.242596900003264,63.609378399996785,63.609378399996785,63.609378399996785,63.609378399996785,63.609378399996785,63.609378399996785,63.609378399996785,63.609378399996785,63.609378399996785,23,0,,,63.609378399996785,63.808758600003785,0.0,63.808758600003785,1,0.0,0,0,1000,num_4,1.0288757999951486,,18,11,2026-03-02_11h09.15.203,2026A_exp2,2022.2.4,59.84569386538993,
1,0,0.0,0.0,1,0,7,7,70,,,,,64.86042209999869,65.51069310001913,65.51069310001913,66.01171620000969,45,315,66.01171620000969,66.01171620000969,66.01171620000969,66.01171620000969,66.01171620000969,66.01171620000969,66.01171620000969,66.01171620000969,66.01171620000969,66.36241830000654,66.36241830000654,66.36241830000654,66.36241830000654,66.36241830000654,66.36241830000654,66.36241830000654,66.36241830000654,66.36241830000654,22,0,,,66.36241830000654,66.56171810001251,0.0,66.56171810001251,0,0.0,0,1,1000,num_1,0.43638490000739694,,18,11,2026-03-02_11h09.15.203,2026A_exp2,2022.2.4,59.84569386538993,
1000,1,4.9,0.0,0,0,8,8,36,,,,,67.0287983000162,67.67972750001354,67.67972750001354,68.18066939999699,45,45,68.18066939999699,68.18066939999699,68.18066939999699,68.18066939999699,68.18066939999699,68.18066939999699,68.18066939999699,68.18066939999699,68.18066939999699,68.54692230001092,68.54692230001092,68.54692230001092,68.54692230001092,68.54692230001092,68.54692230001092,68.54692230001092,68.54692230001092,68.54692230001092,23,0,,,68.54692230001092,68.74746559999767,1000,68.74746559999767,1000,1000,1000,1000,0,num_3,0.5134584999759682,,18,11,2026-03-02_11h09.15.203,2026A_exp2,2022.2.4,59.84569386538993,
1,0,0.0,0.0,0,0,9,9,81,,,,,69.28153680000105,69.93211680001696,69.93211680001696,70.43344970000908,315,315,70.43344970000908,70.43344970000908,70.43344970000908,70.43344970000908,70.43344970000908,70.43344970000908,70.43344970000908,70.43344970000908,70.43344970000908,70.79942590001156,70.79942590001156,70.79942590001156,70.79942590001156,70.79942590001156,70.79942590001156,70.79942590001156,70.79942590001156,70.79942590001156,23,0,,,70.79942590001156,71.00111880002078,0.0,71.00111880002078,0,0.0,0,1,1000,num_1,0.8520296000060625,,18,11,2026-03-02_11h09.15.203,2026A_exp2,2022.2.4,59.84569386538993,
1,0,0.0,0.0,0,0,10,10,49,,,,,71.88379340001848,72.53413340001134,72.53413340001134,73.03578800000832,45,315,73.03578800000832,73.03578800000832,73.03578800000832,73.03578800000832,73.03578800000832,73.03578800000832,73.03578800000832,73.03578800000832,73.03578800000832,73.4016382000118,73.4016382000118,73.4016382000118,73.4016382000118,73.4016382000118,73.4016382000118,73.4016382000118,73.4016382000118,73.4016382000118,23,0,,,73.4016382000118,73.60220019999542,0.0,73.60220019999542,0,0.0,0,1,1000,num_1,0.4270449999894481,,18,11,2026-03-02_11h09.15.203,2026A_exp2,2022.2.4,59.84569386538993,
1,0,0.0,6.1,0,0,11,11,5,,,,,74.05258340001456,74.68697450001491,74.68697450001491,75.18799279999803,45,45,75.18799279999803,75.18799279999803,75.18799279999803,75.18799279999803,75.18799279999803,75.18799279999803,75.18799279999803,75.18799279999803,75.18799279999803,75.55411620001541,75.55411620001541,75.55411620001541,75.55411620001541,75.55411620001541,75.55411620001541,75.55411620001541,75.55411620001541,75.55411620001541,23,0,,,75.55411620001541,75.75439159999951,0.0,75.75439159999951,0,0.0,0,1,1000,num_1,0.41919859999325126,,18,11,2026-03-02_11h09.15.203,2026A_exp2,2022.2.4,59.84569386538993,
1,0,0.0,0.0,1,0,12,12,41,,,,,76.20511090001673,76.85559650001233,76.85559650001233,77.35649170001852,315,45,77.35649170001852,77.35649170001852,77.35649170001852,77.35649170001852,77.35649170001852,77.35649170001852,77.35649170001852,77.35649170001852,77.35649170001852,77.72290019999491,77.72290019999491,77.72290019999491,77.72290019999491,77.72290019999491,77.72290019999491,77.72290019999491,77.72290019999491,77.72290019999491,23,0,,,77.72290019999491,77.9235505000106,0.0,77.9235505000106,0,0.0,0,1,1000,num_1,0.41782709999824874,,18,11,2026-03-02_11h09.15.203,2026A_exp2,2022.2.4,59.84569386538993,
1000,1,0.0,0.0,1,0,13,13,14,,,,,78.3576893999998,78.99151409999467,78.99151409999467,79.49221910000779,45,315,79.49221910000779,79.49221910000779,79.49221910000779,79.49221910000779,79.49221910000779,79.49221910000779,79.49221910000779,79.49221910000779,79.49221910000779,79.86151610000525,79.86151610000525,79.86151610000525,79.86151610000525,79.86151610000525,79.86151610000525,79.86151610000525,79.86151610000525,79.86151610000525,23,0,,,79.86151610000525,80.07547219999833,1000,80.07547219999833,1000,1000,1000,1000,0,num_3,1.0018101000168826,,18,11,2026-03-02_11h09.15.203,2026A_exp2,2022.2.4,59.84569386538993,
1000,1,6.1,4.9,1,0,14,14,16,,,,,81.09326789999614,81.72687440001755,81.72687440001755,82.24538160001975,315,45,82.24538160001975,82.24538160001975,82.24538160001975,82.24538160001975,82.24538160001975,82.24538160001975,82.24538160001975,82.24538160001975,82.24538160001975,82.6109791000199,82.6109791000199,82.6109791000199,82.6109791000199,82.6109791000199,82.6109791000199,82.6109791000199,82.6109791000199,82.6109791000199,23,0,,,82.6109791000199,82.81129840001813,1000,82.81129840001813,1000,1000,1000,1000,1,num_2,0.5297629999986384,,18,11,2026-03-02_11h09.15.203,2026A_exp2,2022.2.4,59.84569386538993,
1,0,6.1,0.0,1,0,15,15,13,,,,,83.36203350001597,84.01263840001775,84.01263840001775,84.51396260000183,45,315,84.51396260000183,84.51396260000183,84.51396260000183,84.51396260000183,84.51396260000183,84.51396260000183,84.51396260000183,84.51396260000183,84.51396260000183,84.86332460000995,84.86332460000995,84.86332460000995,84.86332460000995,84.86332460000995,84.86332460000995,84.86332460000995,84.86332460000995,84.86332460000995,22,0,,,84.86332460000995,85.0636027000146,0.0,85.08046580001246,0,0.0,0,1,1000,num_1,0.63673430000199,,18,11,2026-03-02_11h09.15.203,2026A_exp2,2022.2.4,59.84569386538993,
0,0,0.0,3.7,1,0,16,16,21,,,,,85.74804330000188,86.39795559999766,86.39795559999766,86.88312810001662,315,45,86.88312810001662,86.88312810001662,86.88312810001662,86.88312810001662,86.88312810001662,86.88312810001662,86.88312810001662,86.88312810001662,86.88312810001662,87.24921700000414,87.24921700000414,87.24921700000414,87.24921700000414,87.24921700000414,87.24921700000414,87.24921700000414,87.24921700000414,87.24921700000414,23,0,,,87.24921700000414,87.44938180001918,0.0,87.44938180001918,1,0.0,0,0,1000,num_4,0.8521138999785762,,18,11,2026-03-02_11h09.15.203,2026A_exp2,2022.2.4,59.84569386538993,
1000,1,4.9,0.0,0,0,17,17,22,,,,,88.31681180000305,88.9682829999947,88.9682829999947,89.46908680000342,45,315,89.46908680000342,89.46908680000342,89.46908680000342,89.46908680000342,89.46908680000342,89.46908680000342,89.46908680000342,89.46908680000342,89.46908680000342,89.83512530001462,89.83512530001462,89.83512530001462,89.83512530001462,89.83512530001462,89.83512530001462,89.83512530001462,89.83512530001462,89.83512530001462,23,0,,,89.83512530001462,90.0356354000105,1000,90.0356354000105,1000,1000,1000,1000,0,num_3,0.52984179998748,,18,11,2026-03-02_11h09.15.203,2026A_exp2,2022.2.4,59.84569386538993,
1,0,0.0,0.0,1,0,18,18,66,,,,,90.5859432000143,91.23697640001774,91.23697640001774,91.72083350000321,45,45,91.72083350000321,91.72083350000321,91.72083350000321,91.72083350000321,91.72083350000321,91.72083350000321,91.72083350000321,91.72083350000321,91.72083350000321,92.08765910001239,92.08765910001239,92.08765910001239,92.08765910001239,92.08765910001239,92.08765910001239,92.08765910001239,92.08765910001239,92.08765910001239,23,0,,,92.08765910001239,92.28766240002005,0.0,92.28766240002005,0,0.0,0,1,1000,num_1,0.40591349999886006,,18,11,2026-03-02_11h09.15.203,2026A_exp2,2022.2.4,59.84569386538993,
1000,1,0.0,0.0,0,0,19,19,75,,,,,92.72146030000295,93.3721121000126,93.3721121000126,93.85642050000024,315,45,93.85642050000024,93.85642050000024,93.85642050000024,93.85642050000024,93.85642050000024,93.85642050000024,93.85642050000024,93.85642050000024,93.85642050000024,94.22280340001453,94.22280340001453,94.22280340001453,94.22280340001453,94.22280340001453,94.22280340001453,94.22280340001453,94.22280340001453,94.22280340001453,23,0,,,94.22280340001453,94.42273730001762,1000,94.42273730001762,1000,1000,1000,1000,1,num_2,0.7746172999904957,,18,11,2026-03-02_11h09.15.203,2026A_exp2,2022.2.4,59.84569386538993,
1000,1,4.9,4.9,0,0,20,20,42,,,,,95.22403640000266,95.85870390001219,95.85870390001219,96.35921480000252,315,315,96.35921480000252,96.35921480000252,96.35921480000252,96.35921480000252,96.35921480000252,96.35921480000252,96.35921480000252,96.35921480000252,96.35921480000252,96.72650750001776,96.72650750001776,96.72650750001776,96.72650750001776,96.72650750001776,96.72650750001776,96.72650750001776,96.72650750001776,96.72650750001776,23,0,,,96.72650750001776,96.92546480000601,1000,96.92546480000601,1000,1000,1000,1000,0,num_3,0.7835164999996778,,18,11,2026-03-02_11h09.15.203,2026A_exp2,2022.2.4,59.84569386538993,
0,0,0.0,4.9,1,0,21,21,56,,,,,97.72689950000495,98.36073129999568,98.36073129999568,98.8790258000081,45,45,98.8790258000081,98.8790258000081,98.8790258000081,98.8790258000081,98.8790258000081,98.8790258000081,98.8790258000081,98.8790258000081,98.8790258000081,99.22829050000291,99.22829050000291,99.22829050000291,99.22829050000291,99.22829050000291,99.22829050000291,99.22829050000291,99.22829050000291,99.22829050000291,22,0,,,99.22829050000291,99.42815849999897,0.0,99.42815849999897,0,0.0,0,1,1000,num_1,1.161149599996861,,18,11,2026-03-02_11h09.15.203,2026A_exp2,2022.2.4,59.84569386538993,
1000,1,6.1,3.7,1,0,22,22,24,,,,,100.61256540002069,101.24680140000419,101.24680140000419,101.76453580000089,45,45,101.76453580000089,101.76453580000089,101.76453580000089,101.76453580000089,101.76453580000089,101.76453580000089,101.76453580000089,101.76453580000089,101.76453580000089,102.11477030001697,102.11477030001697,102.11477030001697,102.11477030001697,102.11477030001697,102.11477030001697,102.11477030001697,102.11477030001697,102.11477030001697,22,0,,,102.11477030001697,102.31498210001155,1000,102.31498210001155,1000,1000,1000,1000,0,num_3,0.5377770999912173,,18,11,2026-03-02_11h09.15.203,2026A_exp2,2022.2.4,59.84569386538993,
0,0,0.0,0.0,1,0,23,23,8,,,,,102.88150020001922,103.53204180000466,103.53204180000466,104.0337048000074,45,45,104.0337048000074,104.0337048000074,104.0337048000074,104.0337048000074,104.0337048000074,104.0337048000074,104.0337048000074,104.0337048000074,104.0337048000074,104.38281470001675,104.38281470001675,104.38281470001675,104.38281470001675,104.38281470001675,104.38281470001675,104.38281470001675,104.38281470001675,104.38281470001675,22,0,,,104.38281470001675,104.58324790000916,0.0,104.59963539999444,1,0.0,0,0,1000,num_4,0.9179950999969151,,18,11,2026-03-02_11h09.15.203,2026A_exp2,2022.2.4,59.84569386538993,
1000,1,0.0,4.9,0,0,24,24,11,,,,,105.53405129999737,106.16834420000669,106.16834420000669,106.66961929999525,45,315,106.66961929999525,106.66961929999525,106.66961929999525,106.66961929999525,106.66961929999525,106.66961929999525,106.66961929999525,106.66961929999525,106.66961929999525,107.03529460000573,107.03529460000573,107.03529460000573,107.03529460000573,107.03529460000573,107.03529460000573,107.03529460000573,107.03529460000573,107.03529460000573,23,0,,,107.03529460000573,107.23592239999562,1000,107.23592239999562,1000,1000,1000,1000,1,num_2,0.5696407999785151,,18,11,2026-03-02_11h09.15.203,2026A_exp2,2022.2.4,59.84569386538993,
1000,1,6.1,3.7,1,0,25,25,10,,,,,107.83706180000445,108.48719270000583,108.48719270000583,108.98805870002252,45,45,108.98805870002252,108.98805870002252,108.98805870002252,108.98805870002252,108.98805870002252,108.98805870002252,108.98805870002252,108.98805870002252,108.98805870002252,109.35477760000504,109.35477760000504,109.35477760000504,109.35477760000504,109.35477760000504,109.35477760000504,109.35477760000504,109.35477760000504,109.35477760000504,23,0,,,109.35477760000504,109.55482550000306,1000,109.55482550000306,1000,1000,1000,1000,0,num_3,0.5463173999742139,,18,11,2026-03-02_11h09.15.203,2026A_exp2,2022.2.4,59.84569386538993,
1000,1,4.9,0.0,1,0,26,26,25,,,,,110.12244669999927,110.75668429999496,110.75668429999496,111.25705200000084,315,45,111.25705200000084,111.25705200000084,111.25705200000084,111.25705200000084,111.25705200000084,111.25705200000084,111.25705200000084,111.25705200000084,111.25705200000084,111.62374010001076,111.62374010001076,111.62374010001076,111.62374010001076,111.62374010001076,111.62374010001076,111.62374010001076,111.62374010001076,111.62374010001076,23,0,,,111.62374010001076,111.82458310000948,1000,111.82458310000948,1000,1000,1000,1000,0,num_3,0.588023999996949,,18,11,2026-03-02_11h09.15.203,2026A_exp2,2022.2.4,59.84569386538993,
0,0,0.0,4.9,0,0,27,27,54,,,,,112.4412680999958,113.09178450002219,113.09178450002219,113.59322440001415,45,315,113.59322440001415,113.59322440001415,113.59322440001415,113.59322440001415,113.59322440001415,113.59322440001415,113.59322440001415,113.59322440001415,113.59322440001415,113.9443872999982,113.9443872999982,113.9443872999982,113.9443872999982,113.9443872999982,113.9443872999982,113.9443872999982,113.9443872999982,113.9443872999982,22,0,,,113.9443872999982,114.16069150000112,4.9,114.16069150000112,1,4.9,1,1,1000,num_4,0.4767297000216786,,18,11,2026-03-02_11h09.15.203,2026A_exp2,2022.2.4,59.84569386538993,
1,0,0.0,0.0,1,0,28,28,43,,,,,114.659877099999,115.31137700000545,115.31137700000545,115.79505159999826,45,45,115.79505159999826,115.79505159999826,115.79505159999826,115.79505159999826,115.79505159999826,115.79505159999826,115.79505159999826,115.79505159999826,115.79505159999826,116.1611957999994,116.1611957999994,116.1611957999994,116.1611957999994,116.1611957999994,116.1611957999994,116.1611957999994,116.1611957999994,116.1611957999994,23,0,,,116.1611957999994,116.36136930002249,0.0,116.37854720000178,0,0.0,0,1,1000,num_1,0.4021657000121195,,18,11,2026-03-02_11h09.15.203,2026A_exp2,2022.2.4,59.84569386538993,
1,0,6.1,0.0,0,0,29,29,50,,,,,116.81218170002103,117.44653080002172,117.44653080002172,117.94721559999743,45,315,117.94721559999743,117.94721559999743,117.94721559999743,117.94721559999743,117.94721559999743,117.94721559999743,117.94721559999743,117.94721559999743,117.94721559999743,118.31402940000407,118.31402940000407,118.31402940000407,118.31402940000407,118.31402940000407,118.31402940000407,118.31402940000407,118.31402940000407,118.31402940000407,23,0,,,118.31402940000407,118.51404480001656,6.1,118.51404480001656,1,6.1,1,1,1000,num_4,0.33891949997632764,,18,11,2026-03-02_11h09.15.203,2026A_exp2,2022.2.4,59.84569386538993,
1,0,4.9,0.0,1,0,30,30,4,,,,,118.8812128000136,119.53137169999536,119.53137169999536,120.01626360000228,315,45,120.01626360000228,120.01626360000228,120.01626360000228,120.01626360000228,120.01626360000228,120.01626360000228,120.01626360000228,120.01626360000228,120.01626360000228,120.382099200011,120.382099200011,120.382099200011,120.382099200011,120.382099200011,120.382099200011,120.382099200011,120.382099200011,120.382099200011,23,0,,,120.382099200011,120.58276829999522,0.0,120.58276829999522,0,0.0,0,1,1000,num_1,0.5348631999804638,,18,11,2026-03-02_11h09.15.203,2026A_exp2,2022.2.4,59.84569386538993,
1000,1,6.1,0.0,0,0,31,31,33,,,,,121.13408230000641,121.783692099998,121.783692099998,122.28476370000863,315,45,122.28476370000863,122.28476370000863,122.28476370000863,122.28476370000863,122.28476370000863,122.28476370000863,122.28476370000863,122.28476370000863,122.28476370000863,122.6351205999963,122.6351205999963,122.6351205999963,122.6351205999963,122.6351205999963,122.6351205999963,122.6351205999963,122.6351205999963,122.6351205999963,22,0,,,122.6351205999963,122.83509670000058,1000,122.8520497000136,1000,1000,1000,1000,0,num_3,0.48957370000425726,,18,11,2026-03-02_11h09.15.203,2026A_exp2,2022.2.4,59.84569386538993,
1,0,0.0,0.0,1,0,32,32,18,,,,,123.36902410001494,124.00279830000363,124.00279830000363,124.50382860001992,315,45,124.50382860001992,124.50382860001992,124.50382860001992,124.50382860001992,124.50382860001992,124.50382860001992,124.50382860001992,124.50382860001992,124.50382860001992,124.87016690001474,124.87016690001474,124.87016690001474,124.87016690001474,124.87016690001474,124.87016690001474,124.87016690001474,124.87016690001474,124.87016690001474,23,0,,,124.87016690001474,125.0702957000176,0.0,125.0702957000176,0,0.0,0,1,1000,num_1,0.686960299994098,,18,11,2026-03-02_11h09.15.203,2026A_exp2,2022.2.4,59.84569386538993,
1000,1,0.0,3.7,0,0,33,33,52,,,,,125.78795900000841,126.42229800001951,126.42229800001951,126.9224824999983,315,45,126.9224824999983,126.9224824999983,126.9224824999983,126.9224824999983,126.9224824999983,126.9224824999983,126.9224824999983,126.9224824999983,126.9224824999983,127.28941110000596,127.28941110000596,127.28941110000596,127.28941110000596,127.28941110000596,127.28941110000596,127.28941110000596,127.28941110000596,127.28941110000596,23,0,,,127.28941110000596,127.49015019999933,1000,127.49015019999933,1000,1000,1000,1000,1,num_2,0.8106818000087515,,18,11,2026-03-02_11h09.15.203,2026A_exp2,2022.2.4,59.84569386538993,
1,0,4.9,0.0,1,0,34,34,6,,,,,128.3243516999937,128.97421980000217,128.97421980000217,129.47571510000853,315,45,129.47571510000853,129.47571510000853,129.47571510000853,129.47571510000853,129.47571510000853,129.47571510000853,129.47571510000853,129.47571510000853,129.47571510000853,129.82541370001854,129.82541370001854,129.82541370001854,129.82541370001854,129.82541370001854,129.82541370001854,129.82541370001854,129.82541370001854,129.82541370001854,22,0,,,129.82541370001854,130.02535810001427,0.0,130.02535810001427,0,0.0,0,1,1000,num_1,0.6917630000098143,,18,11,2026-03-02_11h09.15.203,2026A_exp2,2022.2.4,59.84569386538993,
1,0,0.0,3.7,1,0,35,35,57,,,,,130.74364450000576,131.39350999999442,131.39350999999442,131.8944546999992,45,315,131.8944546999992,131.8944546999992,131.8944546999992,131.8944546999992,131.8944546999992,131.8944546999992,131.8944546999992,131.8944546999992,131.8944546999992,132.24437820000458,132.24437820000458,132.24437820000458,132.24437820000458,132.24437820000458,132.24437820000458,132.24437820000458,132.24437820000458,132.24437820000458,22,0,,,132.24437820000458,132.4441169000056,3.7,132.46071129999473,1,3.7,1,1,1000,num_4,0.327891399996588,,18,11,2026-03-02_11h09.15.203,2026A_exp2,2022.2.4,59.84569386538993,
1,0,4.9,0.0,1,0,36,36,82,,,,,132.8111487000133,133.44499360001646,133.44499360001646,133.94669810001506,45,315,133.94669810001506,133.94669810001506,133.94669810001506,133.94669810001506,133.94669810001506,133.94669810001506,133.94669810001506,133.94669810001506,133.94669810001506,134.3131212000153,134.3131212000153,134.3131212000153,134.3131212000153,134.3131212000153,134.3131212000153,134.3131212000153,134.3131212000153,134.3131212000153,23,0,,,134.3131212000153,134.51322540000547,0.0,134.51322540000547,1,0.0,0,0,1000,num_4,0.587473499996122,,18,11,2026-03-02_11h09.15.203,2026A_exp2,2022.2.4,59.84569386538993,
1000,1,0.0,6.1,1,0,37,37,88,,,,,135.13045080000302,135.78121099999407,135.78121099999407,136.26553040000726,45,315,136.26553040000726,136.26553040000726,136.26553040000726,136.26553040000726,136.26553040000726,136.26553040000726,136.26553040000726,136.26553040000726,136.26553040000726,136.6325393000152,136.6325393000152,136.6325393000152,136.6325393000152,136.6325393000152,136.6325393000152,136.6325393000152,136.6325393000152,136.6325393000152,23,0,,,136.6325393000152,136.83207880001282,1000,136.83207880001282,1000,1000,1000,1000,1,num_2,0.45324930001515895,,18,11,2026-03-02_11h09.15.203,2026A_exp2,2022.2.4,59.84569386538993,
1000,1,0.0,4.9,1,0,38,38,27,,,,,137.31626120000146,137.9668015000061,137.9668015000061,138.45104080002056,45,45,138.45104080002056,138.45104080002056,138.45104080002056,138.45104080002056,138.45104080002056,138.45104080002056,138.45104080002056,138.45104080002056,138.45104080002056,138.81764459999977,138.81764459999977,138.81764459999977,138.81764459999977,138.81764459999977,138.81764459999977,138.81764459999977,138.81764459999977,138.81764459999977,23,0,,,138.81764459999977,139.01773240001057,1000,139.03437500001746,1000,1000,1000,1000,1,num_2,0.5071013999986462,,18,11,2026-03-02_11h09.15.203,2026A_exp2,2022.2.4,59.84569386538993,
1000,1,0.0,0.0,1,0,39,39,7,,,,,139.56867460001376,140.2185060000047,140.2185060000047,140.71978189999936,45,315,140.71978189999936,140.71978189999936,140.71978189999936,140.71978189999936,140.71978189999936,140.71978189999936,140.71978189999936,140.71978189999936,140.71978189999936,141.06984179999563,141.06984179999563,141.06984179999563,141.06984179999563,141.06984179999563,141.06984179999563,141.06984179999563,141.06984179999563,141.06984179999563,22,0,,,141.06984179999563,141.2698298000032,1000,141.28694449999603,1000,1000,1000,1000,1,num_2,0.4858362000086345,,18,11,2026-03-02_11h09.15.203,2026A_exp2,2022.2.4,59.84569386538993,
1,0,4.9,4.9,0,0,40,40,63,,,,,141.8034772000101,142.43769449999672,142.43769449999672,142.93916900001932,315,315,142.93916900001932,142.93916900001932,142.93916900001932,142.93916900001932,142.93916900001932,142.93916900001932,142.93916900001932,142.93916900001932,142.93916900001932,143.30488949999562,143.30488949999562,143.30488949999562,143.30488949999562,143.30488949999562,143.30488949999562,143.30488949999562,143.30488949999562,143.30488949999562,23,0,,,143.30488949999562,143.50506310001947,4.9,143.50506310001947,1,4.9,1,1,1000,num_4,1.0604976000031456,,18,11,2026-03-02_11h09.15.203,2026A_exp2,2022.2.4,59.84569386538993,
1,0,0.0,4.9,1,0,41,41,45,,,,,144.5895545000094,145.2239080000145,145.2239080000145,145.7260060000117,315,315,145.7260060000117,145.7260060000117,145.7260060000117,145.7260060000117,145.7260060000117,145.7260060000117,145.7260060000117,145.7260060000117,145.7260060000117,146.09125940001104,146.09125940001104,146.09125940001104,146.09125940001104,146.09125940001104,146.09125940001104,146.09125940001104,146.09125940001104,146.09125940001104,23,0,,,146.09125940001104,146.29214580002008,4.9,146.29214580002008,1,4.9,1,1,1000,num_4,0.3689359000127297,,18,11,2026-03-02_11h09.15.203,2026A_exp2,2022.2.4,59.84569386538993,
0,0,0.0,0.0,1,0,42,42,62,,,,,146.6922540999949,147.3266494999989,147.3266494999989,147.8273765000049,315,315,147.8273765000049,147.8273765000049,147.8273765000049,147.8273765000049,147.8273765000049,147.8273765000049,147.8273765000049,147.8273765000049,147.8273765000049,148.1940859000024,148.1940859000024,148.1940859000024,148.1940859000024,148.1940859000024,148.1940859000024,148.1940859000024,148.1940859000024,148.1940859000024,23,0,,,148.1940859000024,148.3936733000155,0.0,148.3936733000155,0,0.0,0,1,1000,num_1,0.4835009000089485,,18,11,2026-03-02_11h09.15.203,2026A_exp2,2022.2.4,59.84569386538993,
1000,1,6.1,4.9,1,0,43,43,53,,,,,148.89440069999546,149.5448333999957,149.5448333999957,150.02939979999792,315,45,150.02939979999792,150.02939979999792,150.02939979999792,150.02939979999792,150.02939979999792,150.02939979999792,150.02939979999792,150.02939979999792,150.02939979999792,150.39559890000965,150.39559890000965,150.39559890000965,150.39559890000965,150.39559890000965,150.39559890000965,150.39559890000965,150.39559890000965,150.39559890000965,23,0,,,150.39559890000965,150.59607970001525,1000,150.59607970001525,1000,1000,1000,1000,1,num_2,0.4731605999986641,,18,11,2026-03-02_11h09.15.203,2026A_exp2,2022.2.4,59.84569386538993,
1,0,0.0,3.7,0,0,44,44,78,,,,,151.09641030000057,151.746716499998,151.746716499998,152.23115450001205,315,315,152.23115450001205,152.23115450001205,152.23115450001205,152.23115450001205,152.23115450001205,152.23115450001205,152.23115450001205,152.23115450001205,152.23115450001205,152.59913479999523,152.59913479999523,152.59913479999523,152.59913479999523,152.59913479999523,152.59913479999523,152.59913479999523,152.59913479999523,152.59913479999523,23,0,,,152.59913479999523,,0.0,152.8146257000044,0,0.0,0,1,1000,num_1,0.6150169000029564,,18,11,2026-03-02_11h09.15.203,2026A_exp2,2022.2.4,59.84569386538993,
1,0,0.0,0.0,0,0,45,45,59,,,,,153.44885139999678,154.09953520001727,154.09953520001727,154.5844242000021,315,315,154.5844242000021,154.5844242000021,154.5844242000021,154.5844242000021,154.5844242000021,154.5844242000021,154.5844242000021,154.5844242000021,154.5844242000021,154.95060969999759,154.95060969999759,154.95060969999759,154.95060969999759,154.95060969999759,154.95060969999759,154.95060969999759,154.95060969999759,154.95060969999759,23,0,,,154.95060969999759,155.15211880000425,0.0,155.15211880000425,0,0.0,0,1,1000,num_1,0.35710870000184514,,18,11,2026-03-02_11h09.15.203,2026A_exp2,2022.2.4,59.84569386538993,
1000,1,4.9,3.7,1,0,46,46,32,,,,,155.5344527999987,156.16860410000663,156.16860410000663,156.6701956000179,45,45,156.6701956000179,156.6701956000179,156.6701956000179,156.6701956000179,156.6701956000179,156.6701956000179,156.6701956000179,156.6701956000179,156.6701956000179,157.03570219999528,157.03570219999528,157.03570219999528,157.03570219999528,157.03570219999528,157.03570219999528,157.03570219999528,157.03570219999528,157.03570219999528,23,0,,,157.03570219999528,157.23702250001952,1000,157.23702250001952,1000,1000,1000,1000,1,num_2,0.6080007000127807,,18,11,2026-03-02_11h09.15.203,2026A_exp2,2022.2.4,59.84569386538993,
1000,1,0.0,6.1,0,0,47,47,34,,,,,157.87055650001275,158.5203504000092,158.5203504000092,159.02127019999898,315,315,159.02127019999898,159.02127019999898,159.02127019999898,159.02127019999898,159.02127019999898,159.02127019999898,159.02127019999898,159.02127019999898,159.02127019999898,159.37315150001086,159.37315150001086,159.37315150001086,159.37315150001086,159.37315150001086,159.37315150001086,159.37315150001086,159.37315150001086,159.37315150001086,22,0,,,159.37315150001086,159.589003400004,1000,159.589003400004,1000,1000,1000,1000,1,num_2,0.7365664000099059,,18,11,2026-03-02_11h09.15.203,2026A_exp2,2022.2.4,59.84569386538993,
1000,1,3.7,0.0,1,0,48,48,55,,,,,160.35592080000788,161.0063696000143,161.0063696000143,161.49096110000391,45,45,161.49096110000391,161.49096110000391,161.49096110000391,161.49096110000391,161.49096110000391,161.49096110000391,161.49096110000391,161.49096110000391,161.49096110000391,161.85735350000323,161.85735350000323,161.85735350000323,161.85735350000323,161.85735350000323,161.85735350000323,161.85735350000323,161.85735350000323,161.85735350000323,23,0,,,161.85735350000323,162.05728000000818,1000,162.05728000000818,1000,1000,1000,1000,0,num_3,0.6354990999971051,,18,11,2026-03-02_11h09.15.203,2026A_exp2,2022.2.4,59.84569386538993,
1,0,6.1,4.9,1,0,49,49,35,,,,,162.72440639999695,163.37541390000843,163.37541390000843,163.86001570001827,315,45,163.86001570001827,163.86001570001827,163.86001570001827,163.86001570001827,163.86001570001827,163.86001570001827,163.86001570001827,163.86001570001827,163.86001570001827,164.22628840000834,164.22628840000834,164.22628840000834,164.22628840000834,164.22628840000834,164.22628840000834,164.22628840000834,164.22628840000834,164.22628840000834,23,0,,,164.22628840000834,164.42635890000383,4.9,164.42635890000383,1,4.9,1,1,1000,num_4,0.46662259998265654,,18,11,2026-03-02_11h09.15.203,2026A_exp2,2022.2.4,59.84569386538993,
1000,1,0.0,0.0,0,0,50,50,61,,,,,164.9099189999979,165.54375539999455,165.54375539999455,166.0454321000143,45,45,166.0454321000143,166.0454321000143,166.0454321000143,166.0454321000143,166.0454321000143,166.0454321000143,166.0454321000143,166.0454321000143,166.0454321000143,166.4116108000162,166.4116108000162,166.4116108000162,166.4116108000162,166.4116108000162,166.4116108000162,166.4116108000162,166.4116108000162,166.4116108000162,23,0,,,166.4116108000162,166.61189880000893,1000,166.61189880000893,1000,1000,1000,1000,1,num_2,2.400952900003176,,18,11,2026-03-02_11h09.15.203,2026A_exp2,2022.2.4,59.84569386538993,
1000,1,4.9,0.0,0,0,51,51,58,,,,,169.03076449999935,169.66487090001465,169.66487090001465,170.16582170000765,315,315,170.16582170000765,170.16582170000765,170.16582170000765,170.16582170000765,170.16582170000765,170.16582170000765,170.16582170000765,170.16582170000765,170.16582170000765,170.5320932000177,170.5320932000177,170.5320932000177,170.5320932000177,170.5320932000177,170.5320932000177,170.5320932000177,170.5320932000177,170.5320932000177,23,0,,,170.5320932000177,170.73257469999953,1000,170.73257469999953,1000,1000,1000,1000,0,num_3,0.7125435000052676,,18,11,2026-03-02_11h09.15.203,2026A_exp2,2022.2.4,59.84569386538993,
1000,1,0.0,4.9,1,0,52,52,51,,,,,171.46683030002168,172.11757230001967,172.11757230001967,172.6185000000114,315,315,172.6185000000114,172.6185000000114,172.6185000000114,172.6185000000114,172.6185000000114,172.6185000000114,172.6185000000114,172.6185000000114,172.6185000000114,172.968668800022,172.968668800022,172.968668800022,172.968668800022,172.968668800022,172.968668800022,172.968668800022,172.968668800022,172.968668800022,22,0,,,172.968668800022,173.16892820000066,1000,173.1851225999999,1000,1000,1000,1000,1,num_2,0.42748050001682714,,18,11,2026-03-02_11h09.15.203,2026A_exp2,2022.2.4,59.84569386538993,
1000,1,0.0,4.9,0,0,53,53,77,,,,,173.63581560002058,174.28657270001713,174.28657270001713,174.77077400000417,45,45,174.77077400000417,174.77077400000417,174.77077400000417,174.77077400000417,174.77077400000417,174.77077400000417,174.77077400000417,174.77077400000417,174.77077400000417,175.13725060000434,175.13725060000434,175.13725060000434,175.13725060000434,175.13725060000434,175.13725060000434,175.13725060000434,175.13725060000434,175.13725060000434,23,0,,,175.13725060000434,175.3394918999984,1000,175.3394918999984,1000,1000,1000,1000,1,num_2,0.41788540000561625,,18,11,2026-03-02_11h09.15.203,2026A_exp2,2022.2.4,59.84569386538993,
1000,1,3.7,0.0,1,0,54,54,79,,,,,175.78782409999985,176.4382252000214,176.4382252000214,176.93943690002197,315,315,176.93943690002197,176.93943690002197,176.93943690002197,176.93943690002197,176.93943690002197,176.93943690002197,176.93943690002197,176.93943690002197,176.93943690002197,177.2892201000068,177.2892201000068,177.2892201000068,177.2892201000068,177.2892201000068,177.2892201000068,177.2892201000068,177.2892201000068,177.2892201000068,22,0,,,177.2892201000068,177.48960430000443,1000,177.5059761000157,1000,1000,1000,1000,1,num_2,0.29135040001710877,,18,11,2026-03-02_11h09.15.203,2026A_exp2,2022.2.4,59.84569386538993,
1000,1,0.0,0.0,1,0,55,55,47,,,,,177.82332029999816,178.47545520000858,178.47545520000858,178.9748104000173,315,315,178.9748104000173,178.9748104000173,178.9748104000173,178.9748104000173,178.9748104000173,178.9748104000173,178.9748104000173,178.9748104000173,178.9748104000173,179.32478650001576,179.32478650001576,179.32478650001576,179.32478650001576,179.32478650001576,179.32478650001576,179.32478650001576,179.32478650001576,179.32478650001576,22,0,,,179.32478650001576,179.5248508999939,1000,179.54140020001796,1000,1000,1000,1000,1,num_2,0.47948410001117736,,18,11,2026-03-02_11h09.15.203,2026A_exp2,2022.2.4,59.84569386538993,
1000,1,6.1,3.7,0,0,56,56,87,,,,,180.04207160000806,180.69268390000798,180.69268390000798,181.17751490001683,45,315,181.17751490001683,181.17751490001683,181.17751490001683,181.17751490001683,181.17751490001683,181.17751490001683,181.17751490001683,181.17751490001683,181.17751490001683,181.54314449999947,181.54314449999947,181.54314449999947,181.54314449999947,181.54314449999947,181.54314449999947,181.54314449999947,181.54314449999947,181.54314449999947,23,0,,,181.54314449999947,181.74454030001652,1000,181.7603589000064,1000,1000,1000,1000,0,num_3,0.3728115000121761,,18,11,2026-03-02_11h09.15.203,2026A_exp2,2022.2.4,59.84569386538993,
1000,1,4.9,3.7,1,0,57,57,67,,,,,182.1609870000102,182.81168800001615,182.81168800001615,183.2963811000227,315,45,183.2963811000227,183.2963811000227,183.2963811000227,183.2963811000227,183.2963811000227,183.2963811000227,183.2963811000227,183.2963811000227,183.2963811000227,183.67879870001343,183.67879870001343,183.67879870001343,183.67879870001343,183.67879870001343,183.67879870001343,183.67879870001343,183.67879870001343,183.67879870001343,24,0,,,183.67879870001343,183.87913099999423,1000,183.87913099999423,1000,1000,1000,1000,1,num_2,0.31767379998927936,,18,11,2026-03-02_11h09.15.203,2026A_exp2,2022.2.4,59.84569386538993,
1,0,4.9,0.0,0,0,58,58,48,,,,,184.21368760001496,184.8636206999945,184.8636206999945,185.3480068000208,315,315,185.3480068000208,185.3480068000208,185.3480068000208,185.3480068000208,185.3480068000208,185.3480068000208,185.3480068000208,185.3480068000208,185.3480068000208,185.71421200002078,185.71421200002078,185.71421200002078,185.71421200002078,185.71421200002078,185.71421200002078,185.71421200002078,185.71421200002078,185.71421200002078,23,0,,,185.71421200002078,185.91451170001528,4.9,185.91451170001528,1,4.9,1,1,1000,num_4,0.3152295000036247,,18,11,2026-03-02_11h09.15.203,2026A_exp2,2022.2.4,59.84569386538993,
1,0,4.9,6.1,1,0,59,59,46,,,,,186.2480310999963,186.89915320000728,186.89915320000728,187.40037220000522,315,45,187.40037220000522,187.40037220000522,187.40037220000522,187.40037220000522,187.40037220000522,187.40037220000522,187.40037220000522,187.40037220000522,187.40037220000522,187.76639070000965,187.76639070000965,187.76639070000965,187.76639070000965,187.76639070000965,187.76639070000965,187.76639070000965,187.76639070000965,187.76639070000965,23,0,,,187.76639070000965,187.9665595999977,6.1,187.9665595999977,1,6.1,1,1,1000,num_4,0.2941036999982316,,18,11,2026-03-02_11h09.15.203,2026A_exp2,2022.2.4,59.84569386538993,
0,0,0.0,6.1,1,0,60,60,76,,,,,188.28339419999975,188.93419470000663,188.93419470000663,189.41842200001702,315,315,189.41842200001702,189.41842200001702,189.41842200001702,189.41842200001702,189.41842200001702,189.41842200001702,189.41842200001702,189.41842200001702,189.41842200001702,189.78533110002172,189.78533110002172,189.78533110002172,189.78533110002172,189.78533110002172,189.78533110002172,189.78533110002172,189.78533110002172,189.78533110002172,23,0,,,189.78533110002172,189.98564719999558,0.0,189.98564719999558,0,0.0,0,1,1000,num_1,1.275713299983181,,18,11,2026-03-02_11h09.15.203,2026A_exp2,2022.2.4,59.84569386538993,
1,0,0.0,6.1,0,0,61,61,68,,,,,191.28711490001297,191.93718040001113,191.93718040001113,192.43876590000582,45,45,192.43876590000582,192.43876590000582,192.43876590000582,192.43876590000582,192.43876590000582,192.43876590000582,192.43876590000582,192.43876590000582,192.43876590000582,192.8045809000032,192.8045809000032,192.8045809000032,192.8045809000032,192.8045809000032,192.8045809000032,192.8045809000032,192.8045809000032,192.8045809000032,23,0,,,192.8045809000032,193.00463370000944,0.0,193.00463370000944,0,0.0,0,1,1000,num_1,0.5359689999895636,,18,11,2026-03-02_11h09.15.203,2026A_exp2,2022.2.4,59.84569386538993,
1,0,3.7,4.9,1,0,62,62,39,,,,,193.57265620000544,194.20619500000612,194.20619500000612,194.70738020000863,45,45,194.70738020000863,194.70738020000863,194.70738020000863,194.70738020000863,194.70738020000863,194.70738020000863,194.70738020000863,194.70738020000863,194.70738020000863,195.0736945999961,195.0736945999961,195.0736945999961,195.0736945999961,195.0736945999961,195.0736945999961,195.0736945999961,195.0736945999961,195.0736945999961,23,0,,,195.0736945999961,195.27422580000712,4.9,195.27422580000712,1,4.9,1,1,1000,num_4,0.2674109000072349,,18,11,2026-03-02_11h09.15.203,2026A_exp2,2022.2.4,59.84569386538993,
1,0,0.0,0.0,1,0,63,63,37,,,,,195.55771449999884,196.20833019999554,196.20833019999554,196.69248130000778,315,315,196.69248130000778,196.69248130000778,196.69248130000778,196.69248130000778,196.69248130000778,196.69248130000778,196.69248130000778,196.69248130000778,196.69248130000778,197.07559839999885,197.07559839999885,197.07559839999885,197.07559839999885,197.07559839999885,197.07559839999885,197.07559839999885,197.07559839999885,197.07559839999885,24,0,,,197.07559839999885,197.27605240000412,0.0,197.27605240000412,0,0.0,0,1,1000,num_1,0.9126359000219963,,18,11,2026-03-02_11h09.15.203,2026A_exp2,2022.2.4,59.84569386538993,
1,0,0.0,0.0,0,0,64,64,64,,,,,198.21009979999508,198.84417240001494,198.84417240001494,199.3452240000188,315,315,199.3452240000188,199.3452240000188,199.3452240000188,199.3452240000188,199.3452240000188,199.3452240000188,199.3452240000188,199.3452240000188,199.3452240000188,199.71155420001014,199.71155420001014,199.71155420001014,199.71155420001014,199.71155420001014,199.71155420001014,199.71155420001014,199.71155420001014,199.71155420001014,23,0,,,199.71155420001014,199.91184119999525,0.0,199.91184119999525,0,0.0,0,1,1000,num_1,0.3889128000009805,,18,11,2026-03-02_11h09.15.203,2026A_exp2,2022.2.4,59.84569386538993,
1000,1,6.1,0.0,0,0,65,65,19,,,,,200.328889299999,200.96281810000073,200.96281810000073,201.46408269999665,45,45,201.46408269999665,201.46408269999665,201.46408269999665,201.46408269999665,201.46408269999665,201.46408269999665,201.46408269999665,201.46408269999665,201.46408269999665,201.83066110001528,201.83066110001528,201.83066110001528,201.83066110001528,201.83066110001528,201.83066110001528,201.83066110001528,201.83066110001528,201.83066110001528,23,0,,,201.83066110001528,202.03068330002134,1000,202.03068330002134,1000,1000,1000,1000,0,num_3,0.8223925999773201,,18,11,2026-03-02_11h09.15.203,2026A_exp2,2022.2.4,59.84569386538993,
1,0,0.0,4.9,0,0,66,66,71,,,,,202.88247000001138,203.5322955000156,203.5322955000156,204.03327420001733,315,315,204.03327420001733,204.03327420001733,204.03327420001733,204.03327420001733,204.03327420001733,204.03327420001733,204.03327420001733,204.03327420001733,204.03327420001733,204.38324710002053,204.38324710002053,204.38324710002053,204.38324710002053,204.38324710002053,204.38324710002053,204.38324710002053,204.38324710002053,204.38324710002053,22,0,,,204.38324710002053,204.58304430000135,0.0,204.5998655000003,0,0.0,0,1,1000,num_1,0.6287891000101808,,18,11,2026-03-02_11h09.15.203,2026A_exp2,2022.2.4,59.84569386538993,
1000,1,0.0,0.0,0,0,67,67,69,,,,,205.25046280000242,205.88448760000756,205.88448760000756,206.38533260000986,45,45,206.38533260000986,206.38533260000986,206.38533260000986,206.38533260000986,206.38533260000986,206.38533260000986,206.38533260000986,206.38533260000986,206.38533260000986,206.75209680001717,206.75209680001717,206.75209680001717,206.75209680001717,206.75209680001717,206.75209680001717,206.75209680001717,206.75209680001717,206.75209680001717,23,0,,,206.75209680001717,206.95460710002226,1000,206.95460710002226,1000,1000,1000,1000,1,num_2,0.7386155999847688,,18,11,2026-03-02_11h09.15.203,2026A_exp2,2022.2.4,59.84569386538993,
1000,1,4.9,4.9,0,0,68,68,31,,,,,207.719702900009,208.35382810002193,208.35382810002193,208.85485130001325,315,45,208.85485130001325,208.85485130001325,208.85485130001325,208.85485130001325,208.85485130001325,208.85485130001325,208.85485130001325,208.85485130001325,208.85485130001325,209.22101110001677,209.22101110001677,209.22101110001677,209.22101110001677,209.22101110001677,209.22101110001677,209.22101110001677,209.22101110001677,209.22101110001677,23,0,,,209.22101110001677,209.42397960001836,1000,209.42397960001836,1000,1000,1000,1000,0,num_3,0.42891689998214133,,18,11,2026-03-02_11h09.15.203,2026A_exp2,2022.2.4,59.84569386538993,
1,0,0.0,3.7,0,0,69,69,12,,,,,209.87188190000597,210.50572489999468,210.50572489999468,211.00696420000168,45,45,211.00696420000168,211.00696420000168,211.00696420000168,211.00696420000168,211.00696420000168,211.00696420000168,211.00696420000168,211.00696420000168,211.00696420000168,211.37345660000574,211.37345660000574,211.37345660000574,211.37345660000574,211.37345660000574,211.37345660000574,211.37345660000574,211.37345660000574,211.37345660000574,23,0,,,211.37345660000574,211.57411950000096,0.0,211.57411950000096,0,0.0,0,1,1000,num_1,0.839440600015223,,18,11,2026-03-02_11h09.15.203,2026A_exp2,2022.2.4,59.84569386538993,
1000,1,0.0,0.0,1,0,70,70,23,,,,,212.440980400017,213.07511840001098,213.07511840001098,213.57644220002112,315,315,213.57644220002112,213.57644220002112,213.57644220002112,213.57644220002112,213.57644220002112,213.57644220002112,213.57644220002112,213.57644220002112,213.57644220002112,213.9437603999977,213.9437603999977,213.9437603999977,213.9437603999977,213.9437603999977,213.9437603999977,213.9437603999977,213.9437603999977,213.9437603999977,23,0,,,213.9437603999977,214.14432370002032,1000,214.14432370002032,1000,1000,1000,1000,1,num_2,0.5819868000107817,,18,11,2026-03-02_11h09.15.203,2026A_exp2,2022.2.4,59.84569386538993,
1000,1,4.9,0.0,1,0,71,71,72,,,,,214.74411590001546,215.39442090000375,215.39442090000375,215.8952060000156,45,315,215.8952060000156,215.8952060000156,215.8952060000156,215.8952060000156,215.8952060000156,215.8952060000156,215.8952060000156,215.8952060000156,215.8952060000156,216.26227380000637,216.26227380000637,216.26227380000637,216.26227380000637,216.26227380000637,216.26227380000637,216.26227380000637,216.26227380000637,216.26227380000637,23,0,,,216.26227380000637,216.46312729999772,1000,216.46312729999772,1000,1000,1000,1000,0,num_3,0.48614729999098927,,18,11,2026-03-02_11h09.15.203,2026A_exp2,2022.2.4,59.84569386538993,
1,0,4.9,6.1,0,0,72,72,15,,,,,216.98057569999946,217.63153430001694,217.63153430001694,218.13079359999392,315,315,218.13079359999392,218.13079359999392,218.13079359999392,218.13079359999392,218.13079359999392,218.13079359999392,218.13079359999392,218.13079359999392,218.13079359999392,218.49741760001052,218.49741760001052,218.49741760001052,218.49741760001052,218.49741760001052,218.49741760001052,218.49741760001052,218.49741760001052,218.49741760001052,23,0,,,218.49741760001052,218.69787550001638,4.9,218.69787550001638,1,4.9,1,1,1000,num_4,0.8430799999914598,,18,11,2026-03-02_11h09.15.203,2026A_exp2,2022.2.4,59.84569386538993,
1,0,0.0,0.0,0,0,73,73,2,,,,,219.56592000002274,220.21599450000213,220.21599450000213,220.7197611000156,315,315,220.7197611000156,220.7197611000156,220.7197611000156,220.7197611000156,220.7197611000156,220.7197611000156,220.7197611000156,220.7197611000156,220.7197611000156,221.0675082000089,221.0675082000089,221.0675082000089,221.0675082000089,221.0675082000089,221.0675082000089,221.0675082000089,221.0675082000089,221.0675082000089,22,0,,,221.0675082000089,221.26757409999846,0.0,221.26757409999846,0,0.0,0,1,1000,num_1,0.37748690001899377,,18,11,2026-03-02_11h09.15.203,2026A_exp2,2022.2.4,59.84569386538993,
1,0,0.0,4.9,0,0,74,74,17,,,,,221.6679529999965,222.30102760001319,222.30102760001319,222.8029887000157,45,315,222.8029887000157,222.8029887000157,222.8029887000157,222.8029887000157,222.8029887000157,222.8029887000157,222.8029887000157,222.8029887000157,222.8029887000157,223.16878060001181,223.16878060001181,223.16878060001181,223.16878060001181,223.16878060001181,223.16878060001181,223.16878060001181,223.16878060001181,223.16878060001181,23,0,,,223.16878060001181,223.3700433000049,0.0,223.3700433000049,0,0.0,0,1,1000,num_1,0.41077210000366904,,18,11,2026-03-02_11h09.15.203,2026A_exp2,2022.2.4,59.84569386538993,
1000,1,0.0,0.0,1,0,75,75,29,,,,,223.80319299999974,224.4531610000122,224.4531610000122,224.93785869999556,45,45,224.93785869999556,224.93785869999556,224.93785869999556,224.93785869999556,224.93785869999556,224.93785869999556,224.93785869999556,224.93785869999556,224.93785869999556,225.30401720001828,225.30401720001828,225.30401720001828,225.30401720001828,225.30401720001828,225.30401720001828,225.30401720001828,225.30401720001828,225.30401720001828,23,0,,,225.30401720001828,225.50518269999884,1000,225.50518269999884,1000,1000,1000,1000,0,num_3,0.724177600000985,,18,11,2026-03-02_11h09.15.203,2026A_exp2,2022.2.4,59.84569386538993,
1,0,4.9,4.9,1,0,76,76,89,,,,,226.2552102000045,226.90594050000072,226.90594050000072,227.3917797000031,45,315,227.3917797000031,227.3917797000031,227.3917797000031,227.3917797000031,227.3917797000031,227.3917797000031,227.3917797000031,227.3917797000031,227.3917797000031,227.77325470000505,227.77325470000505,227.77325470000505,227.77325470000505,227.77325470000505,227.77325470000505,227.77325470000505,227.77325470000505,227.77325470000505,24,0,,,227.77325470000505,227.97328760000528,4.9,227.97328760000528,1,4.9,1,1,1000,num_4,0.711634299979778,,18,11,2026-03-02_11h09.15.203,2026A_exp2,2022.2.4,59.84569386538993,
1000,1,6.1,3.7,1,0,77,77,0,,,,,228.70861120001064,229.35816350000096,229.35816350000096,229.8435984000098,315,315,229.8435984000098,229.8435984000098,229.8435984000098,229.8435984000098,229.8435984000098,229.8435984000098,229.8435984000098,229.8435984000098,229.8435984000098,230.20900880001136,230.20900880001136,230.20900880001136,230.20900880001136,230.20900880001136,230.20900880001136,230.20900880001136,230.20900880001136,230.20900880001136,23,0,,,230.20900880001136,230.41056930000195,1000,230.41056930000195,1000,1000,1000,1000,1,num_2,0.6343434999871533,,18,11,2026-03-02_11h09.15.203,2026A_exp2,2022.2.4,59.84569386538993,
0,0,3.7,4.9,1,0,78,78,3,,,,,231.07747489999747,231.72722470000735,231.72722470000735,232.22833519999404,45,45,232.22833519999404,232.22833519999404,232.22833519999404,232.22833519999404,232.22833519999404,232.22833519999404,232.22833519999404,232.22833519999404,232.22833519999404,232.5954012000002,232.5954012000002,232.5954012000002,232.5954012000002,232.5954012000002,232.5954012000002,232.5954012000002,232.5954012000002,232.5954012000002,23,0,,,232.5954012000002,232.79483410000103,3.7,232.79483410000103,1,3.7,1,1,1000,num_4,1.4588013000029605,,18,11,2026-03-02_11h09.15.203,2026A_exp2,2022.2.4,59.84569386538993,
1,0,3.7,0.0,1,0,79,79,74,,,,,234.27990870000212,234.91373800000292,234.91373800000292,235.41544740000973,315,315,235.41544740000973,235.41544740000973,235.41544740000973,235.41544740000973,235.41544740000973,235.41544740000973,235.41544740000973,235.41544740000973,235.41544740000973,235.78117460000794,235.78117460000794,235.78117460000794,235.78117460000794,235.78117460000794,235.78117460000794,235.78117460000794,235.78117460000794,235.78117460000794,23,0,,,235.78117460000794,235.98224770001252,0.0,235.98224770001252,0,0.0,0,1,1000,num_1,0.5195033999916632,,18,11,2026-03-02_11h09.15.203,2026A_exp2,2022.2.4,59.84569386538993,
1,0,0.0,0.0,0,0,80,80,38,,,,,236.53225940000266,237.18283020000672,237.18283020000672,237.6681638000009,45,315,237.6681638000009,237.6681638000009,237.6681638000009,237.6681638000009,237.6681638000009,237.6681638000009,237.6681638000009,237.6681638000009,237.6681638000009,238.0336983000161,238.0336983000161,238.0336983000161,238.0336983000161,238.0336983000161,238.0336983000161,238.0336983000161,238.0336983000161,238.0336983000161,23,0,,,238.0336983000161,238.23477300000377,0.0,238.23477300000377,0,0.0,0,1,1000,num_1,0.5312242000072729,,18,11,2026-03-02_11h09.15.203,2026A_exp2,2022.2.4,59.84569386538993,
1,0,6.1,3.7,0,0,81,81,26,,,,,238.78475510000135,239.43572660000063,239.43572660000063,239.9370472000155,45,315,239.9370472000155,239.9370472000155,239.9370472000155,239.9370472000155,239.9370472000155,239.9370472000155,239.9370472000155,239.9370472000155,239.9370472000155,240.30246360000456,240.30246360000456,240.30246360000456,240.30246360000456,240.30246360000456,240.30246360000456,240.30246360000456,240.30246360000456,240.30246360000456,23,0,,,240.30246360000456,240.50249189999886,6.1,240.50249189999886,1,6.1,1,1,1000,num_4,0.4708517999970354,,18,11,2026-03-02_11h09.15.203,2026A_exp2,2022.2.4,59.84569386538993,
1,0,0.0,0.0,1,0,82,82,73,,,,,241.00285730001633,241.63729899999453,241.63729899999453,242.13845830000355,315,315,242.13845830000355,242.13845830000355,242.13845830000355,242.13845830000355,242.13845830000355,242.13845830000355,242.13845830000355,242.13845830000355,242.13845830000355,242.50432920001913,242.50432920001913,242.50432920001913,242.50432920001913,242.50432920001913,242.50432920001913,242.50432920001913,242.50432920001913,242.50432920001913,23,0,,,242.50432920001913,242.70452980001573,0.0,242.70452980001573,1,0.0,0,0,1000,num_4,1.0041994000202976,,18,11,2026-03-02_11h09.15.203,2026A_exp2,2022.2.4,59.84569386538993,
1000,1,3.7,6.1,0,0,83,83,28,,,,,243.7389490000205,244.3729160000221,244.3729160000221,244.87475700001232,315,315,244.87475700001232,244.87475700001232,244.87475700001232,244.87475700001232,244.87475700001232,244.87475700001232,244.87475700001232,244.87475700001232,244.87475700001232,245.24046739999903,245.24046739999903,245.24046739999903,245.24046739999903,245.24046739999903,245.24046739999903,245.24046739999903,245.24046739999903,245.24046739999903,23,0,,,245.24046739999903,245.44085949999862,1000,245.44085949999862,1000,1000,1000,1000,1,num_2,1.1399433000187855,,18,11,2026-03-02_11h09.15.203,2026A_exp2,2022.2.4,59.84569386538993,
1,0,4.9,6.1,1,0,84,84,86,,,,,246.6085199000081,247.2591708000109,247.2591708000109,247.7602722000156,45,45,247.7602722000156,247.7602722000156,247.7602722000156,247.7602722000156,247.7602722000156,247.7602722000156,247.7602722000156,247.7602722000156,247.7602722000156,248.11021030001575,248.11021030001575,248.11021030001575,248.11021030001575,248.11021030001575,248.11021030001575,248.11021030001575,248.11021030001575,248.11021030001575,22,0,,,248.11021030001575,248.31112790000043,6.1,248.31112790000043,1,6.1,1,1,1000,num_4,0.5579599999764469,,18,11,2026-03-02_11h09.15.203,2026A_exp2,2022.2.4,59.84569386538993,
1000,1,6.1,0.0,1,0,85,85,60,,,,,248.89431279999553,249.52870290001738,249.52870290001738,250.03007400000934,315,315,250.03007400000934,250.03007400000934,250.03007400000934,250.03007400000934,250.03007400000934,250.03007400000934,250.03007400000934,250.03007400000934,250.03007400000934,250.3958083000034,250.3958083000034,250.3958083000034,250.3958083000034,250.3958083000034,250.3958083000034,250.3958083000034,250.3958083000034,250.3958083000034,23,0,,,250.3958083000034,250.5967352000007,1000,250.5967352000007,1000,1000,1000,1000,0,num_3,0.6559751000022516,,18,11,2026-03-02_11h09.15.203,2026A_exp2,2022.2.4,59.84569386538993,
1,0,4.9,0.0,1,0,86,86,84,,,,,251.280222100002,251.93040790001396,251.93040790001396,252.43161590001546,45,315,252.43161590001546,252.43161590001546,252.43161590001546,252.43161590001546,252.43161590001546,252.43161590001546,252.43161590001546,252.43161590001546,252.43161590001546,252.7814120000112,252.7814120000112,252.7814120000112,252.7814120000112,252.7814120000112,252.7814120000112,252.7814120000112,252.7814120000112,252.7814120000112,22,0,,,252.7814120000112,252.98151640000287,0.0,252.9985035000136,1,0.0,0,0,1000,num_4,0.5509621000092011,,18,11,2026-03-02_11h09.15.203,2026A_exp2,2022.2.4,59.84569386538993,
1000,1,4.9,6.1,1,0,87,87,1,,,,,253.56553399999393,254.2162088000041,254.2162088000041,254.70055930002127,45,45,254.70055930002127,254.70055930002127,254.70055930002127,254.70055930002127,254.70055930002127,254.70055930002127,254.70055930002127,254.70055930002127,254.70055930002127,255.0667985000182,255.0667985000182,255.0667985000182,255.0667985000182,255.0667985000182,255.0667985000182,255.0667985000182,255.0667985000182,255.0667985000182,23,0,,,255.0667985000182,255.26745250000386,1000,255.26745250000386,1000,1000,1000,1000,1,num_2,0.5220354000048246,,18,11,2026-03-02_11h09.15.203,2026A_exp2,2022.2.4,59.84569386538993,
1000,1,3.7,3.7,1,0,88,88,40,,,,,255.81776970002102,256.468486400001,256.468486400001,256.9529023000214,45,315,256.9529023000214,256.9529023000214,256.9529023000214,256.9529023000214,256.9529023000214,256.9529023000214,256.9529023000214,256.9529023000214,256.9529023000214,257.3198127000069,257.3198127000069,257.3198127000069,257.3198127000069,257.3198127000069,257.3198127000069,257.3198127000069,257.3198127000069,257.3198127000069,23,0,,,257.3198127000069,257.51951199999894,1000,257.51951199999894,1000,1000,1000,1000,1,num_2,0.5816614999785088,,18,11,2026-03-02_11h09.15.203,2026A_exp2,2022.2.4,59.84569386538993,
1000,1,0.0,3.7,1,0,89,89,80,,,,,258.12008150000474,258.77081390001695,258.77081390001695,259.2552358999965,45,315,259.2552358999965,259.2552358999965,259.2552358999965,259.2552358999965,259.2552358999965,259.2552358999965,259.2552358999965,259.2552358999965,259.2552358999965,259.62180049999733,259.62180049999733,259.62180049999733,259.62180049999733,259.62180049999733,259.62180049999733,259.62180049999733,259.62180049999733,259.62180049999733,23,0,,,259.62180049999733,259.8218240000133,1000,259.8218240000133,1000,1000,1000,1000,1,num_2,0.46331359999021515,,18,11,2026-03-02_11h09.15.203,2026A_exp2,2022.2.4,59.84569386538993,
,,,,,,,,,,,,,,,,,,,,,,,,,,,,,,,,,,,,,,,,,,,,,,,,,,,,260.31576090000453,,,,,,,
