validity,detectorcomp,contrastCW,contrastCCW,precueCWorCCW,block_80trials.thisRepN,block_80trials.thisTrialN,block_80trials.thisN,block_80trials.thisIndex,etRecord.started,etRecord.stopped,text.started,text.stopped,text_4.started,text_4.stopped,text_6.started,text_6.stopped,oriCW,oriCCW,roi_2.started,grating_UR.started,grating_UL.started,grating_LR.started,grating_LL.started,noise_UR.started,noise_UL.started,noise_LR.started,noise_LL.started,roi_2.stopped,grating_UR.stopped,grating_UL.stopped,grating_LR.stopped,grating_LL.stopped,noise_UR.stopped,noise_UL.stopped,noise_LR.stopped,noise_LL.stopped,outframe,roi_2.numLooks,roi_2.timesOn,roi_2.timesOff,text_2.started,text_2.stopped,probedcontrast,key_resp.started,respdetect,relevantContrast,correctDetect,TorFdetect,respCWorCCW,key_resp.keys,key_resp.rt,feedback_display_.started,participantNo,blockNo,date,expName,psychopyVersion,frameRate,
1000,1,6.1,0.0,1,0,0,0,16,0.00017209997167810798,0.00017209997167810798,55.45696109998971,57.46102190000238,57.46102190000238,58.09364799998002,58.09364799998002,58.6164609999978,45,315,58.6164609999978,58.6164609999978,58.6164609999978,58.6164609999978,58.6164609999978,58.6164609999978,58.6164609999978,58.6164609999978,58.6164609999978,58.961076899955515,58.961076899955515,58.961076899955515,58.961076899955515,58.961076899955515,58.961076899955515,58.961076899955515,58.961076899955515,58.961076899955515,0,1,[0.0014813999878242612],[0.36619380000047386],58.961076899955515,59.165564099967014,1000,59.165564099967014,1000,1000,1000,1000,0,num_3,0.6554711999488063,,27,10,2026-03-05_13h55.22.491,2026A_exp2,2022.2.4,59.9993040097587,
1000,1,4.9,0.0,1,0,1,1,72,,,,,59.84586010000203,60.49580599996261,60.49580599996261,60.99712630000431,45,315,60.99712630000431,60.99712630000431,60.99712630000431,60.99712630000431,60.99712630000431,60.99712630000431,60.99712630000431,60.99712630000431,60.99712630000431,61.363503900007345,61.363503900007345,61.363503900007345,61.363503900007345,61.363503900007345,61.363503900007345,61.363503900007345,61.363503900007345,61.363503900007345,23,0,,,61.363503900007345,61.56560549995629,1000,61.56560549995629,1000,1000,1000,1000,0,num_3,0.488279799988959,,27,10,2026-03-05_13h55.22.491,2026A_exp2,2022.2.4,59.9993040097587,
1,0,4.9,0.0,1,0,2,2,8,,,,,62.08058750000782,62.731436599977314,62.731436599977314,63.23274740000488,45,45,63.23274740000488,63.23274740000488,63.23274740000488,63.23274740000488,63.23274740000488,63.23274740000488,63.23274740000488,63.23274740000488,63.23274740000488,63.58251719997497,63.58251719997497,63.58251719997497,63.58251719997497,63.58251719997497,63.58251719997497,63.58251719997497,63.58251719997497,63.58251719997497,22,0,,,63.58251719997497,63.78255919995718,0.0,63.799388299987186,0,0.0,0,1,1000,num_1,0.6136652000132017,,27,10,2026-03-05_13h55.22.491,2026A_exp2,2022.2.4,59.9993040097587,
1000,1,0.0,4.9,1,0,3,3,59,,,,,64.43323879997479,65.08402529999148,65.08402529999148,65.56841069995426,315,45,65.56841069995426,65.56841069995426,65.56841069995426,65.56841069995426,65.56841069995426,65.56841069995426,65.56841069995426,65.56841069995426,65.56841069995426,65.9346306999796,65.9346306999796,65.9346306999796,65.9346306999796,65.9346306999796,65.9346306999796,65.9346306999796,65.9346306999796,65.9346306999796,4,2,"[0.0012379999971017241, 0.11692360002780333]","[0.049971000000368804, 0.36734870000509545]",65.9346306999796,66.13692979997722,1000,66.13692979997722,1000,1000,1000,1000,1,num_2,0.3961055999970995,,27,10,2026-03-05_13h55.22.491,2026A_exp2,2022.2.4,59.9993040097587,
1,0,6.1,4.9,0,0,4,4,24,,,,,66.55213129997719,67.20264440000756,67.20264440000756,67.70368350000354,45,45,67.70368350000354,67.70368350000354,67.70368350000354,67.70368350000354,67.70368350000354,67.70368350000354,67.70368350000354,67.70368350000354,67.70368350000354,68.07025339995744,68.07025339995744,68.07025339995744,68.07025339995744,68.07025339995744,68.07025339995744,68.07025339995744,68.07025339995744,68.07025339995744,23,0,,,68.07025339995744,68.27041140000802,6.1,68.27041140000802,1,6.1,1,1,1000,num_4,0.6632147000054829,,27,10,2026-03-05_13h55.22.491,2026A_exp2,2022.2.4,59.9993040097587,
1,0,0.0,4.9,0,0,5,5,4,,,,,68.9544387999922,69.60515959997429,69.60515959997429,70.08949250000296,45,45,70.08949250000296,70.08949250000296,70.08949250000296,70.08949250000296,70.08949250000296,70.08949250000296,70.08949250000296,70.08949250000296,70.08949250000296,70.45590050000465,70.45590050000465,70.45590050000465,70.45590050000465,70.45590050000465,70.45590050000465,70.45590050000465,70.45590050000465,70.45590050000465,17,1,[0.14988750003976747],[0.2503132999991067],70.45590050000465,70.65615689998958,0.0,70.65615689998958,0,0.0,0,1,1000,num_1,0.6615396999986842,,27,10,2026-03-05_13h55.22.491,2026A_exp2,2022.2.4,59.9993040097587,
1000,1,0.0,0.0,0,0,6,6,86,,,,,71.3403166999924,71.9797864999855,71.9797864999855,72.48049419996096,315,315,72.48049419996096,72.48049419996096,72.48049419996096,72.48049419996096,72.48049419996096,72.48049419996096,72.48049419996096,72.48049419996096,72.48049419996096,72.84182909998344,72.84182909998344,72.84182909998344,72.84182909998344,72.84182909998344,72.84182909998344,72.84182909998344,72.84182909998344,72.84182909998344,1,2,"[0.002590699994470924, 0.2502144000027329]","[0.23365240002749488, 0.3670871999929659]",72.84182909998344,73.05453999998281,1000,73.05453999998281,1000,1000,1000,1000,0,num_3,0.5105489999987185,,27,10,2026-03-05_13h55.22.491,2026A_exp2,2022.2.4,59.9993040097587,
1000,1,0.0,0.0,0,0,7,7,17,,,,,73.59267300000647,74.24304909998318,74.24304909998318,74.74431479995837,45,45,74.74431479995837,74.74431479995837,74.74431479995837,74.74431479995837,74.74431479995837,74.74431479995837,74.74431479995837,74.74431479995837,74.74431479995837,75.11056949995691,75.11056949995691,75.11056949995691,75.11056949995691,75.11056949995691,75.11056949995691,75.11056949995691,75.11056949995691,75.11056949995691,0,1,[0.0012149999965913594],[0.36732270003994927],75.11056949995691,75.31249509996269,1000,75.31249509996269,1000,1000,1000,1000,0,num_3,0.37998770002741367,,27,10,2026-03-05_13h55.22.491,2026A_exp2,2022.2.4,59.9993040097587,
1000,1,6.1,6.1,1,0,8,8,77,,,,,75.7109392999555,76.34500629996182,76.34500629996182,76.8463361999602,45,45,76.8463361999602,76.8463361999602,76.8463361999602,76.8463361999602,76.8463361999602,76.8463361999602,76.8463361999602,76.8463361999602,76.8463361999602,77.2127376999706,77.2127376999706,77.2127376999706,77.2127376999706,77.2127376999706,77.2127376999706,77.2127376999706,77.2127376999706,77.2127376999706,0,1,[0.001303299970459193],[0.36705120000988245],77.2127376999706,77.41465309995692,1000,77.41465309995692,1000,1000,1000,1000,1,num_2,0.5504666999913752,,27,10,2026-03-05_13h55.22.491,2026A_exp2,2022.2.4,59.9993040097587,
1,0,0.0,6.1,1,0,9,9,36,,,,,77.99665409995941,78.64739329996519,78.64739329996519,79.14865579997422,45,45,79.14865579997422,79.14865579997422,79.14865579997422,79.14865579997422,79.14865579997422,79.14865579997422,79.14865579997422,79.14865579997422,79.14865579997422,79.49836959998356,79.49836959998356,79.49836959998356,79.49836959998356,79.49836959998356,79.49836959998356,79.49836959998356,79.49836959998356,79.49836959998356,22,0,,,79.49836959998356,79.69846889999462,6.1,79.69846889999462,1,6.1,1,1,1000,num_4,0.5865205000154674,,27,10,2026-03-05_13h55.22.491,2026A_exp2,2022.2.4,59.9993040097587,
1,0,0.0,0.0,1,0,10,10,73,,,,,80.31570099998498,80.96646979998332,80.96646979998332,81.45095629995922,45,45,81.45095629995922,81.45095629995922,81.45095629995922,81.45095629995922,81.45095629995922,81.45095629995922,81.45095629995922,81.45095629995922,81.45095629995922,81.81724199996097,81.81724199996097,81.81724199996097,81.81724199996097,81.81724199996097,81.81724199996097,81.81724199996097,81.81724199996097,81.81724199996097,15,2,"[0.10032859997591004, 0.35058639995986596]","[0.21695259999250993, 0.3672509999596514]",81.81724199996097,82.01754799997434,0.0,82.01754799997434,0,0.0,0,1,1000,num_1,0.4676106999977492,,27,10,2026-03-05_13h55.22.491,2026A_exp2,2022.2.4,59.9993040097587,
1000,1,0.0,0.0,1,0,11,11,12,,,,,82.50192740000784,83.15401179995388,83.15401179995388,83.65888669999549,315,315,83.65888669999549,83.65888669999549,83.65888669999549,83.65888669999549,83.65888669999549,83.65888669999549,83.65888669999549,83.65888669999549,83.65888669999549,84.01940170000307,84.01940170000307,84.01940170000307,84.01940170000307,84.01940170000307,84.01940170000307,84.01940170000307,84.01940170000307,84.01940170000307,0,1,[0.002692400012165308],[0.3654984000022523],84.01940170000307,84.21990009996807,1000,84.21990009996807,1000,1000,1000,1000,0,num_3,0.513353799993638,,27,10,2026-03-05_13h55.22.491,2026A_exp2,2022.2.4,59.9993040097587,
1000,1,0.0,0.0,0,0,12,12,74,,,,,84.75348159996793,85.40426819998538,85.40426819998538,85.9052274999558,315,315,85.9052274999558,85.9052274999558,85.9052274999558,85.9052274999558,85.9052274999558,85.9052274999558,85.9052274999558,85.9052274999558,85.9052274999558,86.27153079997515,86.27153079997515,86.27153079997515,86.27153079997515,86.27153079997515,86.27153079997515,86.27153079997515,86.27153079997515,86.27153079997515,23,0,,,86.27153079997515,86.47367909998866,1000,86.47367909998866,1000,1000,1000,1000,0,num_3,0.4276789999566972,,27,10,2026-03-05_13h55.22.491,2026A_exp2,2022.2.4,59.9993040097587,
1,0,0.0,3.7,0,0,13,13,35,,,,,86.92223259998718,87.57310789998155,87.57310789998155,88.07415659999242,45,315,88.07415659999242,88.07415659999242,88.07415659999242,88.07415659999242,88.07415659999242,88.07415659999242,88.07415659999242,88.07415659999242,88.07415659999242,88.44061980000697,88.44061980000697,88.44061980000697,88.44061980000697,88.44061980000697,88.44061980000697,88.44061980000697,88.44061980000697,88.44061980000697,0,1,[0.001258700038306415],[0.36706990003585815],88.44061980000697,88.64087599999039,0.0,88.64087599999039,0,0.0,0,1,1000,num_1,0.6757549000321887,,27,10,2026-03-05_13h55.22.491,2026A_exp2,2022.2.4,59.9993040097587,
1000,1,4.9,0.0,0,0,14,14,54,,,,,89.34143500000937,89.99216619995423,89.99216619995423,90.47658969997428,315,315,90.47658969997428,90.47658969997428,90.47658969997428,90.47658969997428,90.47658969997428,90.47658969997428,90.47658969997428,90.47658969997428,90.47658969997428,90.84294289996615,90.84294289996615,90.84294289996615,90.84294289996615,90.84294289996615,90.84294289996615,90.84294289996615,90.84294289996615,90.84294289996615,23,0,,,90.84294289996615,91.04529529996216,1000,91.04529529996216,1000,1000,1000,1000,0,num_3,0.5605601000133902,,27,10,2026-03-05_13h55.22.491,2026A_exp2,2022.2.4,59.9993040097587,
1000,1,0.0,6.1,1,0,15,15,88,,,,,91.62704150000354,92.2777431999566,92.2777431999566,92.7789278999553,315,45,92.7789278999553,92.7789278999553,92.7789278999553,92.7789278999553,92.7789278999553,92.7789278999553,92.7789278999553,92.7789278999553,92.7789278999553,93.14534889999777,93.14534889999777,93.14534889999777,93.14534889999777,93.14534889999777,93.14534889999777,93.14534889999777,93.14534889999777,93.14534889999777,23,0,,,93.14534889999777,93.34790990001056,1000,93.34790990001056,1000,1000,1000,1000,1,num_2,0.41662040003575385,,27,10,2026-03-05_13h55.22.491,2026A_exp2,2022.2.4,59.9993040097587,
1000,1,0.0,4.9,1,0,16,16,79,,,,,93.79600269999355,94.44654759997502,94.44654759997502,94.94764550001128,45,45,94.94764550001128,94.94764550001128,94.94764550001128,94.94764550001128,94.94764550001128,94.94764550001128,94.94764550001128,94.94764550001128,94.94764550001128,95.29746510001132,95.29746510001132,95.29746510001132,95.29746510001132,95.29746510001132,95.29746510001132,95.29746510001132,95.29746510001132,95.29746510001132,22,0,,,95.29746510001132,95.49983019998763,1000,95.49983019998763,1000,1000,1000,1000,1,num_2,0.3766368999495171,,27,10,2026-03-05_13h55.22.491,2026A_exp2,2022.2.4,59.9993040097587,
1000,1,3.7,0.0,0,0,17,17,57,,,,,95.89796390000265,96.54872299998533,96.54872299998533,97.04988050000975,45,315,97.04988050000975,97.04988050000975,97.04988050000975,97.04988050000975,97.04988050000975,97.04988050000975,97.04988050000975,97.04988050000975,97.04988050000975,97.41626719996566,97.41626719996566,97.41626719996566,97.41626719996566,97.41626719996566,97.41626719996566,97.41626719996566,97.41626719996566,97.41626719996566,0,1,[0.0012067999923601747],[0.367234900011681],97.41626719996566,97.61851679999381,1000,97.61851679999381,1000,1000,1000,1000,0,num_3,0.5949741999502294,,27,10,2026-03-05_13h55.22.491,2026A_exp2,2022.2.4,59.9993040097587,
1000,1,0.0,0.0,1,0,18,18,67,,,,,98.2336653000093,98.88441689999308,98.88441689999308,99.38538549997611,315,45,99.38538549997611,99.38538549997611,99.38538549997611,99.38538549997611,99.38538549997611,99.38538549997611,99.38538549997611,99.38538549997611,99.38538549997611,99.75196129997494,99.75196129997494,99.75196129997494,99.75196129997494,99.75196129997494,99.75196129997494,99.75196129997494,99.75196129997494,99.75196129997494,0,1,[0.0012426000321283937],[0.36716180003713816],99.75196129997494,99.9538263999857,1000,99.9538263999857,1000,1000,1000,1000,0,num_3,0.4351695000077598,,27,10,2026-03-05_13h55.22.491,2026A_exp2,2022.2.4,59.9993040097587,
1,0,3.7,0.0,0,0,19,19,3,,,,,100.41911329998402,101.06993529997999,101.06993529997999,101.5709874999593,315,45,101.5709874999593,101.5709874999593,101.5709874999593,101.5709874999593,101.5709874999593,101.5709874999593,101.5709874999593,101.5709874999593,101.5709874999593,101.9374665999785,101.9374665999785,101.9374665999785,101.9374665999785,101.9374665999785,101.9374665999785,101.9374665999785,101.9374665999785,101.9374665999785,1,1,[0.0013285999884828925],[0.367209299991373],101.9374665999785,102.1377516000066,3.7,102.1377516000066,1,3.7,1,1,1000,num_4,0.68261740001617,,27,10,2026-03-05_13h55.22.491,2026A_exp2,2022.2.4,59.9993040097587,
1,0,0.0,0.0,1,0,20,20,87,,,,,102.8381513999775,103.48900249996223,103.48900249996223,103.97344619996147,45,315,103.97344619996147,103.97344619996147,103.97344619996147,103.97344619996147,103.97344619996147,103.97344619996147,103.97344619996147,103.97344619996147,103.97344619996147,104.33984649996273,104.33984649996273,104.33984649996273,104.33984649996273,104.33984649996273,104.33984649996273,104.33984649996273,104.33984649996273,104.33984649996273,23,0,,,104.33984649996273,104.54003380000358,0.0,104.54003380000358,0,0.0,0,1,1000,num_1,0.609393100021407,,27,10,2026-03-05_13h55.22.491,2026A_exp2,2022.2.4,59.9993040097587,
1000,1,3.7,4.9,1,0,21,21,43,,,,,105.17385879997164,105.82470219995594,105.82470219995594,106.30914179998217,45,45,106.30914179998217,106.30914179998217,106.30914179998217,106.30914179998217,106.30914179998217,106.30914179998217,106.30914179998217,106.30914179998217,106.30914179998217,106.67553509998834,106.67553509998834,106.67553509998834,106.67553509998834,106.67553509998834,106.67553509998834,106.67553509998834,106.67553509998834,106.67553509998834,0,1,[0.0012596999877132475],[0.3671535999746993],106.67553509998834,106.87763349997113,1000,106.87763349997113,1000,1000,1000,1000,0,num_3,0.5437177999992855,,27,10,2026-03-05_13h55.22.491,2026A_exp2,2022.2.4,59.9993040097587,
1000,1,3.7,0.0,0,0,22,22,2,,,,,107.44354839995503,108.09947769995779,108.09947769995779,108.60448639997048,315,315,108.60448639997048,108.60448639997048,108.60448639997048,108.60448639997048,108.60448639997048,108.60448639997048,108.60448639997048,108.60448639997048,108.60448639997048,108.96113249997143,108.96113249997143,108.96113249997143,108.96113249997143,108.96113249997143,108.96113249997143,108.96113249997143,108.96113249997143,108.96113249997143,7,3,"[0.0033722000080160797, 0.18191250000381842, 0.34834190004039556]","[0.13190330000361428, 0.28165760001866147, 0.365143800037913]",108.96113249997143,109.1629729999695,1000,109.1629729999695,1000,1000,1000,1000,0,num_3,0.41849279997404665,,27,10,2026-03-05_13h55.22.491,2026A_exp2,2022.2.4,59.9993040097587,
1000,1,0.0,0.0,0,0,23,23,85,,,,,109.61186539998744,110.26252299995394,110.26252299995394,110.76357289997395,315,315,110.76357289997395,110.76357289997395,110.76357289997395,110.76357289997395,110.76357289997395,110.76357289997395,110.76357289997395,110.76357289997395,110.76357289997395,111.12999879999552,111.12999879999552,111.12999879999552,111.12999879999552,111.12999879999552,111.12999879999552,111.12999879999552,111.12999879999552,111.12999879999552,6,3,"[0.001243600039742887, 0.03344760002801195, 0.31687919999239966]","[0.017285000008996576, 0.2670545000000857, 0.349913900019601]",111.12999879999552,111.33228049997706,1000,111.33228049997706,1000,1000,1000,1000,0,num_3,0.5132220999803394,,27,10,2026-03-05_13h55.22.491,2026A_exp2,2022.2.4,59.9993040097587,
1,0,6.1,0.0,0,0,24,24,56,,,,,111.86389089998556,112.51464169996325,112.51464169996325,113.01591610000469,315,45,113.01591610000469,113.01591610000469,113.01591610000469,113.01591610000469,113.01591610000469,113.01591610000469,113.01591610000469,113.01591610000469,113.01591610000469,113.38222609995864,113.38222609995864,113.38222609995864,113.38222609995864,113.38222609995864,113.38222609995864,113.38222609995864,113.38222609995864,113.38222609995864,0,1,[0.0012204000377096236],[0.3673928999924101],113.38222609995864,113.58248509996338,6.1,113.58248509996338,1,6.1,1,1,1000,num_4,0.6144141999538988,,27,10,2026-03-05_13h55.22.491,2026A_exp2,2022.2.4,59.9993040097587,
1000,1,0.0,0.0,0,0,25,25,64,,,,,114.21624199999496,114.8671505000093,114.8671505000093,115.36120330000995,45,45,115.36120330000995,115.36120330000995,115.36120330000995,115.36120330000995,115.36120330000995,115.36120330000995,115.36120330000995,115.36120330000995,115.36120330000995,115.71797419997165,115.71797419997165,115.71797419997165,115.71797419997165,115.71797419997165,115.71797419997165,115.71797419997165,115.71797419997165,115.71797419997165,23,0,,,115.71797419997165,115.92773249995662,1000,115.92773249995662,1000,1000,1000,1000,0,num_3,0.39794830000028014,,27,10,2026-03-05_13h55.22.491,2026A_exp2,2022.2.4,59.9993040097587,
1,0,0.0,4.9,1,0,26,26,53,,,,,116.35175450000679,117.00251449999632,117.00251449999632,117.50360759999603,45,45,117.50360759999603,117.50360759999603,117.50360759999603,117.50360759999603,117.50360759999603,117.50360759999603,117.50360759999603,117.50360759999603,117.50360759999603,117.8533991999575,117.8533991999575,117.8533991999575,117.8533991999575,117.8533991999575,117.8533991999575,117.8533991999575,117.8533991999575,117.8533991999575,5,5,"[0.0013487000251188874, 0.06688630004646257, 0.10029430000577122, 0.15037330001359805, 0.3337642000406049]","[0.05007040000054985, 0.08348380000097677, 0.13354850001633167, 0.3005039000418037, 0.35066789999837056]",117.8533991999575,118.05350429995451,4.9,118.07029199996032,1,4.9,1,1,1000,num_4,0.6392256999970414,,27,10,2026-03-05_13h55.22.491,2026A_exp2,2022.2.4,59.9993040097587,
1,0,0.0,0.0,0,0,27,27,1,,,,,118.73750339995604,119.38821349997306,119.38821349997306,119.8726619000081,315,315,119.8726619000081,119.8726619000081,119.8726619000081,119.8726619000081,119.8726619000081,119.8726619000081,119.8726619000081,119.8726619000081,119.8726619000081,120.23906920000445,120.23906920000445,120.23906920000445,120.23906920000445,120.23906920000445,120.23906920000445,120.23906920000445,120.23906920000445,120.23906920000445,17,4,"[0.11652959999628365, 0.20020339998882264, 0.2494091999833472, 0.31639990000985563]","[0.13349859998561442, 0.23356100003002211, 0.28292780002811924, 0.3334273000364192]",120.23906920000445,120.43925539997872,0.0,120.43925539997872,1,0.0,0,0,1000,num_4,0.5500193999614567,,27,10,2026-03-05_13h55.22.491,2026A_exp2,2022.2.4,59.9993040097587,
1000,1,0.0,6.1,0,0,28,28,9,,,,,121.00626699998975,121.65716209996026,121.65716209996026,122.1415907999617,45,315,122.1415907999617,122.1415907999617,122.1415907999617,122.1415907999617,122.1415907999617,122.1415907999617,122.1415907999617,122.1415907999617,122.1415907999617,122.50791669997852,122.50791669997852,122.50791669997852,122.50791669997852,122.50791669997852,122.50791669997852,122.50791669997852,122.50791669997852,122.50791669997852,10,4,"[0.001247699954546988, 0.14999869995517656, 0.21680900000501424, 0.36678759998176247]","[0.1332210999680683, 0.18349789996864274, 0.25016679998952895, 0.3667922999593429]",122.50791669997852,122.7102648,1000,122.7102648,1000,1000,1000,1000,1,num_2,0.34244109998689964,,27,10,2026-03-05_13h55.22.491,2026A_exp2,2022.2.4,59.9993040097587,
0,0,4.9,0.0,1,0,29,29,25,,,,,123.07522020000033,123.7259099999792,123.7259099999792,124.22687499999302,315,315,124.22687499999302,124.22687499999302,124.22687499999302,124.22687499999302,124.22687499999302,124.22687499999302,124.22687499999302,124.22687499999302,124.22687499999302,124.57691750000231,124.57691750000231,124.57691750000231,124.57691750000231,124.57691750000231,124.57691750000231,124.57691750000231,124.57691750000231,124.57691750000231,22,0,,,124.57691750000231,124.77690479997545,4.9,124.79366229998413,1,4.9,1,1,1000,num_4,0.4597156000090763,,27,10,2026-03-05_13h55.22.491,2026A_exp2,2022.2.4,59.9993040097587,
1,0,0.0,6.1,1,0,30,30,40,,,,,125.27724109997507,125.92806209996343,125.92806209996343,126.41243579995353,315,315,126.41243579995353,126.41243579995353,126.41243579995353,126.41243579995353,126.41243579995353,126.41243579995353,126.41243579995353,126.41243579995353,126.41243579995353,126.77892229997087,126.77892229997087,126.77892229997087,126.77892229997087,126.77892229997087,126.77892229997087,126.77892229997087,126.77892229997087,126.77892229997087,3,4,"[0.001209600013680756, 0.05032680003205314, 0.11701039999024943, 0.14971530000912026]","[0.01734070002567023, 0.0836360999965109, 0.13332979998085648, 0.3673179000033997]",126.77892229997087,126.97918419999769,6.1,126.97918419999769,1,6.1,1,1,1000,num_4,0.44229530001757666,,27,10,2026-03-05_13h55.22.491,2026A_exp2,2022.2.4,59.9993040097587,
0,0,0.0,0.0,1,0,31,31,71,,,,,127.44612350000534,128.09699099999852,128.09699099999852,128.58139469998423,45,45,128.58139469998423,128.58139469998423,128.58139469998423,128.58139469998423,128.58139469998423,128.58139469998423,128.58139469998423,128.58139469998423,128.58139469998423,128.94779589999234,128.94779589999234,128.94779589999234,128.94779589999234,128.94779589999234,128.94779589999234,128.94779589999234,128.94779589999234,128.94779589999234,23,0,,,128.94779589999234,129.14784509997116,0.0,129.14784509997116,0,0.0,0,1,1000,num_1,0.8412851999746636,,27,10,2026-03-05_13h55.22.491,2026A_exp2,2022.2.4,59.9993040097587,
1,0,0.0,0.0,0,0,32,32,29,,,,,130.01534759998322,130.66615279996768,130.66615279996768,131.1504860999994,45,45,131.1504860999994,131.1504860999994,131.1504860999994,131.1504860999994,131.1504860999994,131.1504860999994,131.1504860999994,131.1504860999994,131.1504860999994,131.51700379996328,131.51700379996328,131.51700379996328,131.51700379996328,131.51700379996328,131.51700379996328,131.51700379996328,131.51700379996328,131.51700379996328,23,0,,,131.51700379996328,131.71727560000727,0.0,131.71727560000727,1,0.0,0,0,1000,num_4,0.6875970999826677,,27,10,2026-03-05_13h55.22.491,2026A_exp2,2022.2.4,59.9993040097587,
1000,1,0.0,0.0,0,0,33,33,83,,,,,132.4344542999752,133.08525830000872,133.08525830000872,133.5697771999985,315,45,133.5697771999985,133.5697771999985,133.5697771999985,133.5697771999985,133.5697771999985,133.5697771999985,133.5697771999985,133.5697771999985,133.5697771999985,133.93610669998452,133.93610669998452,133.93610669998452,133.93610669998452,133.93610669998452,133.93610669998452,133.93610669998452,133.93610669998452,133.93610669998452,23,0,,,133.93610669998452,134.13824709999608,1000,134.13824709999608,1000,1000,1000,1000,0,num_3,0.5152611000230536,,27,10,2026-03-05_13h55.22.491,2026A_exp2,2022.2.4,59.9993040097587,
1,0,3.7,0.0,1,0,34,34,50,,,,,134.6703034999664,135.32088409998687,135.32088409998687,135.82195319997845,45,45,135.82195319997845,135.82195319997845,135.82195319997845,135.82195319997845,135.82195319997845,135.82195319997845,135.82195319997845,135.82195319997845,135.82195319997845,136.1882864999934,136.1882864999934,136.1882864999934,136.1882864999934,136.1882864999934,136.1882864999934,136.1882864999934,136.1882864999934,136.1882864999934,23,0,,,136.1882864999934,136.38854129996616,0.0,136.38854129996616,0,0.0,0,1,1000,num_1,0.48098819999722764,,27,10,2026-03-05_13h55.22.491,2026A_exp2,2022.2.4,59.9993040097587,
1000,1,0.0,0.0,0,0,35,35,80,,,,,136.88884410000173,137.53969730000244,137.53969730000244,138.02416460000677,45,45,138.02416460000677,138.02416460000677,138.02416460000677,138.02416460000677,138.02416460000677,138.02416460000677,138.02416460000677,138.02416460000677,138.02416460000677,138.39037449995521,138.39037449995521,138.39037449995521,138.39037449995521,138.39037449995521,138.39037449995521,138.39037449995521,138.39037449995521,138.39037449995521,23,0,,,138.39037449995521,138.59248940000543,1000,138.59248940000543,1000,1000,1000,1000,0,num_3,0.47611370001686737,,27,10,2026-03-05_13h55.22.491,2026A_exp2,2022.2.4,59.9993040097587,
1000,1,6.1,0.0,0,0,36,36,82,,,,,139.0912079999689,139.74199439998483,139.74199439998483,140.2439982999931,315,315,140.2439982999931,140.2439982999931,140.2439982999931,140.2439982999931,140.2439982999931,140.2439982999931,140.2439982999931,140.2439982999931,140.2439982999931,140.6094238999649,140.6094238999649,140.6094238999649,140.6094238999649,140.6094238999649,140.6094238999649,140.6094238999649,140.6094238999649,140.6094238999649,22,1,[0.349591700010933],[0.36625399999320507],140.6094238999649,140.81135119998362,1000,140.81135119998362,1000,1000,1000,1000,0,num_3,0.4572471000137739,,27,10,2026-03-05_13h55.22.491,2026A_exp2,2022.2.4,59.9993040097587,
0,0,0.0,3.7,1,0,37,37,10,,,,,141.29330889997073,141.9440692999633,141.9440692999633,142.4451036999817,315,45,142.4451036999817,142.4451036999817,142.4451036999817,142.4451036999817,142.4451036999817,142.4451036999817,142.4451036999817,142.4451036999817,142.4451036999817,142.81166730000405,142.81166730000405,142.81166730000405,142.81166730000405,142.81166730000405,142.81166730000405,142.81166730000405,142.81166730000405,142.81166730000405,23,0,,,142.81166730000405,143.01176540000597,0.0,143.01176540000597,0,0.0,0,1,1000,num_1,0.7373573000077158,,27,10,2026-03-05_13h55.22.491,2026A_exp2,2022.2.4,59.9993040097587,
0,0,0.0,0.0,1,0,38,38,89,,,,,143.77908929996192,144.42989410000155,144.42989410000155,144.91398249997292,315,45,144.91398249997292,144.91398249997292,144.91398249997292,144.91398249997292,144.91398249997292,144.91398249997292,144.91398249997292,144.91398249997292,144.91398249997292,145.28058849996887,145.28058849996887,145.28058849996887,145.28058849996887,145.28058849996887,145.28058849996887,145.28058849996887,145.28058849996887,145.28058849996887,23,0,,,145.28058849996887,145.4808565999847,0.0,145.4808565999847,1,0.0,0,0,1000,num_4,0.58845989999827,,27,10,2026-03-05_13h55.22.491,2026A_exp2,2022.2.4,59.9993040097587,
1000,1,0.0,0.0,1,0,39,39,33,,,,,146.09816549997777,146.74915309995413,146.74915309995413,147.2332507999963,315,315,147.2332507999963,147.2332507999963,147.2332507999963,147.2332507999963,147.2332507999963,147.2332507999963,147.2332507999963,147.2332507999963,147.2332507999963,147.59980570001062,147.59980570001062,147.59980570001062,147.59980570001062,147.59980570001062,147.59980570001062,147.59980570001062,147.59980570001062,147.59980570001062,23,0,,,147.59980570001062,147.80213349999394,1000,147.80213349999394,1000,1000,1000,1000,0,num_3,0.45059139997465536,,27,10,2026-03-05_13h55.22.491,2026A_exp2,2022.2.4,59.9993040097587,
1000,1,4.9,0.0,1,0,40,40,5,,,,,148.28373049997026,148.9343036999926,148.9343036999926,149.43549469998106,45,45,149.43549469998106,149.43549469998106,149.43549469998106,149.43549469998106,149.43549469998106,149.43549469998106,149.43549469998106,149.43549469998106,149.43549469998106,149.78529989998788,149.78529989998788,149.78529989998788,149.78529989998788,149.78529989998788,149.78529989998788,149.78529989998788,149.78529989998788,149.78529989998788,22,0,,,149.78529989998788,149.9872162999818,1000,149.9872162999818,1000,1000,1000,1000,0,num_3,0.48937679996015504,,27,10,2026-03-05_13h55.22.491,2026A_exp2,2022.2.4,59.9993040097587,
1,0,3.7,3.7,0,0,41,41,13,,,,,150.5027119999868,151.15323999995599,151.15323999995599,151.6376297000097,315,315,151.6376297000097,151.6376297000097,151.6376297000097,151.6376297000097,151.6376297000097,151.6376297000097,151.6376297000097,151.6376297000097,151.6376297000097,152.00405029999092,152.00405029999092,152.00405029999092,152.00405029999092,152.00405029999092,152.00405029999092,152.00405029999092,152.00405029999092,152.00405029999092,23,0,,,152.00405029999092,152.20438019995345,3.7,152.20438019995345,0,3.7,1,0,1000,num_1,0.8246376999886706,,27,10,2026-03-05_13h55.22.491,2026A_exp2,2022.2.4,59.9993040097587,
1,0,0.0,6.1,0,0,42,42,34,,,,,153.05500880000181,153.7057499999646,153.7057499999646,154.19018679996952,45,315,154.19018679996952,154.19018679996952,154.19018679996952,154.19018679996952,154.19018679996952,154.19018679996952,154.19018679996952,154.19018679996952,154.19018679996952,154.55652899999404,154.55652899999404,154.55652899999404,154.55652899999404,154.55652899999404,154.55652899999404,154.55652899999404,154.55652899999404,154.55652899999404,23,0,,,154.55652899999404,154.75700019998476,0.0,154.75700019998476,0,0.0,0,1,1000,num_1,0.6086477999924682,,27,10,2026-03-05_13h55.22.491,2026A_exp2,2022.2.4,59.9993040097587,
1,0,0.0,0.0,0,0,43,43,63,,,,,155.39060619997326,156.0415433999733,156.0415433999733,156.52591749996645,315,45,156.52591749996645,156.52591749996645,156.52591749996645,156.52591749996645,156.52591749996645,156.52591749996645,156.52591749996645,156.52591749996645,156.52591749996645,156.8924521000008,156.8924521000008,156.8924521000008,156.8924521000008,156.8924521000008,156.8924521000008,156.8924521000008,156.8924521000008,156.8924521000008,23,0,,,156.8924521000008,157.09260879998328,0.0,157.09260879998328,1,0.0,0,0,1000,num_4,0.6879258999833837,,27,10,2026-03-05_13h55.22.491,2026A_exp2,2022.2.4,59.9993040097587,
1000,1,3.7,6.1,0,0,44,44,0,,,,,157.81026239995845,158.46046649996424,158.46046649996424,158.95464409998385,45,315,158.95464409998385,158.95464409998385,158.95464409998385,158.95464409998385,158.95464409998385,158.95464409998385,158.95464409998385,158.95464409998385,158.95464409998385,159.31149499997264,159.31149499997264,159.31149499997264,159.31149499997264,159.31149499997264,159.31149499997264,159.31149499997264,159.31149499997264,159.31149499997264,23,0,,,159.31149499997264,159.51282189995982,1000,159.51282189995982,1000,1000,1000,1000,1,num_2,0.45974319998640567,,27,10,2026-03-05_13h55.22.491,2026A_exp2,2022.2.4,59.9993040097587,
1000,1,4.9,6.1,1,0,45,45,28,,,,,159.99551719997544,160.64608219999354,160.64608219999354,161.1471070999978,45,315,161.1471070999978,161.1471070999978,161.1471070999978,161.1471070999978,161.1471070999978,161.1471070999978,161.1471070999978,161.1471070999978,161.1471070999978,161.49701719998848,161.49701719998848,161.49701719998848,161.49701719998848,161.49701719998848,161.49701719998848,161.49701719998848,161.49701719998848,161.49701719998848,22,0,,,161.49701719998848,161.69911049999064,1000,161.71388920000754,1000,1000,1000,1000,1,num_2,0.43512419995386153,,27,10,2026-03-05_13h55.22.491,2026A_exp2,2022.2.4,59.9993040097587,
1,0,0.0,3.7,1,0,46,46,66,,,,,162.16423900000518,162.81497589999344,162.81497589999344,163.3161360999802,45,315,163.3161360999802,163.3161360999802,163.3161360999802,163.3161360999802,163.3161360999802,163.3161360999802,163.3161360999802,163.3161360999802,163.3161360999802,163.6825031999615,163.6825031999615,163.6825031999615,163.6825031999615,163.6825031999615,163.6825031999615,163.6825031999615,163.6825031999615,163.6825031999615,23,0,,,163.6825031999615,163.88248400000157,3.7,163.88248400000157,1,3.7,1,1,1000,num_4,0.5147662000381388,,27,10,2026-03-05_13h55.22.491,2026A_exp2,2022.2.4,59.9993040097587,
1,0,0.0,6.1,0,0,47,47,60,,,,,164.41650940000545,165.0672514999751,165.0672514999751,165.5516992000048,315,45,165.5516992000048,165.5516992000048,165.5516992000048,165.5516992000048,165.5516992000048,165.5516992000048,165.5516992000048,165.5516992000048,165.5516992000048,165.9179016999551,165.9179016999551,165.9179016999551,165.9179016999551,165.9179016999551,165.9179016999551,165.9179016999551,165.9179016999551,165.9179016999551,23,0,,,165.9179016999551,166.11819389997981,0.0,166.11819389997981,0,0.0,0,1,1000,num_1,0.5912836999632418,,27,10,2026-03-05_13h55.22.491,2026A_exp2,2022.2.4,59.9993040097587,
1000,1,4.9,0.0,0,0,48,48,26,,,,,166.73536699998658,167.37983940000413,167.37983940000413,167.87582979997387,315,45,167.87582979997387,167.87582979997387,167.87582979997387,167.87582979997387,167.87582979997387,167.87582979997387,167.87582979997387,167.87582979997387,167.87582979997387,168.23710049997317,168.23710049997317,168.23710049997317,168.23710049997317,168.23710049997317,168.23710049997317,168.23710049997317,168.23710049997317,168.23710049997317,0,1,[0.0025648000300861895],[0.3659357000142336],168.23710049997317,168.43897849996574,1000,168.43897849996574,1000,1000,1000,1000,0,num_3,0.4222316999803297,,27,10,2026-03-05_13h55.22.491,2026A_exp2,2022.2.4,59.9993040097587,
1000,1,4.9,3.7,0,0,49,49,32,,,,,168.88761309999973,169.53842199995415,169.53842199995415,170.03939839999657,315,45,170.03939839999657,170.03939839999657,170.03939839999657,170.03939839999657,170.03939839999657,170.03939839999657,170.03939839999657,170.03939839999657,170.03939839999657,170.40590859996155,170.40590859996155,170.40590859996155,170.40590859996155,170.40590859996155,170.40590859996155,170.40590859996155,170.40590859996155,170.40590859996155,16,5,"[0.0012057999847456813, 0.0502752999891527, 0.08364409999921918, 0.267121099983342, 0.35052010003710166]","[0.033553400018718094, 0.06684640003368258, 0.10023710003588349, 0.30040180002106354, 0.36724340001819655]",170.40590859996155,170.60605149995536,1000,170.60605149995536,1000,1000,1000,1000,1,num_2,0.40782750002108514,,27,10,2026-03-05_13h55.22.491,2026A_exp2,2022.2.4,59.9993040097587,
1,0,0.0,4.9,1,0,50,50,21,,,,,171.03977289999602,171.69050129997777,171.69050129997777,172.191602899984,45,45,172.191602899984,172.191602899984,172.191602899984,172.191602899984,172.191602899984,172.191602899984,172.191602899984,172.191602899984,172.191602899984,172.55810659995768,172.55810659995768,172.55810659995768,172.55810659995768,172.55810659995768,172.55810659995768,172.55810659995768,172.55810659995768,172.55810659995768,23,0,,,172.55810659995768,172.75829979998525,4.9,172.75829979998525,1,4.9,1,1,1000,num_4,0.4303257999708876,,27,10,2026-03-05_13h55.22.491,2026A_exp2,2022.2.4,59.9993040097587,
1000,1,3.7,4.9,1,0,51,51,44,,,,,173.20856820000336,173.8593335999758,173.8593335999758,174.3439426999539,315,45,174.3439426999539,174.3439426999539,174.3439426999539,174.3439426999539,174.3439426999539,174.3439426999539,174.3439426999539,174.3439426999539,174.3439426999539,174.71024320001015,174.71024320001015,174.71024320001015,174.71024320001015,174.71024320001015,174.71024320001015,174.71024320001015,174.71024320001015,174.71024320001015,23,0,,,174.71024320001015,174.91220709995832,1000,174.91220709995832,1000,1000,1000,1000,1,num_2,0.461537400027737,,27,10,2026-03-05_13h55.22.491,2026A_exp2,2022.2.4,59.9993040097587,
1000,1,6.1,0.0,0,0,52,52,14,,,,,175.39420079998672,176.0282585999812,176.0282585999812,176.529352499987,315,45,176.529352499987,176.529352499987,176.529352499987,176.529352499987,176.529352499987,176.529352499987,176.529352499987,176.529352499987,176.529352499987,176.8957104999572,176.8957104999572,176.8957104999572,176.8957104999572,176.8957104999572,176.8957104999572,176.8957104999572,176.8957104999572,176.8957104999572,23,0,,,176.8957104999572,177.0976660999586,1000,177.0976660999586,1000,1000,1000,1000,0,num_3,0.40381270000943914,,27,10,2026-03-05_13h55.22.491,2026A_exp2,2022.2.4,59.9993040097587,
0,0,6.1,3.7,1,0,53,53,49,,,,,177.5296151000075,178.18030539999017,178.18030539999017,178.68130409996957,45,45,178.68130409996957,178.68130409996957,178.68130409996957,178.68130409996957,178.68130409996957,178.68130409996957,178.68130409996957,178.68130409996957,178.68130409996957,179.04789240000537,179.04789240000537,179.04789240000537,179.04789240000537,179.04789240000537,179.04789240000537,179.04789240000537,179.04789240000537,179.04789240000537,23,0,,,179.04789240000537,179.24803409999004,6.1,179.24803409999004,0,6.1,1,0,1000,num_1,0.5259205999900587,,27,10,2026-03-05_13h55.22.491,2026A_exp2,2022.2.4,59.9993040097587,
1000,1,4.9,0.0,1,0,54,54,22,,,,,179.79844039998716,180.44934349996038,180.44934349996038,180.93365199997788,315,315,180.93365199997788,180.93365199997788,180.93365199997788,180.93365199997788,180.93365199997788,180.93365199997788,180.93365199997788,180.93365199997788,180.93365199997788,181.30006989999674,181.30006989999674,181.30006989999674,181.30006989999674,181.30006989999674,181.30006989999674,181.30006989999674,181.30006989999674,181.30006989999674,23,0,,,181.30006989999674,181.5019414999988,1000,181.5019414999988,1000,1000,1000,1000,0,num_3,0.6151834999909624,,27,10,2026-03-05_13h55.22.491,2026A_exp2,2022.2.4,59.9993040097587,
1000,1,0.0,4.9,1,0,55,55,31,,,,,182.13421419996303,182.78502459998708,182.78502459998708,183.28609599999618,315,45,183.28609599999618,183.28609599999618,183.28609599999618,183.28609599999618,183.28609599999618,183.28609599999618,183.28609599999618,183.28609599999618,183.28609599999618,183.63581619999604,183.63581619999604,183.63581619999604,183.63581619999604,183.63581619999604,183.63581619999604,183.63581619999604,183.63581619999604,183.63581619999604,22,0,,,183.63581619999604,183.83758629998192,1000,183.85279269999592,1000,1000,1000,1000,1,num_2,0.5606872000498697,,27,10,2026-03-05_13h55.22.491,2026A_exp2,2022.2.4,59.9993040097587,
1000,1,0.0,0.0,0,0,56,56,15,,,,,184.43648279999616,185.08932089997688,185.08932089997688,185.58829439996043,315,45,185.58829439996043,185.58829439996043,185.58829439996043,185.58829439996043,185.58829439996043,185.58829439996043,185.58829439996043,185.58829439996043,185.58829439996043,185.95485179999378,185.95485179999378,185.95485179999378,185.95485179999378,185.95485179999378,185.95485179999378,185.95485179999378,185.95485179999378,185.95485179999378,23,0,,,185.95485179999378,186.15688839997165,1000,186.15688839997165,1000,1000,1000,1000,0,num_3,0.4486491999705322,,27,10,2026-03-05_13h55.22.491,2026A_exp2,2022.2.4,59.9993040097587,
1,0,0.0,3.7,1,0,57,57,41,,,,,186.62207419995684,187.27294890000485,187.27294890000485,187.77384929999243,315,315,187.77384929999243,187.77384929999243,187.77384929999243,187.77384929999243,187.77384929999243,187.77384929999243,187.77384929999243,187.77384929999243,187.77384929999243,188.1402509000036,188.1402509000036,188.1402509000036,188.1402509000036,188.1402509000036,188.1402509000036,188.1402509000036,188.1402509000036,188.1402509000036,15,3,"[0.15009710000595078, 0.21697989996755496, 0.28361889999359846]","[0.2000527000054717, 0.23339040001155809, 0.3503711000084877]",188.1402509000036,188.34047279995866,3.7,188.34047279995866,1,3.7,1,1,1000,num_4,0.7929110000259243,,27,10,2026-03-05_13h55.22.491,2026A_exp2,2022.2.4,59.9993040097587,
1000,1,0.0,0.0,0,0,58,58,81,,,,,189.15814999997383,189.80848710000282,189.80848710000282,190.29306039999938,315,315,190.29306039999938,190.29306039999938,190.29306039999938,190.29306039999938,190.29306039999938,190.29306039999938,190.29306039999938,190.29306039999938,190.29306039999938,190.65921750001144,190.65921750001144,190.65921750001144,190.65921750001144,190.65921750001144,190.65921750001144,190.65921750001144,190.65921750001144,190.65921750001144,9,3,"[0.0011965000303462148, 0.1168535000178963, 0.23383039998589084]","[0.033523500023875386, 0.1832690000301227, 0.3667167000239715]",190.65921750001144,190.8616914000013,1000,190.8616914000013,1000,1000,1000,1000,0,num_3,0.47916029999032617,,27,10,2026-03-05_13h55.22.491,2026A_exp2,2022.2.4,59.9993040097587,
1,0,0.0,6.1,0,0,59,59,11,,,,,191.3600582999643,192.01080230000662,192.01080230000662,192.5118620999856,45,45,192.5118620999856,192.5118620999856,192.5118620999856,192.5118620999856,192.5118620999856,192.5118620999856,192.5118620999856,192.5118620999856,192.5118620999856,192.87829239998246,192.87829239998246,192.87829239998246,192.87829239998246,192.87829239998246,192.87829239998246,192.87829239998246,192.87829239998246,192.87829239998246,23,0,,,192.87829239998246,193.07851530000335,0.0,193.07851530000335,0,0.0,0,1,1000,num_1,0.7107451999909244,,27,10,2026-03-05_13h55.22.491,2026A_exp2,2022.2.4,59.9993040097587,
1,0,0.0,0.0,1,0,60,60,6,,,,,193.81254129996523,194.46318669995526,194.46318669995526,194.94775039999513,315,315,194.94775039999513,194.94775039999513,194.94775039999513,194.94775039999513,194.94775039999513,194.94775039999513,194.94775039999513,194.94775039999513,194.94775039999513,195.31412519997684,195.31412519997684,195.31412519997684,195.31412519997684,195.31412519997684,195.31412519997684,195.31412519997684,195.31412519997684,195.31412519997684,23,0,,,195.31412519997684,195.51417889998993,0.0,195.51417889998993,0,0.0,0,1,1000,num_1,0.6751678999862634,,27,10,2026-03-05_13h55.22.491,2026A_exp2,2022.2.4,59.9993040097587,
1000,1,0.0,4.9,1,0,61,61,76,,,,,196.2148906000075,196.86564659996657,196.86564659996657,197.3501624999917,45,45,197.3501624999917,197.3501624999917,197.3501624999917,197.3501624999917,197.3501624999917,197.3501624999917,197.3501624999917,197.3501624999917,197.3501624999917,197.71656460000668,197.71656460000668,197.71656460000668,197.71656460000668,197.71656460000668,197.71656460000668,197.71656460000668,197.71656460000668,197.71656460000668,23,0,,,197.71656460000668,197.9184302999638,1000,197.9184302999638,1000,1000,1000,1000,1,num_2,0.4863615999929607,,27,10,2026-03-05_13h55.22.491,2026A_exp2,2022.2.4,59.9993040097587,
1,0,3.7,6.1,0,0,62,62,55,,,,,198.43381479999516,199.0846617000061,199.0846617000061,199.58572959998855,315,315,199.58572959998855,199.58572959998855,199.58572959998855,199.58572959998855,199.58572959998855,199.58572959998855,199.58572959998855,199.58572959998855,199.58572959998855,199.952129399986,199.952129399986,199.952129399986,199.952129399986,199.952129399986,199.952129399986,199.952129399986,199.952129399986,199.952129399986,23,0,,,199.952129399986,200.15219459997024,3.7,200.15219459997024,0,3.7,1,0,1000,num_1,0.6373273999779485,,27,10,2026-03-05_13h55.22.491,2026A_exp2,2022.2.4,59.9993040097587,
1,0,6.1,4.9,0,0,63,63,39,,,,,200.81951309996657,201.45349869999336,201.45349869999336,201.95465809997404,315,45,201.95465809997404,201.95465809997404,201.95465809997404,201.95465809997404,201.95465809997404,201.95465809997404,201.95465809997404,201.95465809997404,201.95465809997404,202.32130979996873,202.32130979996873,202.32130979996873,202.32130979996873,202.32130979996873,202.32130979996873,202.32130979996873,202.32130979996873,202.32130979996873,23,0,,,202.32130979996873,202.5213519000099,6.1,202.5213519000099,1,6.1,1,1,1000,num_4,0.6672905000159517,,27,10,2026-03-05_13h55.22.491,2026A_exp2,2022.2.4,59.9993040097587,
1000,1,6.1,0.0,1,0,64,64,68,,,,,203.20532770000864,203.85602750000544,203.85602750000544,204.3571936999797,315,315,204.3571936999797,204.3571936999797,204.3571936999797,204.3571936999797,204.3571936999797,204.3571936999797,204.3571936999797,204.3571936999797,204.3571936999797,204.70683689997531,204.70683689997531,204.70683689997531,204.70683689997531,204.70683689997531,204.70683689997531,204.70683689997531,204.70683689997531,204.70683689997531,22,0,,,204.70683689997531,204.90871759998845,1000,204.90871759998845,1000,1000,1000,1000,0,num_3,0.528736799955368,,27,10,2026-03-05_13h55.22.491,2026A_exp2,2022.2.4,59.9993040097587,
1,0,0.0,6.1,1,0,65,65,52,,,,,205.4574337999802,206.10820519999834,206.10820519999834,206.60935639997479,315,45,206.60935639997479,206.60935639997479,206.60935639997479,206.60935639997479,206.60935639997479,206.60935639997479,206.60935639997479,206.60935639997479,206.60935639997479,206.97590799996397,206.97590799996397,206.97590799996397,206.97590799996397,206.97590799996397,206.97590799996397,206.97590799996397,206.97590799996397,206.97590799996397,23,0,,,206.97590799996397,207.17621439998038,6.1,207.17621439998038,1,6.1,1,1,1000,num_4,0.5405909000546671,,27,10,2026-03-05_13h55.22.491,2026A_exp2,2022.2.4,59.9993040097587,
1000,1,0.0,6.1,0,0,66,66,37,,,,,207.74313610000536,208.39388920000056,208.39388920000056,208.87829419999616,45,315,208.87829419999616,208.87829419999616,208.87829419999616,208.87829419999616,208.87829419999616,208.87829419999616,208.87829419999616,208.87829419999616,208.87829419999616,209.24469019996468,209.24469019996468,209.24469019996468,209.24469019996468,209.24469019996468,209.24469019996468,209.24469019996468,209.24469019996468,209.24469019996468,23,0,,,209.24469019996468,209.44681870000204,1000,209.44681870000204,1000,1000,1000,1000,1,num_2,0.4388239999534562,,27,10,2026-03-05_13h55.22.491,2026A_exp2,2022.2.4,59.9993040097587,
1000,1,4.9,6.1,0,0,67,67,20,,,,,209.9121729999897,210.56246879999526,210.56246879999526,211.06371560000116,315,45,211.06371560000116,211.06371560000116,211.06371560000116,211.06371560000116,211.06371560000116,211.06371560000116,211.06371560000116,211.06371560000116,211.06371560000116,211.41354119998869,211.41354119998869,211.41354119998869,211.41354119998869,211.41354119998869,211.41354119998869,211.41354119998869,211.41354119998869,211.41354119998869,22,0,,,211.41354119998869,211.61540989996865,1000,211.63049569999566,1000,1000,1000,1000,1,num_2,0.44621189997997135,,27,10,2026-03-05_13h55.22.491,2026A_exp2,2022.2.4,59.9993040097587,
1000,1,0.0,0.0,1,0,68,68,23,,,,,212.09746520000044,212.74819089996163,212.74819089996163,213.24938509997446,315,45,213.24938509997446,213.24938509997446,213.24938509997446,213.24938509997446,213.24938509997446,213.24938509997446,213.24938509997446,213.24938509997446,213.24938509997446,213.61582060001092,213.61582060001092,213.61582060001092,213.61582060001092,213.61582060001092,213.61582060001092,213.61582060001092,213.61582060001092,213.61582060001092,22,1,[0.2672927000094205],[0.2838179999962449],213.61582060001092,213.81810829997994,1000,213.81810829997994,1000,1000,1000,1000,0,num_3,0.7150838000234216,,27,10,2026-03-05_13h55.22.491,2026A_exp2,2022.2.4,59.9993040097587,
1000,1,0.0,0.0,1,0,69,69,27,,,,,214.54994509997778,215.2006335000042,215.2006335000042,215.70186959998682,45,45,215.70186959998682,215.70186959998682,215.70186959998682,215.70186959998682,215.70186959998682,215.70186959998682,215.70186959998682,215.70186959998682,215.70186959998682,216.0682805000106,216.0682805000106,216.0682805000106,216.0682805000106,216.0682805000106,216.0682805000106,216.0682805000106,216.0682805000106,216.0682805000106,22,1,[0.20090799999888986],[0.2174286000081338],216.0682805000106,216.2702355000074,1000,216.2702355000074,1000,1000,1000,1000,0,num_3,0.5183533999952488,,27,10,2026-03-05_13h55.22.491,2026A_exp2,2022.2.4,59.9993040097587,
1000,1,3.7,6.1,0,0,70,70,84,,,,,216.81910639995476,217.46950279996963,217.46950279996963,217.95417449995875,45,45,217.95417449995875,217.95417449995875,217.95417449995875,217.95417449995875,217.95417449995875,217.95417449995875,217.95417449995875,217.95417449995875,217.95417449995875,218.32046039996203,218.32046039996203,218.32046039996203,218.32046039996203,218.32046039996203,218.32046039996203,218.32046039996203,218.32046039996203,218.32046039996203,23,0,,,218.32046039996203,218.52268910000566,1000,218.52268910000566,1000,1000,1000,1000,1,num_2,0.3862215999979526,,27,10,2026-03-05_13h55.22.491,2026A_exp2,2022.2.4,59.9993040097587,
1,0,3.7,0.0,1,0,71,71,19,,,,,218.9373779000016,219.58838440000545,219.58838440000545,220.08956709998893,315,45,220.08956709998893,220.08956709998893,220.08956709998893,220.08956709998893,220.08956709998893,220.08956709998893,220.08956709998893,220.08956709998893,220.08956709998893,220.4559797999682,220.4559797999682,220.4559797999682,220.4559797999682,220.4559797999682,220.4559797999682,220.4559797999682,220.4559797999682,220.4559797999682,14,4,"[0.001284099998883903, 0.18356509995646775, 0.21698029997060075, 0.30039079999551177]","[0.03357349999714643, 0.2002453999593854, 0.2337231999845244, 0.35032319999299943]",220.4559797999682,220.65602329996182,0.0,220.65602329996182,0,0.0,0,1,1000,num_1,0.5810471000149846,,27,10,2026-03-05_13h55.22.491,2026A_exp2,2022.2.4,59.9993040097587,
1,0,0.0,3.7,0,0,72,72,61,,,,,221.25654569995822,221.90738389996113,221.90738389996113,222.39185429998906,315,315,222.39185429998906,222.39185429998906,222.39185429998906,222.39185429998906,222.39185429998906,222.39185429998906,222.39185429998906,222.39185429998906,222.39185429998906,222.75831820000894,222.75831820000894,222.75831820000894,222.75831820000894,222.75831820000894,222.75831820000894,222.75831820000894,222.75831820000894,222.75831820000894,23,0,,,222.75831820000894,222.95838219998404,0.0,222.95838219998404,0,0.0,0,1,1000,num_1,0.6466666999622248,,27,10,2026-03-05_13h55.22.491,2026A_exp2,2022.2.4,59.9993040097587,
1000,1,6.1,0.0,1,0,73,73,69,,,,,223.62596909998683,224.27643209998496,224.27643209998496,224.76095209998311,315,315,224.76095209998311,224.76095209998311,224.76095209998311,224.76095209998311,224.76095209998311,224.76095209998311,224.76095209998311,224.76095209998311,224.76095209998311,225.12713420001091,225.12713420001091,225.12713420001091,225.12713420001091,225.12713420001091,225.12713420001091,225.12713420001091,225.12713420001091,225.12713420001091,21,1,[0.08354009996401146],[0.11689449998084456],225.12713420001091,225.32904689997667,1000,225.32904689997667,1000,1000,1000,1000,0,num_3,0.44420460000401363,,27,10,2026-03-05_13h55.22.491,2026A_exp2,2022.2.4,59.9993040097587,
1000,1,6.1,0.0,1,0,74,74,75,,,,,225.7946520000114,226.44531539996387,226.44531539996387,226.92973649996566,315,315,226.92973649996566,226.92973649996566,226.92973649996566,226.92973649996566,226.92973649996566,226.92973649996566,226.92973649996566,226.92973649996566,226.92973649996566,227.29596519999905,227.29596519999905,227.29596519999905,227.29596519999905,227.29596519999905,227.29596519999905,227.29596519999905,227.29596519999905,227.29596519999905,23,0,,,227.29596519999905,227.4982369999634,1000,227.4982369999634,1000,1000,1000,1000,0,num_3,0.5068548999843188,,27,10,2026-03-05_13h55.22.491,2026A_exp2,2022.2.4,59.9993040097587,
0,0,0.0,6.1,0,0,75,75,7,,,,,228.0301133999601,228.68072850001045,228.68072850001045,229.18171609996352,315,315,229.18171609996352,229.18171609996352,229.18171609996352,229.18171609996352,229.18171609996352,229.18171609996352,229.18171609996352,229.18171609996352,229.18171609996352,229.54842519998783,229.54842519998783,229.54842519998783,229.54842519998783,229.54842519998783,229.54842519998783,229.54842519998783,229.54842519998783,229.54842519998783,4,5,"[0.0012336999643594027, 0.2005980999674648, 0.26729940000222996, 0.30073999997694045, 0.35074849997181445]","[0.1838080000015907, 0.250626299995929, 0.28389189997687936, 0.33408679999411106, 0.36737389996415004]",229.54842519998783,229.74852229998214,6.1,229.74852229998214,1,6.1,1,1,1000,num_4,0.5524989999830723,,27,10,2026-03-05_13h55.22.491,2026A_exp2,2022.2.4,59.9993040097587,
1,0,4.9,0.0,1,0,76,76,38,,,,,230.3323623999604,230.98303119995398,230.98303119995398,231.46751089999452,45,45,231.46751089999452,231.46751089999452,231.46751089999452,231.46751089999452,231.46751089999452,231.46751089999452,231.46751089999452,231.46751089999452,231.46751089999452,231.8339519999572,231.8339519999572,231.8339519999572,231.8339519999572,231.8339519999572,231.8339519999572,231.8339519999572,231.8339519999572,231.8339519999572,23,0,,,231.8339519999572,232.03422289999435,0.0,232.03422289999435,0,0.0,0,1,1000,num_1,0.5702967999968678,,27,10,2026-03-05_13h55.22.491,2026A_exp2,2022.2.4,59.9993040097587,
1000,1,0.0,6.1,1,0,77,77,62,,,,,232.63475999998627,233.28528239997104,233.28528239997104,233.7698240999598,315,315,233.7698240999598,233.7698240999598,233.7698240999598,233.7698240999598,233.7698240999598,233.7698240999598,233.7698240999598,233.7698240999598,233.7698240999598,234.13632489996962,234.13632489996962,234.13632489996962,234.13632489996962,234.13632489996962,234.13632489996962,234.13632489996962,234.13632489996962,234.13632489996962,22,1,[0.28396229998907074],[0.30057289998512715],234.13632489996962,234.33836729999166,1000,234.33836729999166,1000,1000,1000,1000,1,num_2,0.49025829997844994,,27,10,2026-03-05_13h55.22.491,2026A_exp2,2022.2.4,59.9993040097587,
1000,1,3.7,0.0,0,0,78,78,45,,,,,234.85350409999955,235.50439329998335,235.50439329998335,236.00547189998906,315,45,236.00547189998906,236.00547189998906,236.00547189998906,236.00547189998906,236.00547189998906,236.00547189998906,236.00547189998906,236.00547189998906,236.00547189998906,236.3718763999641,236.3718763999641,236.3718763999641,236.3718763999641,236.3718763999641,236.3718763999641,236.3718763999641,236.3718763999641,236.3718763999641,23,0,,,236.3718763999641,236.57390059996396,1000,236.57390059996396,1000,1000,1000,1000,0,num_3,0.4066352000227198,,27,10,2026-03-05_13h55.22.491,2026A_exp2,2022.2.4,59.9993040097587,
1,0,3.7,0.0,0,0,79,79,42,,,,,237.00570479995804,237.65645429998403,237.65645429998403,238.15763249999145,315,315,238.15763249999145,238.15763249999145,238.15763249999145,238.15763249999145,238.15763249999145,238.15763249999145,238.15763249999145,238.15763249999145,238.15763249999145,238.52399879996665,238.52399879996665,238.52399879996665,238.52399879996665,238.52399879996665,238.52399879996665,238.52399879996665,238.52399879996665,238.52399879996665,19,2,"[0.16696379997301847, 0.25031410000519827]","[0.18348799995146692, 0.30039639997994527]",238.52399879996665,238.7241503999685,3.7,238.7241503999685,0,3.7,1,0,1000,num_1,0.7524257999612018,,27,10,2026-03-05_13h55.22.491,2026A_exp2,2022.2.4,59.9993040097587,
1,0,4.9,0.0,0,0,80,80,58,,,,,239.5084509999724,240.15899669995997,240.15899669995997,240.64337209996302,315,315,240.64337209996302,240.64337209996302,240.64337209996302,240.64337209996302,240.64337209996302,240.64337209996302,240.64337209996302,240.64337209996302,240.64337209996302,241.0094134999672,241.0094134999672,241.0094134999672,241.0094134999672,241.0094134999672,241.0094134999672,241.0094134999672,241.0094134999672,241.0094134999672,23,0,,,241.0094134999672,241.21001219999744,4.9,241.21001219999744,1,4.9,1,1,1000,num_4,0.5711874000262469,,27,10,2026-03-05_13h55.22.491,2026A_exp2,2022.2.4,59.9993040097587,
1,0,3.7,0.0,0,0,81,81,65,,,,,241.81054859998403,242.46124909998616,242.46124909998616,242.9457597999717,315,45,242.9457597999717,242.9457597999717,242.9457597999717,242.9457597999717,242.9457597999717,242.9457597999717,242.9457597999717,242.9457597999717,242.9457597999717,243.3119400999858,243.3119400999858,243.3119400999858,243.3119400999858,243.3119400999858,243.3119400999858,243.3119400999858,243.3119400999858,243.3119400999858,23,0,,,243.3119400999858,243.52587630000198,3.7,243.52587630000198,1,3.7,1,1,1000,num_4,0.48705619998509064,,27,10,2026-03-05_13h55.22.491,2026A_exp2,2022.2.4,59.9993040097587,
1000,1,3.7,4.9,1,0,82,82,46,,,,,244.0293599999859,244.68018119997578,244.68018119997578,245.18128580000484,45,45,245.18128580000484,245.18128580000484,245.18128580000484,245.18128580000484,245.18128580000484,245.18128580000484,245.18128580000484,245.18128580000484,245.18128580000484,245.53100309998263,245.53100309998263,245.53100309998263,245.53100309998263,245.53100309998263,245.53100309998263,245.53100309998263,245.53100309998263,245.53100309998263,22,0,,,245.53100309998263,245.7331167999655,1000,245.7331167999655,1000,1000,1000,1000,1,num_2,0.7206224999972619,,27,10,2026-03-05_13h55.22.491,2026A_exp2,2022.2.4,59.9993040097587,
1000,1,0.0,3.7,0,0,83,83,51,,,,,246.48207919998094,247.13255589996697,247.13255589996697,247.6338258999749,315,45,247.6338258999749,247.6338258999749,247.6338258999749,247.6338258999749,247.6338258999749,247.6338258999749,247.6338258999749,247.6338258999749,247.6338258999749,248.0001767000067,248.0001767000067,248.0001767000067,248.0001767000067,248.0001767000067,248.0001767000067,248.0001767000067,248.0001767000067,248.0001767000067,23,0,,,248.0001767000067,248.20198779995553,1000,248.20198779995553,1000,1000,1000,1000,1,num_2,0.43443439999828115,,27,10,2026-03-05_13h55.22.491,2026A_exp2,2022.2.4,59.9993040097587,
1000,1,0.0,3.7,1,0,84,84,47,,,,,248.6675208999659,249.31805579998763,249.31805579998763,249.81917289999546,315,315,249.81917289999546,249.81917289999546,249.81917289999546,249.81917289999546,249.81917289999546,249.81917289999546,249.81917289999546,249.81917289999546,249.81917289999546,250.1857090999838,250.1857090999838,250.1857090999838,250.1857090999838,250.1857090999838,250.1857090999838,250.1857090999838,250.1857090999838,250.1857090999838,23,0,,,250.1857090999838,250.38747129996773,1000,250.38747129996773,1000,1000,1000,1000,1,num_2,0.4014807000057772,,27,10,2026-03-05_13h55.22.491,2026A_exp2,2022.2.4,59.9993040097587,
1000,1,3.7,0.0,1,0,85,85,48,,,,,250.81956239999272,251.47017230000347,251.47017230000347,251.9711912999628,315,45,251.9711912999628,251.9711912999628,251.9711912999628,251.9711912999628,251.9711912999628,251.9711912999628,251.9711912999628,251.9711912999628,251.9711912999628,252.33781549998093,252.33781549998093,252.33781549998093,252.33781549998093,252.33781549998093,252.33781549998093,252.33781549998093,252.33781549998093,252.33781549998093,23,0,,,252.33781549998093,252.53983799996786,1000,252.53983799996786,1000,1000,1000,1000,0,num_3,0.4332060000160709,,27,10,2026-03-05_13h55.22.491,2026A_exp2,2022.2.4,59.9993040097587,
1,0,6.1,0.0,0,0,86,86,70,,,,,252.9883515999536,253.6391433000099,253.6391433000099,254.1402479999815,315,45,254.1402479999815,254.1402479999815,254.1402479999815,254.1402479999815,254.1402479999815,254.1402479999815,254.1402479999815,254.1402479999815,254.1402479999815,254.50670759996865,254.50670759996865,254.50670759996865,254.50670759996865,254.50670759996865,254.50670759996865,254.50670759996865,254.50670759996865,254.50670759996865,0,1,[0.0010714000090956688],[0.36722149996785447],254.50670759996865,254.70680859999266,6.1,254.70680859999266,1,6.1,1,1,1000,num_4,0.6019497000379488,,27,10,2026-03-05_13h55.22.491,2026A_exp2,2022.2.4,59.9993040097587,
1000,1,0.0,3.7,0,0,87,87,78,,,,,255.32406109996373,255.97477529995376,255.97477529995376,256.4758501999895,315,45,256.4758501999895,256.4758501999895,256.4758501999895,256.4758501999895,256.4758501999895,256.4758501999895,256.4758501999895,256.4758501999895,256.4758501999895,256.8422795999795,256.8422795999795,256.8422795999795,256.8422795999795,256.8422795999795,256.8422795999795,256.8422795999795,256.8422795999795,256.8422795999795,0,1,[0.001215800002682954],[0.36735309998039156],256.8422795999795,257.04461509996327,1000,257.04461509996327,1000,1000,1000,1000,1,num_2,0.4890496000298299,,27,10,2026-03-05_13h55.22.491,2026A_exp2,2022.2.4,59.9993040097587,
1000,1,6.1,0.0,1,0,88,88,30,,,,,257.5596169999917,258.21060649998253,258.21060649998253,258.7114841999719,45,45,258.7114841999719,258.7114841999719,258.7114841999719,258.7114841999719,258.7114841999719,258.7114841999719,258.7114841999719,258.7114841999719,258.7114841999719,259.07783279998694,259.07783279998694,259.07783279998694,259.07783279998694,259.07783279998694,259.07783279998694,259.07783279998694,259.07783279998694,259.07783279998694,23,0,,,259.07783279998694,259.2799118999974,1000,259.2799118999974,1000,1000,1000,1000,0,num_3,0.397363799973391,,27,10,2026-03-05_13h55.22.491,2026A_exp2,2022.2.4,59.9993040097587,
1000,1,0.0,0.0,0,0,89,89,18,,,,,259.6950693000108,260.345909799973,260.345909799973,260.84699089999776,45,315,260.84699089999776,260.84699089999776,260.84699089999776,260.84699089999776,260.84699089999776,260.84699089999776,260.84699089999776,260.84699089999776,260.84699089999776,261.21348679997027,261.21348679997027,261.21348679997027,261.21348679997027,261.21348679997027,261.21348679997027,261.21348679997027,261.21348679997027,261.21348679997027,0,1,[0.0011992999934591353],[0.3667767000151798],261.21348679997027,261.41550659999484,1000,261.41550659999484,1000,1000,1000,1000,0,num_3,0.4942815999966115,,27,10,2026-03-05_13h55.22.491,2026A_exp2,2022.2.4,59.9993040097587,
,,,,,,,,,,,,,,,,,,,,,,,,,,,,,,,,,,,,,,,,,,,,,,,,,,,,261.94043769995915,,,,,,,
