validity,detectorcomp,contrastCW,contrastCCW,precueCWorCCW,block_80trials.thisRepN,block_80trials.thisTrialN,block_80trials.thisN,block_80trials.thisIndex,etRecord.started,etRecord.stopped,text.started,text.stopped,text_4.started,text_4.stopped,text_6.started,text_6.stopped,oriCW,oriCCW,roi_2.started,grating_UR.started,grating_UL.started,grating_LR.started,grating_LL.started,noise_UR.started,noise_UL.started,noise_LR.started,noise_LL.started,roi_2.stopped,grating_UR.stopped,grating_UL.stopped,grating_LR.stopped,grating_LL.stopped,noise_UR.stopped,noise_UL.stopped,noise_LR.stopped,noise_LL.stopped,outframe,roi_2.numLooks,roi_2.timesOn,roi_2.timesOff,text_2.started,text_2.stopped,probedcontrast,key_resp.started,respdetect,relevantContrast,correctDetect,TorFdetect,respCWorCCW,key_resp.keys,key_resp.rt,feedback_display_.started,participantNo,blockNo,date,expName,psychopyVersion,frameRate,
1000,1,0.0,3.7,0,0,0,0,44,3.569992259144783e-05,3.569992259144783e-05,58.330627399962395,60.33881390001625,60.33881390001625,60.96754510002211,60.96754510002211,61.48934490000829,315,45,61.48934490000829,61.48934490000829,61.48934490000829,61.48934490000829,61.48934490000829,61.48934490000829,61.48934490000829,61.48934490000829,61.48934490000829,61.83503090008162,61.83503090008162,61.83503090008162,61.83503090008162,61.83503090008162,61.83503090008162,61.83503090008162,61.83503090008162,61.83503090008162,0,1,[0.0013373999390751123],[0.3674131999723613],61.83503090008162,62.04226360004395,1000,62.04226360004395,1000,1000,1000,1000,1,num_2,0.5888255999889225,,37,11,2026-03-13_18h28.14.285,2026A_exp2,2022.2.4,59.992788881708094,
1000,1,3.7,6.1,0,0,1,1,28,,,,,62.652644800022244,63.303273000055924,63.303273000055924,63.78753659990616,315,45,63.78753659990616,63.78753659990616,63.78753659990616,63.78753659990616,63.78753659990616,63.78753659990616,63.78753659990616,63.78753659990616,63.78753659990616,64.15407039993443,64.15407039993443,64.15407039993443,64.15407039993443,64.15407039993443,64.15407039993443,64.15407039993443,64.15407039993443,64.15407039993443,0,1,[0.0012126998044550419],[0.36715629999525845],64.15407039993443,64.3559254000429,1000,64.3559254000429,1000,1000,1000,1000,1,num_2,0.5154975999612361,,37,11,2026-03-13_18h28.14.285,2026A_exp2,2022.2.4,59.992788881708094,
1000,1,0.0,4.9,0,0,2,2,11,,,,,64.88831329997629,65.53889909991995,65.53889909991995,66.03992950008251,45,45,66.03992950008251,66.03992950008251,66.03992950008251,66.03992950008251,66.03992950008251,66.03992950008251,66.03992950008251,66.03992950008251,66.03992950008251,66.40629289997742,66.40629289997742,66.40629289997742,66.40629289997742,66.40629289997742,66.40629289997742,66.40629289997742,66.40629289997742,66.40629289997742,4,2,"[0.03355970000848174, 0.1833336998242885]","[0.14993619988672435, 0.3672742999624461]",66.40629289997742,66.60662380000576,1000,66.60662380000576,1000,1000,1000,1000,1,num_2,0.3361887000501156,,37,11,2026-03-13_18h28.14.285,2026A_exp2,2022.2.4,59.992788881708094,
1000,1,4.9,0.0,1,0,3,3,72,,,,,66.97366170003079,67.62407859996893,67.62407859996893,68.12533809989691,315,315,68.12533809989691,68.12533809989691,68.12533809989691,68.12533809989691,68.12533809989691,68.12533809989691,68.12533809989691,68.12533809989691,68.12533809989691,68.4750892999582,68.4750892999582,68.4750892999582,68.4750892999582,68.4750892999582,68.4750892999582,68.4750892999582,68.4750892999582,68.4750892999582,0,1,[0.0012172998394817114],[0.35036499984562397],68.4750892999582,68.67535829986446,1000,68.69199209986255,1000,1000,1000,1000,0,num_3,0.10800580005161464,,37,11,2026-03-13_18h28.14.285,2026A_exp2,2022.2.4,59.992788881708094,
1000,1,4.9,3.7,1,0,4,4,32,,,,,68.82551119988784,69.47589910007082,69.47589910007082,69.97723379987292,315,315,69.97723379987292,69.97723379987292,69.97723379987292,69.97723379987292,69.97723379987292,69.97723379987292,69.97723379987292,69.97723379987292,69.97723379987292,70.32680659997277,70.32680659997277,70.32680659997277,70.32680659997277,70.32680659997277,70.32680659997277,70.32680659997277,70.32680659997277,70.32680659997277,1,2,"[0.0012252999003976583, 0.1837249998934567]","[0.16692600003443658, 0.350419299909845]",70.32680659997277,70.52736949990503,1000,70.52736949990503,1000,1000,1000,1000,0,num_3,0.39280030014924705,,37,11,2026-03-13_18h28.14.285,2026A_exp2,2022.2.4,59.992788881708094,
1000,1,3.7,3.7,1,0,5,5,40,,,,,70.94428059994243,71.59477530000731,71.59477530000731,72.09584630001336,45,315,72.09584630001336,72.09584630001336,72.09584630001336,72.09584630001336,72.09584630001336,72.09584630001336,72.09584630001336,72.09584630001336,72.09584630001336,72.44552999990992,72.44552999990992,72.44552999990992,72.44552999990992,72.44552999990992,72.44552999990992,72.44552999990992,72.44552999990992,72.44552999990992,0,1,[0.0012111000251024961],[0.35067639988847077],72.44552999990992,72.64746659994125,1000,72.6626893999055,1000,1000,1000,1000,0,num_3,0.33707070001401007,,37,11,2026-03-13_18h28.14.285,2026A_exp2,2022.2.4,59.992788881708094,
1,0,6.1,0.0,0,0,6,6,50,,,,,73.0294538999442,73.68021219992079,73.68021219992079,74.18111520004459,315,315,74.18111520004459,74.18111520004459,74.18111520004459,74.18111520004459,74.18111520004459,74.18111520004459,74.18111520004459,74.18111520004459,74.18111520004459,74.54781230003573,74.54781230003573,74.54781230003573,74.54781230003573,74.54781230003573,74.54781230003573,74.54781230003573,74.54781230003573,74.54781230003573,0,1,[0.0012330999597907066],[0.3674681999254972],74.54781230003573,74.74793379986659,6.1,74.74793379986659,1,6.1,1,1,1000,num_4,0.7633601000998169,,37,11,2026-03-13_18h28.14.285,2026A_exp2,2022.2.4,59.992788881708094,
1,0,4.9,0.0,1,0,7,7,4,,,,,75.5318835999351,76.18278869986534,76.18278869986534,76.66722609987482,45,315,76.66722609987482,76.66722609987482,76.66722609987482,76.66722609987482,76.66722609987482,76.66722609987482,76.66722609987482,76.66722609987482,76.66722609987482,77.03360059997067,77.03360059997067,77.03360059997067,77.03360059997067,77.03360059997067,77.03360059997067,77.03360059997067,77.03360059997067,77.03360059997067,0,1,[0.0012466998305171728],[0.36717869993299246],77.03360059997067,77.23375290003605,0.0,77.23375290003605,1,0.0,0,0,1000,num_4,0.3817733998876065,,37,11,2026-03-13_18h28.14.285,2026A_exp2,2022.2.4,59.992788881708094,
1000,1,0.0,6.1,1,0,8,8,88,,,,,77.63456939999014,78.26825849991292,78.26825849991292,78.76936879986897,45,315,78.76936879986897,78.76936879986897,78.76936879986897,78.76936879986897,78.76936879986897,78.76936879986897,78.76936879986897,78.76936879986897,78.76936879986897,79.13574589998461,79.13574589998461,79.13574589998461,79.13574589998461,79.13574589998461,79.13574589998461,79.13574589998461,79.13574589998461,79.13574589998461,1,1,[0.0011868001893162727],[0.36718860012479126],79.13574589998461,79.33784090005793,1000,79.33784090005793,1000,1000,1000,1000,1,num_2,0.5738890999928117,,37,11,2026-03-13_18h28.14.285,2026A_exp2,2022.2.4,59.992788881708094,
1,0,0.0,0.0,0,0,9,9,38,,,,,79.93648639996536,80.58719139988534,80.58719139988534,81.08823310001753,45,45,81.08823310001753,81.08823310001753,81.08823310001753,81.08823310001753,81.08823310001753,81.08823310001753,81.08823310001753,81.08823310001753,81.08823310001753,81.43794019985944,81.43794019985944,81.43794019985944,81.43794019985944,81.43794019985944,81.43794019985944,81.43794019985944,81.43794019985944,81.43794019985944,0,1,[0.0010010998230427504],[0.351047599921003],81.43794019985944,81.63819490000606,0.0,81.65494899987243,0,0.0,0,1,1000,num_1,1.120916600106284,,37,11,2026-03-13_18h28.14.285,2026A_exp2,2022.2.4,59.992788881708094,
1000,1,0.0,0.0,1,0,10,10,29,,,,,82.80597899993882,83.45884139998816,83.45884139998816,83.94638550002128,315,315,83.94638550002128,83.94638550002128,83.94638550002128,83.94638550002128,83.94638550002128,83.94638550002128,83.94638550002128,83.94638550002128,83.94638550002128,84.30757929990068,84.30757929990068,84.30757929990068,84.30757929990068,84.30757929990068,84.30757929990068,84.30757929990068,84.30757929990068,84.30757929990068,0,1,[0.0025563000235706568],[0.36608420009724796],84.30757929990068,84.5093028000556,1000,84.5093028000556,1000,1000,1000,1000,1,num_2,0.5454720000270754,,37,11,2026-03-13_18h28.14.285,2026A_exp2,2022.2.4,59.992788881708094,
1000,1,4.9,4.9,0,0,11,11,42,,,,,85.07489829999395,85.72565450007096,85.72565450007096,86.22663330007344,45,315,86.22663330007344,86.22663330007344,86.22663330007344,86.22663330007344,86.22663330007344,86.22663330007344,86.22663330007344,86.22663330007344,86.22663330007344,86.59315579989925,86.59315579989925,86.59315579989925,86.59315579989925,86.59315579989925,86.59315579989925,86.59315579989925,86.59315579989925,86.59315579989925,0,1,[0.0012477999553084373],[0.3671462999191135],86.59315579989925,86.79544289992191,1000,86.79544289992191,1000,1000,1000,1000,1,num_2,1.1083269000519067,,37,11,2026-03-13_18h28.14.285,2026A_exp2,2022.2.4,59.992788881708094,
1000,1,0.0,4.9,1,0,12,12,27,,,,,87.92778959986754,88.57867680001073,88.57867680001073,89.07951810001396,45,45,89.07951810001396,89.07951810001396,89.07951810001396,89.07951810001396,89.07951810001396,89.07951810001396,89.07951810001396,89.07951810001396,89.07951810001396,89.44605119992048,89.44605119992048,89.44605119992048,89.44605119992048,89.44605119992048,89.44605119992048,89.44605119992048,89.44605119992048,89.44605119992048,3,2,"[0.017377299955114722, 0.31676710001192987]","[0.300307699944824, 0.3669852998573333]",89.44605119992048,89.6479158999864,1000,89.6479158999864,1000,1000,1000,1000,1,num_2,0.40828999993391335,,37,11,2026-03-13_18h28.14.285,2026A_exp2,2022.2.4,59.992788881708094,
1,0,0.0,0.0,0,0,13,13,64,,,,,90.07982979994267,90.73065000004135,90.73065000004135,91.23172349995002,315,45,91.23172349995002,91.23172349995002,91.23172349995002,91.23172349995002,91.23172349995002,91.23172349995002,91.23172349995002,91.23172349995002,91.23172349995002,91.59816970000975,91.59816970000975,91.59816970000975,91.59816970000975,91.59816970000975,91.59816970000975,91.59816970000975,91.59816970000975,91.59816970000975,3,4,"[0.0013107999693602324, 0.10032299999147654, 0.216790699865669, 0.2833849999587983]","[0.08368219994008541, 0.2002634999807924, 0.2667376999743283, 0.36726319999434054]",91.59816970000975,91.79833799996413,0.0,91.79833799996413,0,0.0,0,1,1000,num_1,1.6164609999395907,,37,11,2026-03-13_18h28.14.285,2026A_exp2,2022.2.4,59.992788881708094,
1000,1,0.0,3.7,1,0,14,14,80,,,,,93.43351310002618,94.0839960000012,94.0839960000012,94.5683462000452,45,315,94.5683462000452,94.5683462000452,94.5683462000452,94.5683462000452,94.5683462000452,94.5683462000452,94.5683462000452,94.5683462000452,94.5683462000452,94.93489070003852,94.93489070003852,94.93489070003852,94.93489070003852,94.93489070003852,94.93489070003852,94.93489070003852,94.93489070003852,94.93489070003852,0,1,[0.001212000148370862],[0.3673304000403732],94.93489070003852,95.1367784999311,1000,95.1367784999311,1000,1000,1000,1000,1,num_2,0.655262199928984,,37,11,2026-03-13_18h28.14.285,2026A_exp2,2022.2.4,59.992788881708094,
1,0,0.0,4.9,0,0,15,15,71,,,,,95.81919359997846,96.46971690002829,96.46971690002829,96.9709246000275,315,45,96.9709246000275,96.9709246000275,96.9709246000275,96.9709246000275,96.9709246000275,96.9709246000275,96.9709246000275,96.9709246000275,96.9709246000275,97.33728410000913,97.33728410000913,97.33728410000913,97.33728410000913,97.33728410000913,97.33728410000913,97.33728410000913,97.33728410000913,97.33728410000913,0,1,[0.0012222998775541782],[0.36696120002307],97.33728410000913,97.53743609995581,0.0,97.53743609995581,0,0.0,0,1,1000,num_1,0.7658675999846309,,37,11,2026-03-13_18h28.14.285,2026A_exp2,2022.2.4,59.992788881708094,
1,0,3.7,0.0,1,0,16,16,74,,,,,98.32140929996967,98.97698309994303,98.97698309994303,99.46470519993454,315,45,99.46470519993454,99.46470519993454,99.46470519993454,99.46470519993454,99.46470519993454,99.46470519993454,99.46470519993454,99.46470519993454,99.46470519993454,99.82301929988898,99.82301929988898,99.82301929988898,99.82301929988898,99.82301929988898,99.82301929988898,99.82301929988898,99.82301929988898,99.82301929988898,0,1,[0.003169099800288677],[0.36542679998092353],99.82301929988898,100.02335479995236,0.0,100.02335479995236,0,0.0,0,1,1000,num_1,1.0073716999031603,,37,11,2026-03-13_18h28.14.285,2026A_exp2,2022.2.4,59.992788881708094,
1000,1,4.9,0.0,0,0,17,17,58,,,,,101.05782229988836,101.691702199867,101.691702199867,102.19277579989284,315,315,102.19277579989284,102.19277579989284,102.19277579989284,102.19277579989284,102.19277579989284,102.19277579989284,102.19277579989284,102.19277579989284,102.19277579989284,102.55917140003294,102.55917140003294,102.55917140003294,102.55917140003294,102.55917140003294,102.55917140003294,102.55917140003294,102.55917140003294,102.55917140003294,0,1,[0.0012149999383836985],[0.36720269988290966],102.55917140003294,102.76145059987903,1000,102.76145059987903,1000,1000,1000,1000,0,num_3,0.4303686001803726,,37,11,2026-03-13_18h28.14.285,2026A_exp2,2022.2.4,59.992788881708094,
1000,1,6.1,3.7,1,0,18,18,0,,,,,103.20976960007101,103.86024899990298,103.86024899990298,104.3615411000792,45,315,104.3615411000792,104.3615411000792,104.3615411000792,104.3615411000792,104.3615411000792,104.3615411000792,104.3615411000792,104.3615411000792,104.3615411000792,104.72811269992962,104.72811269992962,104.72811269992962,104.72811269992962,104.72811269992962,104.72811269992962,104.72811269992962,104.72811269992962,104.72811269992962,21,2,"[0.0667864999268204, 0.30032069981098175]","[0.08356059994548559, 0.31712529994547367]",104.72811269992962,104.92996399989352,1000,104.92996399989352,1000,1000,1000,1000,0,num_3,0.5328416000120342,,37,11,2026-03-13_18h28.14.285,2026A_exp2,2022.2.4,59.992788881708094,
1,0,4.9,6.1,0,0,19,19,15,,,,,105.47905660001561,106.12937380000949,106.12937380000949,106.6304184999317,45,315,106.6304184999317,106.6304184999317,106.6304184999317,106.6304184999317,106.6304184999317,106.6304184999317,106.6304184999317,106.6304184999317,106.6304184999317,106.99695000005886,106.99695000005886,106.99695000005886,106.99695000005886,106.99695000005886,106.99695000005886,106.99695000005886,106.99695000005886,106.99695000005886,0,1,[0.001254200004041195],[0.36732270009815693],106.99695000005886,107.19708489999175,4.9,107.19708489999175,1,4.9,1,1,1000,num_4,1.7703813000116497,,37,11,2026-03-13_18h28.14.285,2026A_exp2,2022.2.4,59.992788881708094,
1,0,0.0,0.0,0,0,20,20,2,,,,,108.99860819987953,109.63278179988265,109.63278179988265,110.13405649992637,45,315,110.13405649992637,110.13405649992637,110.13405649992637,110.13405649992637,110.13405649992637,110.13405649992637,110.13405649992637,110.13405649992637,110.13405649992637,110.5004241000861,110.5004241000861,110.5004241000861,110.5004241000861,110.5004241000861,110.5004241000861,110.5004241000861,110.5004241000861,110.5004241000861,13,5,"[0.0008280999027192593, 0.10059819999150932, 0.18410549988038838, 0.23388039995916188, 0.33386170002631843]","[0.050163399893790483, 0.1507560999598354, 0.20071100001223385, 0.26709969993680716, 0.35062029981054366]",110.5004241000861,110.7005600000266,0.0,110.7005600000266,1,0.0,0,0,1000,num_4,1.4593553999438882,,37,11,2026-03-13_18h28.14.285,2026A_exp2,2022.2.4,59.992788881708094,
1,0,0.0,0.0,1,0,21,21,18,,,,,112.18523509986699,112.82998799998313,112.82998799998313,113.3204099999275,315,45,113.3204099999275,113.3204099999275,113.3204099999275,113.3204099999275,113.3204099999275,113.3204099999275,113.3204099999275,113.3204099999275,113.3204099999275,113.68685199995525,113.68685199995525,113.68685199995525,113.68685199995525,113.68685199995525,113.68685199995525,113.68685199995525,113.68685199995525,113.68685199995525,0,1,[0.0012802002020180225],[0.36676680017262697],113.68685199995525,113.88716599997133,0.0,113.88716599997133,1,0.0,0,0,1000,num_4,0.9686444001272321,,37,11,2026-03-13_18h28.14.285,2026A_exp2,2022.2.4,59.992788881708094,
1,0,0.0,0.0,0,0,22,22,49,,,,,114.87128739990294,115.52216569986194,115.52216569986194,116.00649489997886,45,315,116.00649489997886,116.00649489997886,116.00649489997886,116.00649489997886,116.00649489997886,116.00649489997886,116.00649489997886,116.00649489997886,116.00649489997886,116.3729355998803,116.3729355998803,116.3729355998803,116.3729355998803,116.3729355998803,116.3729355998803,116.3729355998803,116.3729355998803,116.3729355998803,0,1,[0.001238199882209301],[0.36672799987718463],116.3729355998803,116.5731410998851,0.0,116.5731410998851,0,0.0,0,1,1000,num_1,0.9457513000816107,,37,11,2026-03-13_18h28.14.285,2026A_exp2,2022.2.4,59.992788881708094,
1000,1,0.0,6.1,0,0,23,23,34,,,,,117.54063960001804,118.1914840999525,118.1914840999525,118.67571730003692,45,315,118.67571730003692,118.67571730003692,118.67571730003692,118.67571730003692,118.67571730003692,118.67571730003692,118.67571730003692,118.67571730003692,118.67571730003692,119.04219479998574,119.04219479998574,119.04219479998574,119.04219479998574,119.04219479998574,119.04219479998574,119.04219479998574,119.04219479998574,119.04219479998574,11,2,"[0.0012245001271367073, 0.2170975999906659]","[0.08355870004743338, 0.33369629993103445]",119.04219479998574,119.24420419987291,1000,119.24420419987291,1000,1000,1000,1000,1,num_2,0.9152972002048045,,37,11,2026-03-13_18h28.14.285,2026A_exp2,2022.2.4,59.992788881708094,
1000,1,4.9,0.0,0,0,24,24,36,,,,,120.17662969999947,120.8273042999208,120.8273042999208,121.32863759994507,315,315,121.32863759994507,121.32863759994507,121.32863759994507,121.32863759994507,121.32863759994507,121.32863759994507,121.32863759994507,121.32863759994507,121.32863759994507,121.69493740005419,121.69493740005419,121.69493740005419,121.69493740005419,121.69493740005419,121.69493740005419,121.69493740005419,121.69493740005419,121.69493740005419,0,1,[0.0011992999352514744],[0.36720549990423024],121.69493740005419,121.89675439987332,1000,121.89675439987332,1000,1000,1000,1000,0,num_3,2.5186830000020564,,37,11,2026-03-13_18h28.14.285,2026A_exp2,2022.2.4,59.992788881708094,
0,0,0.0,0.0,1,0,25,25,62,,,,,124.43091559992172,125.08172550005838,125.08172550005838,125.58269939990714,45,45,125.58269939990714,125.58269939990714,125.58269939990714,125.58269939990714,125.58269939990714,125.58269939990714,125.58269939990714,125.58269939990714,125.58269939990714,125.94938619993627,125.94938619993627,125.94938619993627,125.94938619993627,125.94938619993627,125.94938619993627,125.94938619993627,125.94938619993627,125.94938619993627,12,5,"[0.08354609995149076, 0.11692159995436668, 0.20030159992165864, 0.2670724999625236, 0.3503944000694901]","[0.10017529991455376, 0.18351310002617538, 0.25022309995256364, 0.30037280009128153, 0.36717520002275705]",125.94938619993627,126.14929029997438,0.0,126.14929029997438,1,0.0,0,0,1000,num_4,1.8015312999486923,,37,11,2026-03-13_18h28.14.285,2026A_exp2,2022.2.4,59.992788881708094,
1000,1,0.0,0.0,0,0,26,26,69,,,,,127.96783580002375,128.60180950001813,128.60180950001813,129.1029978999868,315,315,129.1029978999868,129.1029978999868,129.1029978999868,129.1029978999868,129.1029978999868,129.1029978999868,129.1029978999868,129.1029978999868,129.1029978999868,129.46926159993745,129.46926159993745,129.46926159993745,129.46926159993745,129.46926159993745,129.46926159993745,129.46926159993745,129.46926159993745,129.46926159993745,11,4,"[0.001231999834999442, 0.13340759999118745, 0.2339331000111997, 0.30025539989583194]","[0.05011720000766218, 0.18600500002503395, 0.26663960004225373, 0.3671265998855233]",129.46926159993745,129.67138559999876,1000,129.67138559999876,1000,1000,1000,1000,0,num_3,1.024572600144893,,37,11,2026-03-13_18h28.14.285,2026A_exp2,2022.2.4,59.992788881708094,
1,0,6.1,4.9,1,0,27,27,35,,,,,130.7205097998958,131.3713477998972,131.3713477998972,131.8722407000605,45,45,131.8722407000605,131.8722407000605,131.8722407000605,131.8722407000605,131.8722407000605,131.8722407000605,131.8722407000605,131.8722407000605,131.8722407000605,132.23877399996854,132.23877399996854,132.23877399996854,132.23877399996854,132.23877399996854,132.23877399996854,132.23877399996854,132.23877399996854,132.23877399996854,2,2,"[0.0012250000145286322, 0.20040199998766184]","[0.16670960001647472, 0.36731240013614297]",132.23877399996854,132.43899909988977,4.9,132.43899909988977,1,4.9,1,1,1000,num_4,2.032217300031334,,37,11,2026-03-13_18h28.14.285,2026A_exp2,2022.2.4,59.992788881708094,
1,0,0.0,0.0,1,0,28,28,43,,,,,134.49128389987163,135.14633579994552,135.14633579994552,135.63276969990693,45,45,135.63276969990693,135.63276969990693,135.63276969990693,135.63276969990693,135.63276969990693,135.63276969990693,135.63276969990693,135.63276969990693,135.63276969990693,135.9925822999794,135.9925822999794,135.9925822999794,135.9925822999794,135.9925822999794,135.9925822999794,135.9925822999794,135.9925822999794,135.9925822999794,0,1,[0.0030245999805629253],[0.36539880000054836],135.9925822999794,136.19273909996264,0.0,136.19273909996264,1,0.0,0,0,1000,num_4,1.8380191999021918,,37,11,2026-03-13_18h28.14.285,2026A_exp2,2022.2.4,59.992788881708094,
1000,1,4.9,0.0,1,0,29,29,25,,,,,138.0611735000275,138.69536700006574,138.69536700006574,139.19645419996232,45,45,139.19645419996232,139.19645419996232,139.19645419996232,139.19645419996232,139.19645419996232,139.19645419996232,139.19645419996232,139.19645419996232,139.19645419996232,139.56284889997914,139.56284889997914,139.56284889997914,139.56284889997914,139.56284889997914,139.56284889997914,139.56284889997914,139.56284889997914,139.56284889997914,0,1,[0.0009821001440286636],[0.3674074001610279],139.56284889997914,139.76482210005634,1000,139.76482210005634,1000,1000,1000,1000,0,num_3,1.0987591999582946,,37,11,2026-03-13_18h28.14.285,2026A_exp2,2022.2.4,59.992788881708094,
1000,1,4.9,6.1,1,0,30,30,1,,,,,140.88064839993604,141.5314450999722,141.5314450999722,142.03263939986937,315,315,142.03263939986937,142.03263939986937,142.03263939986937,142.03263939986937,142.03263939986937,142.03263939986937,142.03263939986937,142.03263939986937,142.03263939986937,142.39865759992972,142.39865759992972,142.39865759992972,142.39865759992972,142.39865759992972,142.39865759992972,142.39865759992972,142.39865759992972,142.39865759992972,20,2,"[0.31665890011936426, 0.366421100217849]","[0.3498663001228124, 0.3664240001235157]",142.39865759992972,142.6257811000105,1000,142.6257811000105,1000,1000,1000,1000,1,num_2,1.789632000029087,,37,11,2026-03-13_18h28.14.285,2026A_exp2,2022.2.4,59.992788881708094,
0,0,4.9,0.0,0,0,31,31,30,,,,,144.43434719997458,145.0850762000773,145.0850762000773,145.58606999996118,45,315,145.58606999996118,145.58606999996118,145.58606999996118,145.58606999996118,145.58606999996118,145.58606999996118,145.58606999996118,145.58606999996118,145.58606999996118,145.93587419996038,145.93587419996038,145.93587419996038,145.93587419996038,145.93587419996038,145.93587419996038,145.93587419996038,145.93587419996038,145.93587419996038,0,1,[0.0012238998897373676],[0.3508107999805361],145.93587419996038,146.1361010998953,0.0,146.1361010998953,0,0.0,0,1,1000,num_1,0.9346527000889182,,37,11,2026-03-13_18h28.14.285,2026A_exp2,2022.2.4,59.992788881708094,
1,0,3.7,4.9,1,0,32,32,39,,,,,147.08692099992186,147.73767199995928,147.73767199995928,148.22216859995387,45,45,148.22216859995387,148.22216859995387,148.22216859995387,148.22216859995387,148.22216859995387,148.22216859995387,148.22216859995387,148.22216859995387,148.22216859995387,148.58848350006156,148.58848350006156,148.58848350006156,148.58848350006156,148.58848350006156,148.58848350006156,148.58848350006156,148.58848350006156,148.58848350006156,0,1,[0.0007182999979704618],[0.36771959997713566],148.58848350006156,148.78867399995215,4.9,148.78867399995215,1,4.9,1,1,1000,num_4,1.9634981001727283,,37,11,2026-03-13_18h28.14.285,2026A_exp2,2022.2.4,59.992788881708094,
1,0,4.9,0.0,1,0,33,33,84,,,,,150.77388580003753,151.4246209000703,151.4246209000703,151.90904559986666,315,45,151.90904559986666,151.90904559986666,151.90904559986666,151.90904559986666,151.90904559986666,151.90904559986666,151.90904559986666,151.90904559986666,151.90904559986666,152.27530179987662,152.27530179987662,152.27530179987662,152.27530179987662,152.27530179987662,152.27530179987662,152.27530179987662,152.27530179987662,152.27530179987662,2,3,"[0.0012465999461710453, 0.15035709994845092, 0.2505126998294145]","[0.13365769991651177, 0.23369579995051026, 0.367274799849838]",152.27530179987662,152.47569220000878,0.0,152.47569220000878,0,0.0,0,1,1000,num_1,0.9635228998959064,,37,11,2026-03-13_18h28.14.285,2026A_exp2,2022.2.4,59.992788881708094,
1,0,0.0,0.0,1,0,34,34,37,,,,,153.45986899989657,154.1106980999466,154.1106980999466,154.59517519990914,45,315,154.59517519990914,154.59517519990914,154.59517519990914,154.59517519990914,154.59517519990914,154.59517519990914,154.59517519990914,154.59517519990914,154.59517519990914,154.96149199991487,154.96149199991487,154.96149199991487,154.96149199991487,154.96149199991487,154.96149199991487,154.96149199991487,154.96149199991487,154.96149199991487,22,1,[0.2670823000371456],[0.2838183999992907],154.96149199991487,155.16166840004735,0.0,155.16166840004735,1,0.0,0,0,1000,num_4,1.5336006998550147,,37,11,2026-03-13_18h28.14.285,2026A_exp2,2022.2.4,59.992788881708094,
0,0,3.7,4.9,1,0,35,35,3,,,,,156.71303249988705,157.3639303999953,157.3639303999953,157.8484455998987,315,45,157.8484455998987,157.8484455998987,157.8484455998987,157.8484455998987,157.8484455998987,157.8484455998987,157.8484455998987,157.8484455998987,157.8484455998987,158.21445239987224,158.21445239987224,158.21445239987224,158.21445239987224,158.21445239987224,158.21445239987224,158.21445239987224,158.21445239987224,158.21445239987224,0,1,[0.0007599000819027424],[0.3671997000928968],158.21445239987224,158.41491669998504,3.7,158.41491669998504,0,3.7,1,0,1000,num_1,2.064212900120765,,37,11,2026-03-13_18h28.14.285,2026A_exp2,2022.2.4,59.992788881708094,
0,0,0.0,0.0,1,0,36,36,8,,,,,160.500261799898,161.1510403000284,161.1510403000284,161.63545559998602,315,315,161.63545559998602,161.63545559998602,161.63545559998602,161.63545559998602,161.63545559998602,161.63545559998602,161.63545559998602,161.63545559998602,161.63545559998602,162.00194990006275,162.00194990006275,162.00194990006275,162.00194990006275,162.00194990006275,162.00194990006275,162.00194990006275,162.00194990006275,162.00194990006275,23,0,,,162.00194990006275,162.20207679993473,0.0,162.20207679993473,1,0.0,0,0,1000,num_4,3.4856446001213044,,37,11,2026-03-13_18h28.14.285,2026A_exp2,2022.2.4,59.992788881708094,
1000,1,0.0,0.0,0,0,37,37,61,,,,,165.7053964000661,166.3561167998705,166.3561167998705,166.8405800999608,315,45,166.8405800999608,166.8405800999608,166.8405800999608,166.8405800999608,166.8405800999608,166.8405800999608,166.8405800999608,166.8405800999608,166.8405800999608,167.20710660004988,167.20710660004988,167.20710660004988,167.20710660004988,167.20710660004988,167.20710660004988,167.20710660004988,167.20710660004988,167.20710660004988,0,1,[0.0012034999672323465],[0.36707050004042685],167.20710660004988,167.409576700069,1000,167.409576700069,1000,1000,1000,1000,0,num_3,0.5815658001229167,,37,11,2026-03-13_18h28.14.285,2026A_exp2,2022.2.4,59.992788881708094,
1000,1,6.1,4.9,1,0,38,38,53,,,,,168.00782090006396,168.65856750006787,168.65856750006787,169.15988190006465,45,315,169.15988190006465,169.15988190006465,169.15988190006465,169.15988190006465,169.15988190006465,169.15988190006465,169.15988190006465,169.15988190006465,169.15988190006465,169.52608440001495,169.52608440001495,169.52608440001495,169.52608440001495,169.52608440001495,169.52608440001495,169.52608440001495,169.52608440001495,169.52608440001495,23,0,,,169.52608440001495,169.726501399884,1000,169.726501399884,1000,1000,1000,1000,0,num_3,0.5128059000708163,,37,11,2026-03-13_18h28.14.285,2026A_exp2,2022.2.4,59.992788881708094,
1,0,4.9,4.9,1,0,39,39,89,,,,,170.26024609990418,170.91065059998073,170.91065059998073,171.4119845998939,45,315,171.4119845998939,171.4119845998939,171.4119845998939,171.4119845998939,171.4119845998939,171.4119845998939,171.4119845998939,171.4119845998939,171.4119845998939,171.7618914998602,171.7618914998602,171.7618914998602,171.7618914998602,171.7618914998602,171.7618914998602,171.7618914998602,171.7618914998602,171.7618914998602,14,4,"[0.033326199976727366, 0.09990559983998537, 0.1838873999658972, 0.28347110003232956]","[0.04971199994906783, 0.11648619989864528, 0.20050109992735088, 0.35013809986412525]",171.7618914998602,171.9619336000178,4.9,171.9619336000178,1,4.9,1,1,1000,num_4,4.348949500126764,,37,11,2026-03-13_18h28.14.285,2026A_exp2,2022.2.4,59.992788881708094,
1,0,0.0,0.0,1,0,40,40,66,,,,,176.33269280008972,176.98355909995735,176.98355909995735,177.46799049992114,315,45,177.46799049992114,177.46799049992114,177.46799049992114,177.46799049992114,177.46799049992114,177.46799049992114,177.46799049992114,177.46799049992114,177.46799049992114,177.83471199986525,177.83471199986525,177.83471199986525,177.83471199986525,177.83471199986525,177.83471199986525,177.83471199986525,177.83471199986525,177.83471199986525,14,4,"[0.03364369994960725, 0.1169380999635905, 0.16706370003521442, 0.21709790010936558]","[0.10022399993613362, 0.13357249996624887, 0.20043090009130538, 0.2504432999994606]",177.83471199986525,178.0346750000026,0.0,178.0346750000026,1,0.0,0,0,1000,num_4,2.341435099951923,,37,11,2026-03-13_18h28.14.285,2026A_exp2,2022.2.4,59.992788881708094,
1,0,4.9,6.1,1,0,41,41,46,,,,,180.40348570002243,181.05437909998,181.05437909998,181.5385594998952,45,315,181.5385594998952,181.5385594998952,181.5385594998952,181.5385594998952,181.5385594998952,181.5385594998952,181.5385594998952,181.5385594998952,181.5385594998952,181.90516579989344,181.90516579989344,181.90516579989344,181.90516579989344,181.90516579989344,181.90516579989344,181.90516579989344,181.90516579989344,181.90516579989344,23,0,,,181.90516579989344,182.10530330007896,6.1,182.10530330007896,1,6.1,1,1,1000,num_4,1.093771800165996,,37,11,2026-03-13_18h28.14.285,2026A_exp2,2022.2.4,59.992788881708094,
1000,1,6.1,3.7,0,0,42,42,87,,,,,183.22299170005135,183.87374820001423,183.87374820001423,184.35809849994257,45,315,184.35809849994257,184.35809849994257,184.35809849994257,184.35809849994257,184.35809849994257,184.35809849994257,184.35809849994257,184.35809849994257,184.35809849994257,184.72459500003606,184.72459500003606,184.72459500003606,184.72459500003606,184.72459500003606,184.72459500003606,184.72459500003606,184.72459500003606,184.72459500003606,23,0,,,184.72459500003606,184.92682679998688,1000,184.92682679998688,1000,1000,1000,1000,0,num_3,0.6639048000797629,,37,11,2026-03-13_18h28.14.285,2026A_exp2,2022.2.4,59.992788881708094,
0,0,0.0,6.1,1,0,43,43,76,,,,,185.6087533000391,186.25963320001028,186.25963320001028,186.7605431000702,315,45,186.7605431000702,186.7605431000702,186.7605431000702,186.7605431000702,186.7605431000702,186.7605431000702,186.7605431000702,186.7605431000702,186.7605431000702,187.11041689990088,187.11041689990088,187.11041689990088,187.11041689990088,187.11041689990088,187.11041689990088,187.11041689990088,187.11041689990088,187.11041689990088,22,0,,,187.11041689990088,187.31047150003724,0.0,187.32711989991367,0,0.0,0,1,1000,num_1,1.1997168001253158,,37,11,2026-03-13_18h28.14.285,2026A_exp2,2022.2.4,59.992788881708094,
1000,1,6.1,4.9,1,0,44,44,16,,,,,188.54523889999837,189.17913439986296,189.17913439986296,189.67997230007313,45,45,189.67997230007313,189.67997230007313,189.67997230007313,189.67997230007313,189.67997230007313,189.67997230007313,189.67997230007313,189.67997230007313,189.67997230007313,190.04662909987383,190.04662909987383,190.04662909987383,190.04662909987383,190.04662909987383,190.04662909987383,190.04662909987383,190.04662909987383,190.04662909987383,3,4,"[0.0012803999707102776, 0.13601420004852116, 0.23371890000998974, 0.3672873000614345]","[0.11921850009821355, 0.21671209996566176, 0.35061089997179806, 0.3672917000949383]",190.04662909987383,190.24688009987585,1000,190.24688009987585,1000,1000,1000,1000,0,num_3,0.5359336999244988,,37,11,2026-03-13_18h28.14.285,2026A_exp2,2022.2.4,59.992788881708094,
0,0,0.0,4.9,1,0,45,45,56,,,,,190.8141937998589,191.46471529989503,191.46471529989503,191.96591989998706,45,315,191.96591989998706,191.96591989998706,191.96591989998706,191.96591989998706,191.96591989998706,191.96591989998706,191.96591989998706,191.96591989998706,191.96591989998706,192.31547449994832,192.31547449994832,192.31547449994832,192.31547449994832,192.31547449994832,192.31547449994832,192.31547449994832,192.31547449994832,192.31547449994832,0,1,[0.0011998999398201704],[0.3505154999438673],192.31547449994832,192.51580339996144,0.0,192.51580339996144,0,0.0,0,1,1000,num_1,1.1235990999266505,,37,11,2026-03-13_18h28.14.285,2026A_exp2,2022.2.4,59.992788881708094,
1000,1,0.0,0.0,0,0,46,46,65,,,,,193.66669990005903,194.3175981999375,194.3175981999375,194.8020375999622,45,315,194.8020375999622,194.8020375999622,194.8020375999622,194.8020375999622,194.8020375999622,194.8020375999622,194.8020375999622,194.8020375999622,194.8020375999622,195.16837770002894,195.16837770002894,195.16837770002894,195.16837770002894,195.16837770002894,195.16837770002894,195.16837770002894,195.16837770002894,195.16837770002894,4,3,"[0.00119420001283288, 0.18380299978889525, 0.300154099939391]","[0.16699779988266528, 0.2667665998451412, 0.3668638998642564]",195.16837770002894,195.37053780001588,1000,195.37053780001588,1000,1000,1000,1000,0,num_3,1.0131860000547022,,37,11,2026-03-13_18h28.14.285,2026A_exp2,2022.2.4,59.992788881708094,
1,0,4.9,0.0,0,0,47,47,48,,,,,196.40293009998277,197.0536825999152,197.0536825999152,197.5549385000486,315,315,197.5549385000486,197.5549385000486,197.5549385000486,197.5549385000486,197.5549385000486,197.5549385000486,197.5549385000486,197.5549385000486,197.5549385000486,197.92112509999424,197.92112509999424,197.92112509999424,197.92112509999424,197.92112509999424,197.92112509999424,197.92112509999424,197.92112509999424,197.92112509999424,12,3,"[0.0012494998518377542, 0.16709159989841282, 0.23353450000286102]","[0.13345009996555746, 0.20019109989516437, 0.2500979998148978]",197.92112509999424,198.12132749985904,4.9,198.12132749985904,1,4.9,1,1,1000,num_4,0.9415273000486195,,37,11,2026-03-13_18h28.14.285,2026A_exp2,2022.2.4,59.992788881708094,
1,0,0.0,0.0,1,0,48,48,73,,,,,199.08884899993427,199.74600759986788,199.74600759986788,200.22409670008346,315,315,200.22409670008346,200.22409670008346,200.22409670008346,200.22409670008346,200.22409670008346,200.22409670008346,200.22409670008346,200.22409670008346,200.22409670008346,200.5900995999109,200.5900995999109,200.5900995999109,200.5900995999109,200.5900995999109,200.5900995999109,200.5900995999109,200.5900995999109,200.5900995999109,1,2,"[0.0012435999233275652, 0.350386600010097]","[0.3336185999214649, 0.3671281998977065]",200.5900995999109,200.79070480004884,0.0,200.79070480004884,1,0.0,0,0,1000,num_4,0.7851422999519855,,37,11,2026-03-13_18h28.14.285,2026A_exp2,2022.2.4,59.992788881708094,
1000,1,6.1,3.7,1,0,49,49,10,,,,,201.60819529998116,202.2588734999299,202.2588734999299,202.7432810999453,45,315,202.7432810999453,202.7432810999453,202.7432810999453,202.7432810999453,202.7432810999453,202.7432810999453,202.7432810999453,202.7432810999453,202.7432810999453,203.10966060007922,203.10966060007922,203.10966060007922,203.10966060007922,203.10966060007922,203.10966060007922,203.10966060007922,203.10966060007922,203.10966060007922,0,1,[0.0012326000723987818],[0.36723740003071725],203.10966060007922,203.31158580002375,1000,203.31158580002375,1000,1000,1000,1000,0,num_3,0.839543400099501,,37,11,2026-03-13_18h28.14.285,2026A_exp2,2022.2.4,59.992788881708094,
1,0,0.0,3.7,1,0,50,50,57,,,,,204.1773218999151,204.8281280999072,204.8281280999072,205.32920729997568,315,45,205.32920729997568,205.32920729997568,205.32920729997568,205.32920729997568,205.32920729997568,205.32920729997568,205.32920729997568,205.32920729997568,205.32920729997568,205.6956523999106,205.6956523999106,205.6956523999106,205.6956523999106,205.6956523999106,205.6956523999106,205.6956523999106,205.6956523999106,205.6956523999106,0,1,[0.0012169999536126852],[0.36707219993695617],205.6956523999106,205.89580589998513,3.7,205.89580589998513,1,3.7,1,1,1000,num_4,0.7991539998911321,,37,11,2026-03-13_18h28.14.285,2026A_exp2,2022.2.4,59.992788881708094,
1,0,4.9,4.9,0,0,51,51,63,,,,,206.71308010001667,207.36392530007288,207.36392530007288,207.84844490000978,315,45,207.84844490000978,207.84844490000978,207.84844490000978,207.84844490000978,207.84844490000978,207.84844490000978,207.84844490000978,207.84844490000978,207.84844490000978,208.21482890006155,208.21482890006155,208.21482890006155,208.21482890006155,208.21482890006155,208.21482890006155,208.21482890006155,208.21482890006155,208.21482890006155,1,2,"[0.0011976000387221575, 0.1503291002009064]","[0.13345840014517307, 0.36715750000439584]",208.21482890006155,208.4150129999034,4.9,208.4150129999034,1,4.9,1,1,1000,num_4,1.0804292999673635,,37,11,2026-03-13_18h28.14.285,2026A_exp2,2022.2.4,59.992788881708094,
1,0,4.9,0.0,1,0,52,52,6,,,,,209.51640630001202,210.16676239995286,210.16676239995286,210.65111169987358,315,315,210.65111169987358,210.65111169987358,210.65111169987358,210.65111169987358,210.65111169987358,210.65111169987358,210.65111169987358,210.65111169987358,210.65111169987358,211.0175753000658,211.0175753000658,211.0175753000658,211.0175753000658,211.0175753000658,211.0175753000658,211.0175753000658,211.0175753000658,211.0175753000658,0,1,[0.001193600008264184],[0.36708290013484657],211.0175753000658,211.21781380008906,0.0,211.21781380008906,0,0.0,0,1,1000,num_1,1.589319699909538,,37,11,2026-03-13_18h28.14.285,2026A_exp2,2022.2.4,59.992788881708094,
1000,1,0.0,0.0,1,0,53,53,23,,,,,212.83581349998713,213.48658240004443,213.48658240004443,213.9875091998838,45,45,213.9875091998838,213.9875091998838,213.9875091998838,213.9875091998838,213.9875091998838,213.9875091998838,213.9875091998838,213.9875091998838,213.9875091998838,214.33751869993284,214.33751869993284,214.33751869993284,214.33751869993284,214.33751869993284,214.33751869993284,214.33751869993284,214.33751869993284,214.33751869993284,2,2,"[0.0041228001937270164, 0.23045570007525384]","[0.19698460004292428, 0.3638374002184719]",214.33751869993284,214.53953099995852,1000,214.53953099995852,1000,1000,1000,1000,0,num_3,1.003454899881035,,37,11,2026-03-13_18h28.14.285,2026A_exp2,2022.2.4,59.992788881708094,
1,0,0.0,0.0,0,0,54,54,59,,,,,215.5722210998647,216.20618189987727,216.20618189987727,216.70726599986665,315,45,216.70726599986665,216.70726599986665,216.70726599986665,216.70726599986665,216.70726599986665,216.70726599986665,216.70726599986665,216.70726599986665,216.70726599986665,217.07346590003,217.07346590003,217.07346590003,217.07346590003,217.07346590003,217.07346590003,217.07346590003,217.07346590003,217.07346590003,0,1,[0.0012800998520106077],[0.36714089987799525],217.07346590003,217.27388420002535,0.0,217.27388420002535,1,0.0,0,0,1000,num_4,1.8768013000953943,,37,11,2026-03-13_18h28.14.285,2026A_exp2,2022.2.4,59.992788881708094,
1000,1,6.1,0.0,1,0,55,55,60,,,,,219.1756919999607,219.82641840004362,219.82641840004362,220.3275629999116,45,45,220.3275629999116,220.3275629999116,220.3275629999116,220.3275629999116,220.3275629999116,220.3275629999116,220.3275629999116,220.3275629999116,220.3275629999116,220.67718790005893,220.67718790005893,220.67718790005893,220.67718790005893,220.67718790005893,220.67718790005893,220.67718790005893,220.67718790005893,220.67718790005893,0,1,[0.0012046999763697386],[0.35042469995096326],220.67718790005893,220.87929260008968,1000,220.87929260008968,1000,1000,1000,1000,0,num_3,0.5197630000766367,,37,11,2026-03-13_18h28.14.285,2026A_exp2,2022.2.4,59.992788881708094,
1,0,0.0,0.0,1,0,56,56,41,,,,,221.42801079992205,222.07854999997653,222.07854999997653,222.57980150007643,315,45,222.57980150007643,222.57980150007643,222.57980150007643,222.57980150007643,222.57980150007643,222.57980150007643,222.57980150007643,222.57980150007643,222.57980150007643,222.94603660004213,222.94603660004213,222.94603660004213,222.94603660004213,222.94603660004213,222.94603660004213,222.94603660004213,222.94603660004213,222.94603660004213,23,0,,,222.94603660004213,223.14643409987912,0.0,223.14643409987912,1,0.0,0,0,1000,num_4,2.0774329998530447,,37,11,2026-03-13_18h28.14.285,2026A_exp2,2022.2.4,59.992788881708094,
1,0,6.1,3.7,0,0,57,57,26,,,,,225.24835049989633,225.89903400000185,225.89903400000185,226.4003037000075,315,315,226.4003037000075,226.4003037000075,226.4003037000075,226.4003037000075,226.4003037000075,226.4003037000075,226.4003037000075,226.4003037000075,226.4003037000075,226.7666688999161,226.7666688999161,226.7666688999161,226.7666688999161,226.7666688999161,226.7666688999161,226.7666688999161,226.7666688999161,226.7666688999161,23,0,,,226.7666688999161,226.96687739994377,6.1,226.96687739994377,1,6.1,1,1,1000,num_4,4.3201925999019295,,37,11,2026-03-13_18h28.14.285,2026A_exp2,2022.2.4,59.992788881708094,
0,0,3.7,0.0,1,0,58,58,83,,,,,231.30467469990253,231.95523159997538,231.95523159997538,232.43944939994253,315,315,232.43944939994253,232.43944939994253,232.43944939994253,232.43944939994253,232.43944939994253,232.43944939994253,232.43944939994253,232.43944939994253,232.43944939994253,232.8060071999207,232.8060071999207,232.8060071999207,232.8060071999207,232.8060071999207,232.8060071999207,232.8060071999207,232.8060071999207,232.8060071999207,0,1,[0.001529499888420105],[0.36674159998074174],232.8060071999207,233.00612799986266,3.7,233.00612799986266,1,3.7,1,1,1000,num_4,1.145812600152567,,37,11,2026-03-13_18h28.14.285,2026A_exp2,2022.2.4,59.992788881708094,
1,0,0.0,0.0,0,0,59,59,9,,,,,234.1739099000115,234.82476540002972,234.82476540002972,235.3091547000222,45,45,235.3091547000222,235.3091547000222,235.3091547000222,235.3091547000222,235.3091547000222,235.3091547000222,235.3091547000222,235.3091547000222,235.3091547000222,235.6755951999221,235.6755951999221,235.6755951999221,235.6755951999221,235.6755951999221,235.6755951999221,235.6755951999221,235.6755951999221,235.6755951999221,0,1,[0.000767099903896451],[0.3674848999362439],235.6755951999221,235.87584470002912,0.0,235.87584470002912,0,0.0,0,1,1000,num_1,1.3639669998083264,,37,11,2026-03-13_18h28.14.285,2026A_exp2,2022.2.4,59.992788881708094,
1,0,6.1,0.0,1,0,60,60,13,,,,,237.26034209993668,237.91114500002004,237.91114500002004,238.39553890004754,315,315,238.39553890004754,238.39553890004754,238.39553890004754,238.39553890004754,238.39553890004754,238.39553890004754,238.39553890004754,238.39553890004754,238.39553890004754,238.7622845999431,238.7622845999431,238.7622845999431,238.7622845999431,238.7622845999431,238.7622845999431,238.7622845999431,238.7622845999431,238.7622845999431,1,2,"[0.001242100028321147, 0.18348150001838803]","[0.16711430018767715, 0.36706960014998913]",238.7622845999431,238.96215849998407,0.0,238.96215849998407,0,0.0,0,1,1000,num_1,0.7812263001687825,,37,11,2026-03-13_18h28.14.285,2026A_exp2,2022.2.4,59.992788881708094,
1,0,0.0,3.7,0,0,61,61,12,,,,,239.76278580003418,240.41366750001907,240.41366750001907,240.89813739992678,45,315,240.89813739992678,240.89813739992678,240.89813739992678,240.89813739992678,240.89813739992678,240.89813739992678,240.89813739992678,240.89813739992678,240.89813739992678,241.2645161000546,241.2645161000546,241.2645161000546,241.2645161000546,241.2645161000546,241.2645161000546,241.2645161000546,241.2645161000546,241.2645161000546,0,1,[0.001198299927636981],[0.36721749999560416],241.2645161000546,241.46471529989503,0.0,241.46471529989503,0,0.0,0,1,1000,num_1,0.5420379000715911,,37,11,2026-03-13_18h28.14.285,2026A_exp2,2022.2.4,59.992788881708094,
1,0,4.9,6.1,1,0,62,62,86,,,,,242.0318875000812,242.68245780002326,242.68245780002326,243.1669592000544,45,45,243.1669592000544,243.1669592000544,243.1669592000544,243.1669592000544,243.1669592000544,243.1669592000544,243.1669592000544,243.1669592000544,243.1669592000544,243.53335559996776,243.53335559996776,243.53335559996776,243.53335559996776,243.53335559996776,243.53335559996776,243.53335559996776,243.53335559996776,243.53335559996776,0,1,[0.0012505000922828913],[0.3671209001913667],243.53335559996776,243.7336138000246,6.1,243.7336138000246,1,6.1,1,1,1000,num_4,0.9053040000144392,,37,11,2026-03-13_18h28.14.285,2026A_exp2,2022.2.4,59.992788881708094,
1000,1,0.0,0.0,1,0,63,63,14,,,,,244.66779839992523,245.31859449995682,245.31859449995682,245.80295079993084,45,45,245.80295079993084,245.80295079993084,245.80295079993084,245.80295079993084,245.80295079993084,245.80295079993084,245.80295079993084,245.80295079993084,245.80295079993084,246.16948370006867,246.16948370006867,246.16948370006867,246.16948370006867,246.16948370006867,246.16948370006867,246.16948370006867,246.16948370006867,246.16948370006867,0,1,[0.001198899932205677],[0.36700590001419187],246.16948370006867,246.37146819988266,1000,246.37146819988266,1000,1000,1000,1000,1,num_2,1.5633256998844445,,37,11,2026-03-13_18h28.14.285,2026A_exp2,2022.2.4,59.992788881708094,
1,0,4.9,0.0,1,0,64,64,82,,,,,247.95461770007387,248.60525029990822,248.60525029990822,249.10618270002306,315,315,249.10618270002306,249.10618270002306,249.10618270002306,249.10618270002306,249.10618270002306,249.10618270002306,249.10618270002306,249.10618270002306,249.10618270002306,249.47249779989943,249.47249779989943,249.47249779989943,249.47249779989943,249.47249779989943,249.47249779989943,249.47249779989943,249.47249779989943,249.47249779989943,0,1,[0.001240900019183755],[0.3671155001502484],249.47249779989943,249.67295759986155,0.0,249.67295759986155,0,0.0,0,1,1000,num_1,0.918621800141409,,37,11,2026-03-13_18h28.14.285,2026A_exp2,2022.2.4,59.992788881708094,
1,0,0.0,4.9,0,0,65,65,85,,,,,250.6070453999564,251.25772210001014,251.25772210001014,251.7589851000812,45,315,251.7589851000812,251.7589851000812,251.7589851000812,251.7589851000812,251.7589851000812,251.7589851000812,251.7589851000812,251.7589851000812,251.7589851000812,252.12525000004098,252.12525000004098,252.12525000004098,252.12525000004098,252.12525000004098,252.12525000004098,252.12525000004098,252.12525000004098,252.12525000004098,0,1,[0.0011968000326305628],[0.3671746999025345],252.12525000004098,252.325439899927,0.0,252.325439899927,0,0.0,0,1,1000,num_1,0.7935766000300646,,37,11,2026-03-13_18h28.14.285,2026A_exp2,2022.2.4,59.992788881708094,
1,0,0.0,4.9,1,0,66,66,45,,,,,253.1429220000282,253.77690119994804,253.77690119994804,254.2781894998625,315,315,254.2781894998625,254.2781894998625,254.2781894998625,254.2781894998625,254.2781894998625,254.2781894998625,254.2781894998625,254.2781894998625,254.2781894998625,254.64447679999284,254.64447679999284,254.64447679999284,254.64447679999284,254.64447679999284,254.64447679999284,254.64447679999284,254.64447679999284,254.64447679999284,0,1,[0.0011863000690937042],[0.36728090001270175],254.64447679999284,254.84462129999883,4.9,254.84462129999883,1,4.9,1,1,1000,num_4,0.8582705000881106,,37,11,2026-03-13_18h28.14.285,2026A_exp2,2022.2.4,59.992788881708094,
0,0,0.0,4.9,0,0,67,67,54,,,,,255.728840299882,256.37956009991467,256.37956009991467,256.8640463000629,45,45,256.8640463000629,256.8640463000629,256.8640463000629,256.8640463000629,256.8640463000629,256.8640463000629,256.8640463000629,256.8640463000629,256.8640463000629,257.2302784998901,257.2302784998901,257.2302784998901,257.2302784998901,257.2302784998901,257.2302784998901,257.2302784998901,257.2302784998901,257.2302784998901,0,1,[0.0012148998212069273],[0.3670462998561561],257.2302784998901,257.4305422999896,4.9,257.4305422999896,1,4.9,1,1,1000,num_4,0.5448650000616908,,37,11,2026-03-13_18h28.14.285,2026A_exp2,2022.2.4,59.992788881708094,
1,0,0.0,0.0,0,0,68,68,81,,,,,257.99788399995305,258.6484808998648,258.6484808998648,259.13289069989696,315,45,259.13289069989696,259.13289069989696,259.13289069989696,259.13289069989696,259.13289069989696,259.13289069989696,259.13289069989696,259.13289069989696,259.13289069989696,259.49933680007234,259.49933680007234,259.49933680007234,259.49933680007234,259.49933680007234,259.49933680007234,259.49933680007234,259.49933680007234,259.49933680007234,0,1,[0.001217300072312355],[0.367026099935174],259.49933680007234,259.6996535998769,0.0,259.6996535998769,1,0.0,0,0,1000,num_4,1.099887500051409,,37,11,2026-03-13_18h28.14.285,2026A_exp2,2022.2.4,59.992788881708094,
1000,1,4.9,0.0,0,0,69,69,22,,,,,260.81711139995605,261.4681072998792,261.4681072998792,261.9690028000623,45,45,261.9690028000623,261.9690028000623,261.9690028000623,261.9690028000623,261.9690028000623,261.9690028000623,261.9690028000623,261.9690028000623,261.9690028000623,262.3356266000774,262.3356266000774,262.3356266000774,262.3356266000774,262.3356266000774,262.3356266000774,262.3356266000774,262.3356266000774,262.3356266000774,0,1,[0.001193799776956439],[0.3671511998400092],262.3356266000774,262.5374648999423,1000,262.5374648999423,1000,1000,1000,1000,0,num_3,0.6221620000433177,,37,11,2026-03-13_18h28.14.285,2026A_exp2,2022.2.4,59.992788881708094,
0,0,0.0,3.7,1,0,70,70,21,,,,,263.18627350009046,263.8369919999968,263.8369919999968,264.33821190008894,315,315,264.33821190008894,264.33821190008894,264.33821190008894,264.33821190008894,264.33821190008894,264.33821190008894,264.33821190008894,264.33821190008894,264.33821190008894,264.7045509000309,264.7045509000309,264.7045509000309,264.7045509000309,264.7045509000309,264.7045509000309,264.7045509000309,264.7045509000309,264.7045509000309,0,1,[0.001227600034326315],[0.3672941999975592],264.7045509000309,264.9048647999298,0.0,264.9048647999298,0,0.0,0,1,1000,num_1,1.2140064998529851,,37,11,2026-03-13_18h28.14.285,2026A_exp2,2022.2.4,59.992788881708094,
1000,1,0.0,0.0,0,0,71,71,20,,,,,266.13923269999214,266.79002219997346,266.79002219997346,267.27444639988244,45,45,267.27444639988244,267.27444639988244,267.27444639988244,267.27444639988244,267.27444639988244,267.27444639988244,267.27444639988244,267.27444639988244,267.27444639988244,267.6406948999502,267.6406948999502,267.6406948999502,267.6406948999502,267.6406948999502,267.6406948999502,267.6406948999502,267.6406948999502,267.6406948999502,4,5,"[0.0011930998880416155, 0.18370739999227226, 0.2173953999299556, 0.26728709996677935, 0.3670377000235021]","[0.16718109999783337, 0.20050459983758628, 0.25055469991639256, 0.35015639988705516, 0.36704069981351495]",267.6406948999502,267.8427772000432,1000,267.8427772000432,1000,1000,1000,1000,0,num_3,1.9094060000497848,,37,11,2026-03-13_18h28.14.285,2026A_exp2,2022.2.4,59.992788881708094,
1,0,0.0,6.1,0,0,72,72,5,,,,,269.7761891998816,270.42685739998706,270.42685739998706,270.9280204998795,45,45,270.9280204998795,270.9280204998795,270.9280204998795,270.9280204998795,270.9280204998795,270.9280204998795,270.9280204998795,270.9280204998795,270.9280204998795,271.2778618999291,271.2778618999291,271.2778618999291,271.2778618999291,271.2778618999291,271.2778618999291,271.2778618999291,271.2778618999291,271.2778618999291,0,1,[0.0011922998819500208],[0.350566899869591],271.2778618999291,271.4780675000511,0.0,271.4780675000511,0,0.0,0,1,1000,num_1,0.9294853999745101,,37,11,2026-03-13_18h28.14.285,2026A_exp2,2022.2.4,59.992788881708094,
1000,1,0.0,0.0,1,0,73,73,47,,,,,272.42884649988264,273.0795219000429,273.0795219000429,273.56392049998976,45,315,273.56392049998976,273.56392049998976,273.56392049998976,273.56392049998976,273.56392049998976,273.56392049998976,273.56392049998976,273.56392049998976,273.56392049998976,273.9303961000405,273.9303961000405,273.9303961000405,273.9303961000405,273.9303961000405,273.9303961000405,273.9303961000405,273.9303961000405,273.9303961000405,23,0,,,273.9303961000405,274.1324982000515,1000,274.1324982000515,1000,1000,1000,1000,0,num_3,0.6749927999917418,,37,11,2026-03-13_18h28.14.285,2026A_exp2,2022.2.4,59.992788881708094,
1000,1,4.9,4.9,0,0,74,74,31,,,,,274.8314080000855,275.48205169988796,275.48205169988796,275.9931214998942,45,45,275.9931214998942,275.9931214998942,275.9931214998942,275.9931214998942,275.9931214998942,275.9931214998942,275.9931214998942,275.9931214998942,275.9931214998942,276.3496165999677,276.3496165999677,276.3496165999677,276.3496165999677,276.3496165999677,276.3496165999677,276.3496165999677,276.3496165999677,276.3496165999677,23,0,,,276.3496165999677,276.5539716000203,1000,276.5539716000203,1000,1000,1000,1000,0,num_3,0.4287239001132548,,37,11,2026-03-13_18h28.14.285,2026A_exp2,2022.2.4,59.992788881708094,
1,0,0.0,6.1,0,0,75,75,68,,,,,277.000112199923,277.6508392000105,277.6508392000105,278.15194129990414,45,45,278.15194129990414,278.15194129990414,278.15194129990414,278.15194129990414,278.15194129990414,278.15194129990414,278.15194129990414,278.15194129990414,278.15194129990414,278.51848119986244,278.51848119986244,278.51848119986244,278.51848119986244,278.51848119986244,278.51848119986244,278.51848119986244,278.51848119986244,278.51848119986244,23,0,,,278.51848119986244,278.71859880001284,0.0,278.71859880001284,0,0.0,0,1,1000,num_1,0.7682931998278946,,37,11,2026-03-13_18h28.14.285,2026A_exp2,2022.2.4,59.992788881708094,
1000,1,0.0,4.9,0,0,76,76,77,,,,,279.5026966999285,280.15350380004384,280.15350380004384,280.65462430007756,315,45,280.65462430007756,280.65462430007756,280.65462430007756,280.65462430007756,280.65462430007756,280.65462430007756,280.65462430007756,280.65462430007756,280.65462430007756,281.00418649986386,281.00418649986386,281.00418649986386,281.00418649986386,281.00418649986386,281.00418649986386,281.00418649986386,281.00418649986386,281.00418649986386,8,3,"[0.0007422999478876591, 0.10044939978979528, 0.1841192999854684]","[0.033774699782952666, 0.11745919985696673, 0.3509652998764068]",281.00418649986386,281.2065162998624,1000,281.2065162998624,1000,1000,1000,1000,1,num_2,0.5611524998676032,,37,11,2026-03-13_18h28.14.285,2026A_exp2,2022.2.4,59.992788881708094,
1,0,0.0,0.0,1,0,77,77,70,,,,,281.78828689991497,282.43884649989195,282.43884649989195,282.94010920007713,45,315,282.94010920007713,282.94010920007713,282.94010920007713,282.94010920007713,282.94010920007713,282.94010920007713,282.94010920007713,282.94010920007713,282.94010920007713,283.3065887000412,283.3065887000412,283.3065887000412,283.3065887000412,283.3065887000412,283.3065887000412,283.3065887000412,283.3065887000412,283.3065887000412,23,0,,,283.3065887000412,283.5067368000746,0.0,283.5067368000746,1,0.0,0,0,1000,num_4,0.8842940998729318,,37,11,2026-03-13_18h28.14.285,2026A_exp2,2022.2.4,59.992788881708094,
1,0,0.0,3.7,0,0,78,78,78,,,,,284.409205700038,285.06867030006833,285.06867030006833,285.56454219995067,45,45,285.56454219995067,285.56454219995067,285.56454219995067,285.56454219995067,285.56454219995067,285.56454219995067,285.56454219995067,285.56454219995067,285.56454219995067,285.92586369998753,285.92586369998753,285.92586369998753,285.92586369998753,285.92586369998753,285.92586369998753,285.92586369998753,285.92586369998753,285.92586369998753,21,2,"[0.10031890007667243, 0.33391380007378757]","[0.11688300012610853, 0.3505160000640899]",285.92586369998753,286.12953509995714,0.0,286.12953509995714,0,0.0,0,1,1000,num_1,2.6138305999338627,,37,11,2026-03-13_18h28.14.285,2026A_exp2,2022.2.4,59.992788881708094,
1000,1,4.9,3.7,1,0,79,79,67,,,,,288.7617154000327,289.4054696999956,289.4054696999956,289.90273949992843,45,45,289.90273949992843,289.90273949992843,289.90273949992843,289.90273949992843,289.90273949992843,289.90273949992843,289.90273949992843,289.90273949992843,289.90273949992843,290.2634616999421,290.2634616999421,290.2634616999421,290.2634616999421,290.2634616999421,290.2634616999421,290.2634616999421,290.2634616999421,290.2634616999421,23,0,,,290.2634616999421,290.46536420006305,1000,290.46536420006305,1000,1000,1000,1000,0,num_3,0.477930799825117,,37,11,2026-03-13_18h28.14.285,2026A_exp2,2022.2.4,59.992788881708094,
1,0,0.0,4.9,0,0,80,80,17,,,,,290.96404620003887,291.61484230007045,291.61484230007045,292.1160343999509,45,45,292.1160343999509,292.1160343999509,292.1160343999509,292.1160343999509,292.1160343999509,292.1160343999509,292.1160343999509,292.1160343999509,292.1160343999509,292.48233380005695,292.48233380005695,292.48233380005695,292.48233380005695,292.48233380005695,292.48233380005695,292.48233380005695,292.48233380005695,292.48233380005695,23,0,,,292.48233380005695,292.68253910006024,0.0,292.68253910006024,0,0.0,0,1,1000,num_1,1.4845662999432534,,37,11,2026-03-13_18h28.14.285,2026A_exp2,2022.2.4,59.992788881708094,
1000,1,3.7,0.0,1,0,81,81,79,,,,,294.1838759998791,294.83477409998886,294.83477409998886,295.31907099997625,45,315,295.31907099997625,295.31907099997625,295.31907099997625,295.31907099997625,295.31907099997625,295.31907099997625,295.31907099997625,295.31907099997625,295.31907099997625,295.68555089994334,295.68555089994334,295.68555089994334,295.68555089994334,295.68555089994334,295.68555089994334,295.68555089994334,295.68555089994334,295.68555089994334,0,1,[0.0011794001329690218],[0.3672766999807209],295.68555089994334,295.8873121999204,1000,295.8873121999204,1000,1000,1000,1000,0,num_3,0.8161563000176102,,37,11,2026-03-13_18h28.14.285,2026A_exp2,2022.2.4,59.992788881708094,
1000,1,0.0,4.9,1,0,82,82,51,,,,,296.71975139994174,297.37059609987773,297.37059609987773,297.8808204999659,45,45,297.8808204999659,297.8808204999659,297.8808204999659,297.8808204999659,297.8808204999659,297.8808204999659,297.8808204999659,297.8808204999659,297.8808204999659,298.23799340007827,298.23799340007827,298.23799340007827,298.23799340007827,298.23799340007827,298.23799340007827,298.23799340007827,298.23799340007827,298.23799340007827,23,0,,,298.23799340007827,298.4446411000099,1000,298.4446411000099,1000,1000,1000,1000,1,num_2,0.6500999999698251,,37,11,2026-03-13_18h28.14.285,2026A_exp2,2022.2.4,59.992788881708094,
1000,1,0.0,0.0,0,0,83,83,75,,,,,299.1222170998808,299.77303140005097,299.77303140005097,300.274135600077,315,45,300.274135600077,300.274135600077,300.274135600077,300.274135600077,300.274135600077,300.274135600077,300.274135600077,300.274135600077,300.274135600077,300.64051830000244,300.64051830000244,300.64051830000244,300.64051830000244,300.64051830000244,300.64051830000244,300.64051830000244,300.64051830000244,300.64051830000244,23,0,,,300.64051830000244,300.84083170001395,1000,300.84083170001395,1000,1000,1000,1000,1,num_2,2.5499647001270205,,37,11,2026-03-13_18h28.14.285,2026A_exp2,2022.2.4,59.992788881708094,
1000,1,6.1,3.7,1,0,84,84,24,,,,,303.4099208000116,304.0606434000656,304.0606434000656,304.57793419994414,45,315,304.57793419994414,304.57793419994414,304.57793419994414,304.57793419994414,304.57793419994414,304.57793419994414,304.57793419994414,304.57793419994414,304.57793419994414,304.9282015999779,304.9282015999779,304.9282015999779,304.9282015999779,304.9282015999779,304.9282015999779,304.9282015999779,304.9282015999779,304.9282015999779,23,0,,,304.9282015999779,305.1304554999806,1000,305.1304554999806,1000,1000,1000,1000,0,num_3,0.5571547001600266,,37,11,2026-03-13_18h28.14.285,2026A_exp2,2022.2.4,59.992788881708094,
1000,1,0.0,3.7,0,0,85,85,52,,,,,305.71219739993103,306.36293439986184,306.36293439986184,306.864000499947,45,315,306.864000499947,306.864000499947,306.864000499947,306.864000499947,306.864000499947,306.864000499947,306.864000499947,306.864000499947,306.864000499947,307.23050529998727,307.23050529998727,307.23050529998727,307.23050529998727,307.23050529998727,307.23050529998727,307.23050529998727,307.23050529998727,307.23050529998727,23,0,,,307.23050529998727,307.43233149987645,1000,307.43233149987645,1000,1000,1000,1000,1,num_2,0.5119370999746025,,37,11,2026-03-13_18h28.14.285,2026A_exp2,2022.2.4,59.992788881708094,
1000,1,6.1,0.0,0,0,86,86,19,,,,,307.96460419986397,308.61518399999477,308.61518399999477,309.1161684000399,315,315,309.1161684000399,309.1161684000399,309.1161684000399,309.1161684000399,309.1161684000399,309.1161684000399,309.1161684000399,309.1161684000399,309.1161684000399,309.482725400012,309.482725400012,309.482725400012,309.482725400012,309.482725400012,309.482725400012,309.482725400012,309.482725400012,309.482725400012,23,0,,,309.482725400012,309.6833617000375,1000,309.6833617000375,1000,1000,1000,1000,0,num_3,0.14746390003710985,,37,11,2026-03-13_18h28.14.285,2026A_exp2,2022.2.4,59.992788881708094,
1000,1,0.0,0.0,1,0,87,87,7,,,,,309.84968820004724,310.50040289992467,310.50040289992467,311.0015964000486,45,315,311.0015964000486,311.0015964000486,311.0015964000486,311.0015964000486,311.0015964000486,311.0015964000486,311.0015964000486,311.0015964000486,311.0015964000486,311.3679311000742,311.3679311000742,311.3679311000742,311.3679311000742,311.3679311000742,311.3679311000742,311.3679311000742,311.3679311000742,311.3679311000742,0,1,[0.0010661000851541758],[0.36734070000238717],311.3679311000742,311.56844539986923,1000,311.56844539986923,1000,1000,1000,1000,1,num_2,0.3915354001801461,,37,11,2026-03-13_18h28.14.285,2026A_exp2,2022.2.4,59.992788881708094,
1000,1,3.7,0.0,1,0,88,88,55,,,,,311.9852926998865,312.63593339989893,312.63593339989893,313.1366439999547,45,45,313.1366439999547,313.1366439999547,313.1366439999547,313.1366439999547,313.1366439999547,313.1366439999547,313.1366439999547,313.1366439999547,313.1366439999547,313.50334049994126,313.50334049994126,313.50334049994126,313.50334049994126,313.50334049994126,313.50334049994126,313.50334049994126,313.50334049994126,313.50334049994126,23,0,,,313.50334049994126,313.70518280006945,1000,313.70518280006945,1000,1000,1000,1000,0,num_3,0.445634099887684,,37,11,2026-03-13_18h28.14.285,2026A_exp2,2022.2.4,59.992788881708094,
1000,1,6.1,0.0,0,0,89,89,33,,,,,314.1706206998788,314.82133199996315,314.82133199996315,315.3225692999549,45,45,315.3225692999549,315.3225692999549,315.3225692999549,315.3225692999549,315.3225692999549,315.3225692999549,315.3225692999549,315.3225692999549,315.3225692999549,315.6889658998698,315.6889658998698,315.6889658998698,315.6889658998698,315.6889658998698,315.6889658998698,315.6889658998698,315.6889658998698,315.6889658998698,0,1,[0.0012026000767946243],[0.36726099997758865],315.6889658998698,315.8909195000306,1000,315.8909195000306,1000,1000,1000,1000,0,num_3,0.12482100003398955,,37,11,2026-03-13_18h28.14.285,2026A_exp2,2022.2.4,59.992788881708094,
,,,,,,,,,,,,,,,,,,,,,,,,,,,,,,,,,,,,,,,,,,,,,,,,,,,,316.0459406999871,,,,,,,
