validity,detectorcomp,contrastCW,contrastCCW,precueCWorCCW,block_80trials.thisRepN,block_80trials.thisTrialN,block_80trials.thisN,block_80trials.thisIndex,etRecord.started,etRecord.stopped,text.started,text.stopped,text_4.started,text_4.stopped,text_6.started,text_6.stopped,oriCW,oriCCW,roi_2.started,grating_UR.started,grating_UL.started,grating_LR.started,grating_LL.started,noise_UR.started,noise_UL.started,noise_LR.started,noise_LL.started,roi_2.stopped,grating_UR.stopped,grating_UL.stopped,grating_LR.stopped,grating_LL.stopped,noise_UR.stopped,noise_UL.stopped,noise_LR.stopped,noise_LL.stopped,outframe,roi_2.numLooks,roi_2.timesOn,roi_2.timesOff,text_2.started,text_2.stopped,probedcontrast,key_resp.started,respdetect,relevantContrast,correctDetect,TorFdetect,respCWorCCW,key_resp.keys,key_resp.rt,feedback_display_.started,participantNo,blockNo,date,expName,psychopyVersion,frameRate,
1,0,6.1,6.1,1,0,0,0,23,3.260001540184021e-05,3.260001540184021e-05,47.08884979999857,49.091645700042136,49.091645700042136,49.72595520003233,49.72595520003233,50.246039399993606,315,315,50.246039399993606,50.246039399993606,50.246039399993606,50.246039399993606,50.246039399993606,50.246039399993606,50.246039399993606,50.246039399993606,50.246039399993606,50.59335750003811,50.59335750003811,50.59335750003811,50.59335750003811,50.59335750003811,50.59335750003811,50.59335750003811,50.59335750003811,50.59335750003811,0,1,[0.0010378000442869961],[0.36632140004076064],50.59335750003811,50.793788700015284,6.1,50.793788700015284,1,6.1,1,1,1000,num_4,1.0414495000150055,,26,12,2026-03-05_11h15.11.886,2026A_exp2,2022.2.4,59.769361969358386,
1000,1,3.7,6.1,1,0,1,1,48,,,,,51.861389800033066,52.51224720000755,52.51224720000755,52.99643220001599,45,45,52.99643220001599,52.99643220001599,52.99643220001599,52.99643220001599,52.99643220001599,52.99643220001599,52.99643220001599,52.99643220001599,52.99643220001599,53.36292450001929,53.36292450001929,53.36292450001929,53.36292450001929,53.36292450001929,53.36292450001929,53.36292450001929,53.36292450001929,53.36292450001929,23,0,,,53.36292450001929,53.567831700027455,1000,53.567831700027455,1000,1000,1000,1000,1,num_2,0.5871013000141829,,26,12,2026-03-05_11h15.11.886,2026A_exp2,2022.2.4,59.769361969358386,
1000,1,6.1,3.7,0,0,2,2,75,,,,,54.18039500003215,54.831056700029876,54.831056700029876,55.33222670003306,45,315,55.33222670003306,55.33222670003306,55.33222670003306,55.33222670003306,55.33222670003306,55.33222670003306,55.33222670003306,55.33222670003306,55.33222670003306,55.68191530002514,55.68191530002514,55.68191530002514,55.68191530002514,55.68191530002514,55.68191530002514,55.68191530002514,55.68191530002514,55.68191530002514,22,0,,,55.68191530002514,55.88399689999642,1000,55.88399689999642,1000,1000,1000,1000,0,num_3,0.36699550005141646,,26,12,2026-03-05_11h15.11.886,2026A_exp2,2022.2.4,59.769361969358386,
1,0,6.1,0.0,1,0,3,3,70,,,,,56.28263520001201,56.933050799998455,56.933050799998455,57.43419930001255,45,45,57.43419930001255,57.43419930001255,57.43419930001255,57.43419930001255,57.43419930001255,57.43419930001255,57.43419930001255,57.43419930001255,57.43419930001255,57.800697099999525,57.800697099999525,57.800697099999525,57.800697099999525,57.800697099999525,57.800697099999525,57.800697099999525,57.800697099999525,57.800697099999525,1,2,"[0.0012190999696031213, 0.36734749999595806]","[0.35054789995774627, 0.3673517999704927]",57.800697099999525,58.00071290001506,0.0,58.00071290001506,0,0.0,0,1,1000,num_1,0.8263558999751695,,26,12,2026-03-05_11h15.11.886,2026A_exp2,2022.2.4,59.769361969358386,
1,0,6.1,0.0,0,0,4,4,21,,,,,58.85171030001948,59.502352499985136,59.502352499985136,59.986852400004864,45,315,59.986852400004864,59.986852400004864,59.986852400004864,59.986852400004864,59.986852400004864,59.986852400004864,59.986852400004864,59.986852400004864,59.986852400004864,60.353253500012215,60.353253500012215,60.353253500012215,60.353253500012215,60.353253500012215,60.353253500012215,60.353253500012215,60.353253500012215,60.353253500012215,2,1,[0.0012340000248514116],[0.3505460000014864],60.353253500012215,60.55318749998696,6.1,60.55318749998696,1,6.1,1,1,1000,num_4,0.8899416000349447,,26,12,2026-03-05_11h15.11.886,2026A_exp2,2022.2.4,59.769361969358386,
1000,1,0.0,4.9,0,0,5,5,61,,,,,61.47083420003764,62.121748900040984,62.121748900040984,62.60594450001372,45,45,62.60594450001372,62.60594450001372,62.60594450001372,62.60594450001372,62.60594450001372,62.60594450001372,62.60594450001372,62.60594450001372,62.60594450001372,62.97215769998729,62.97215769998729,62.97215769998729,62.97215769998729,62.97215769998729,62.97215769998729,62.97215769998729,62.97215769998729,62.97215769998729,13,5,"[0.03364769998006523, 0.1670783999725245, 0.21708979998948053, 0.3005841999547556, 0.3505717999651097]","[0.05034589994465932, 0.20053079997887835, 0.28395969996927306, 0.33400789997540414, 0.3673679999774322]",62.97215769998729,63.17427090002457,1000,63.17427090002457,1000,1000,1000,1000,1,num_2,0.4045750999939628,,26,12,2026-03-05_11h15.11.886,2026A_exp2,2022.2.4,59.769361969358386,
1000,1,4.9,4.9,1,0,6,6,68,,,,,63.60665660002269,64.25703440001234,64.25703440001234,64.74143789999653,45,45,64.74143789999653,64.74143789999653,64.74143789999653,64.74143789999653,64.74143789999653,64.74143789999653,64.74143789999653,64.74143789999653,64.74143789999653,65.1078801000258,65.1078801000258,65.1078801000258,65.1078801000258,65.1078801000258,65.1078801000258,65.1078801000258,65.1078801000258,65.1078801000258,23,0,,,65.1078801000258,65.30942130001495,1000,65.30942130001495,1000,1000,1000,1000,1,num_2,0.48515290004434064,,26,12,2026-03-05_11h15.11.886,2026A_exp2,2022.2.4,59.769361969358386,
1,0,3.7,6.1,0,0,7,7,52,,,,,65.82518730004085,66.47603570000501,66.47603570000501,66.97709100000793,315,315,66.97709100000793,66.97709100000793,66.97709100000793,66.97709100000793,66.97709100000793,66.97709100000793,66.97709100000793,66.97709100000793,66.97709100000793,67.34347870002966,67.34347870002966,67.34347870002966,67.34347870002966,67.34347870002966,67.34347870002966,67.34347870002966,67.34347870002966,67.34347870002966,23,0,,,67.34347870002966,67.54367660003481,3.7,67.54367660003481,0,3.7,1,0,1000,num_1,0.6990435000043362,,26,12,2026-03-05_11h15.11.886,2026A_exp2,2022.2.4,59.769361969358386,
1,0,0.0,3.7,1,0,8,8,32,,,,,68.2609836999909,68.91183310002089,68.91183310002089,69.39606440003263,45,45,69.39606440003263,69.39606440003263,69.39606440003263,69.39606440003263,69.39606440003263,69.39606440003263,69.39606440003263,69.39606440003263,69.39606440003263,69.76237449998735,69.76237449998735,69.76237449998735,69.76237449998735,69.76237449998735,69.76237449998735,69.76237449998735,69.76237449998735,69.76237449998735,23,0,,,69.76237449998735,69.96271430002525,3.7,69.96271430002525,1,3.7,1,1,1000,num_4,0.6393386999843642,,26,12,2026-03-05_11h15.11.886,2026A_exp2,2022.2.4,59.769361969358386,
1000,1,4.9,3.7,0,0,9,9,40,,,,,70.63014650001423,71.28071950003505,71.28071950003505,71.76529439998558,45,45,71.76529439998558,71.76529439998558,71.76529439998558,71.76529439998558,71.76529439998558,71.76529439998558,71.76529439998558,71.76529439998558,71.76529439998558,72.13152240001364,72.13152240001364,72.13152240001364,72.13152240001364,72.13152240001364,72.13152240001364,72.13152240001364,72.13152240001364,72.13152240001364,22,1,[0.1527757000294514],[0.169510799983982],72.13152240001364,72.3342011999921,1000,72.3342011999921,1000,1000,1000,1000,0,num_3,0.5008306000381708,,26,12,2026-03-05_11h15.11.886,2026A_exp2,2022.2.4,59.769361969358386,
1000,1,0.0,4.9,1,0,10,10,66,,,,,72.86587979999604,73.5164894000045,73.5164894000045,74.0173996000085,45,45,74.0173996000085,74.0173996000085,74.0173996000085,74.0173996000085,74.0173996000085,74.0173996000085,74.0173996000085,74.0173996000085,74.0173996000085,74.38396080001257,74.38396080001257,74.38396080001257,74.38396080001257,74.38396080001257,74.38396080001257,74.38396080001257,74.38396080001257,74.38396080001257,23,0,,,74.38396080001257,74.58601190004265,1000,74.58601190004265,1000,1000,1000,1000,1,num_2,0.41617340000811964,,26,12,2026-03-05_11h15.11.886,2026A_exp2,2022.2.4,59.769361969358386,
0,0,0.0,3.7,0,0,11,11,34,,,,,75.01784049998969,75.66858960001264,75.66858960001264,76.16955960000632,315,315,76.16955960000632,76.16955960000632,76.16955960000632,76.16955960000632,76.16955960000632,76.16955960000632,76.16955960000632,76.16955960000632,76.16955960000632,76.51948610000545,76.51948610000545,76.51948610000545,76.51948610000545,76.51948610000545,76.51948610000545,76.51948610000545,76.51948610000545,76.51948610000545,22,0,,,76.51948610000545,76.71965779998573,3.7,76.73629030003212,1,3.7,1,1,1000,num_4,0.6823164000525139,,26,12,2026-03-05_11h15.11.886,2026A_exp2,2022.2.4,59.769361969358386,
1,0,0.0,0.0,0,0,12,12,79,,,,,77.43684380000923,78.08777869999176,78.08777869999176,78.5719730000128,315,45,78.5719730000128,78.5719730000128,78.5719730000128,78.5719730000128,78.5719730000128,78.5719730000128,78.5719730000128,78.5719730000128,78.5719730000128,78.9384771999903,78.9384771999903,78.9384771999903,78.9384771999903,78.9384771999903,78.9384771999903,78.9384771999903,78.9384771999903,78.9384771999903,0,1,[0.0012852000072598457],[0.3673094999976456],78.9384771999903,79.13865949999308,0.0,79.13865949999308,0,0.0,0,1,1000,num_1,1.9038034999975935,,26,12,2026-03-05_11h15.11.886,2026A_exp2,2022.2.4,59.769361969358386,
1,0,4.9,0.0,0,0,13,13,53,,,,,81.07399460003944,81.72458450001432,81.72458450001432,82.22567180002807,315,45,82.22567180002807,82.22567180002807,82.22567180002807,82.22567180002807,82.22567180002807,82.22567180002807,82.22567180002807,82.22567180002807,82.22567180002807,82.5754671000177,82.5754671000177,82.5754671000177,82.5754671000177,82.5754671000177,82.5754671000177,82.5754671000177,82.5754671000177,82.5754671000177,0,1,[0.0007227000314742327],[0.3510754000162706],82.5754671000177,82.77569109998876,4.9,82.77569109998876,1,4.9,1,1,1000,num_4,0.6910913999890909,,26,12,2026-03-05_11h15.11.886,2026A_exp2,2022.2.4,59.769361969358386,
1000,1,0.0,6.1,1,0,14,14,71,,,,,83.49323610001011,84.14359300001524,84.14359300001524,84.62802450003801,45,315,84.62802450003801,84.62802450003801,84.62802450003801,84.62802450003801,84.62802450003801,84.62802450003801,84.62802450003801,84.62802450003801,84.62802450003801,84.99458250001771,84.99458250001771,84.99458250001771,84.99458250001771,84.99458250001771,84.99458250001771,84.99458250001771,84.99458250001771,84.99458250001771,23,0,,,84.99458250001771,85.19685690000188,1000,85.19685690000188,1000,1000,1000,1000,1,num_2,0.43775670003378764,,26,12,2026-03-05_11h15.11.886,2026A_exp2,2022.2.4,59.769361969358386,
1000,1,0.0,4.9,0,0,15,15,6,,,,,85.66164080001181,86.31250070000533,86.31250070000533,86.8136661000317,315,315,86.8136661000317,86.8136661000317,86.8136661000317,86.8136661000317,86.8136661000317,86.8136661000317,86.8136661000317,86.8136661000317,86.8136661000317,87.16327290004119,87.16327290004119,87.16327290004119,87.16327290004119,87.16327290004119,87.16327290004119,87.16327290004119,87.16327290004119,87.16327290004119,0,1,[0.0012126000365242362],[0.35055309999734163],87.16327290004119,87.36386400001356,1000,87.37996200000634,1000,1000,1000,1000,1,num_2,0.3753784000291489,,26,12,2026-03-05_11h15.11.886,2026A_exp2,2022.2.4,59.769361969358386,
1000,1,0.0,0.0,1,0,16,16,9,,,,,87.78059189999476,88.43126099999063,88.43126099999063,88.93228930002078,45,315,88.93228930002078,88.93228930002078,88.93228930002078,88.93228930002078,88.93228930002078,88.93228930002078,88.93228930002078,88.93228930002078,88.93228930002078,89.28215189999901,89.28215189999901,89.28215189999901,89.28215189999901,89.28215189999901,89.28215189999901,89.28215189999901,89.28215189999901,89.28215189999901,22,0,,,89.28215189999901,89.48424040002283,1000,89.48424040002283,1000,1000,1000,1000,0,num_3,0.7267794000217691,,26,12,2026-03-05_11h15.11.886,2026A_exp2,2022.2.4,59.769361969358386,
1000,1,3.7,0.0,0,0,17,17,56,,,,,90.23306709999451,90.88369879999664,90.88369879999664,91.38449349999428,315,315,91.38449349999428,91.38449349999428,91.38449349999428,91.38449349999428,91.38449349999428,91.38449349999428,91.38449349999428,91.38449349999428,91.38449349999428,91.75117860001046,91.75117860001046,91.75117860001046,91.75117860001046,91.75117860001046,91.75117860001046,91.75117860001046,91.75117860001046,91.75117860001046,1,2,"[0.0007289000204764307, 0.3513850999879651]","[0.3345947000198066, 0.36794789996929467]",91.75117860001046,91.95353210001485,1000,91.95353210001485,1000,1000,1000,1000,0,num_3,0.393684700015001,,26,12,2026-03-05_11h15.11.886,2026A_exp2,2022.2.4,59.769361969358386,
1000,1,3.7,0.0,0,0,18,18,76,,,,,92.36857950000558,93.01923720003106,93.01923720003106,93.52021260000765,45,315,93.52021260000765,93.52021260000765,93.52021260000765,93.52021260000765,93.52021260000765,93.52021260000765,93.52021260000765,93.52021260000765,93.52021260000765,93.88681100000395,93.88681100000395,93.88681100000395,93.88681100000395,93.88681100000395,93.88681100000395,93.88681100000395,93.88681100000395,93.88681100000395,0,1,[0.0012026000185869634],[0.3671254999935627],93.88681100000395,94.08889600000111,1000,94.08889600000111,1000,1000,1000,1000,0,num_3,0.33727950003230944,,26,12,2026-03-05_11h15.11.886,2026A_exp2,2022.2.4,59.769361969358386,
1,0,6.1,0.0,0,0,19,19,82,,,,,94.45386260002851,95.10471839999082,95.10471839999082,95.58913800003938,315,45,95.58913800003938,95.58913800003938,95.58913800003938,95.58913800003938,95.58913800003938,95.58913800003938,95.58913800003938,95.58913800003938,95.58913800003938,95.95548940001754,95.95548940001754,95.95548940001754,95.95548940001754,95.95548940001754,95.95548940001754,95.95548940001754,95.95548940001754,95.95548940001754,11,4,"[0.001270500011742115, 0.08358819998102263, 0.30023549997713417, 0.3337337999837473]","[0.03362609999021515, 0.2169380999985151, 0.31715680001070723, 0.3504843999980949]",95.95548940001754,96.15566470002523,6.1,96.15566470002523,1,6.1,1,1,1000,num_4,0.7747417000355199,,26,12,2026-03-05_11h15.11.886,2026A_exp2,2022.2.4,59.769361969358386,
1,0,6.1,0.0,0,0,20,20,47,,,,,96.9564260999905,97.60717959998874,97.60717959998874,98.09151560004102,45,45,98.09151560004102,98.09151560004102,98.09151560004102,98.09151560004102,98.09151560004102,98.09151560004102,98.09151560004102,98.09151560004102,98.09151560004102,98.45797680004034,98.45797680004034,98.45797680004034,98.45797680004034,98.45797680004034,98.45797680004034,98.45797680004034,98.45797680004034,98.45797680004034,23,0,,,98.45797680004034,98.658120600041,6.1,98.658120600041,1,6.1,1,1,1000,num_4,0.7205034000216983,,26,12,2026-03-05_11h15.11.886,2026A_exp2,2022.2.4,59.769361969358386,
1,0,0.0,0.0,1,0,21,21,42,,,,,99.40878490003524,100.0596102999989,100.0596102999989,100.54407140001422,315,315,100.54407140001422,100.54407140001422,100.54407140001422,100.54407140001422,100.54407140001422,100.54407140001422,100.54407140001422,100.54407140001422,100.54407140001422,100.9103811000241,100.9103811000241,100.9103811000241,100.9103811000241,100.9103811000241,100.9103811000241,100.9103811000241,100.9103811000241,100.9103811000241,23,0,,,100.9103811000241,101.11057220003568,0.0,101.11057220003568,1,0.0,0,0,1000,num_4,0.604211000027135,,26,12,2026-03-05_11h15.11.886,2026A_exp2,2022.2.4,59.769361969358386,
1000,1,3.7,0.0,1,0,22,22,19,,,,,101.74456319998717,102.39514360000612,102.39514360000612,102.87961720000021,315,45,102.87961720000021,102.87961720000021,102.87961720000021,102.87961720000021,102.87961720000021,102.87961720000021,102.87961720000021,102.87961720000021,102.87961720000021,103.24612810002873,103.24612810002873,103.24612810002873,103.24612810002873,103.24612810002873,103.24612810002873,103.24612810002873,103.24612810002873,103.24612810002873,23,0,,,103.24612810002873,103.44802260003053,1000,103.44802260003053,1000,1000,1000,1000,0,num_3,0.41862819995731115,,26,12,2026-03-05_11h15.11.886,2026A_exp2,2022.2.4,59.769361969358386,
1,0,0.0,0.0,0,0,23,23,88,,,,,103.89671900001122,104.54744530003518,104.54744530003518,105.0485689000343,45,315,105.0485689000343,105.0485689000343,105.0485689000343,105.0485689000343,105.0485689000343,105.0485689000343,105.0485689000343,105.0485689000343,105.0485689000343,105.4150203000172,105.4150203000172,105.4150203000172,105.4150203000172,105.4150203000172,105.4150203000172,105.4150203000172,105.4150203000172,105.4150203000172,23,0,,,105.4150203000172,105.6150789000094,0.0,105.6150789000094,1,0.0,0,0,1000,num_4,0.9082669999916106,,26,12,2026-03-05_11h15.11.886,2026A_exp2,2022.2.4,59.769361969358386,
1000,1,3.7,4.9,0,0,24,24,45,,,,,106.54922970000189,107.19282039999962,107.19282039999962,107.68455090001225,45,315,107.68455090001225,107.68455090001225,107.68455090001225,107.68455090001225,107.68455090001225,107.68455090001225,107.68455090001225,107.68455090001225,107.68455090001225,108.05073499999708,108.05073499999708,108.05073499999708,108.05073499999708,108.05073499999708,108.05073499999708,108.05073499999708,108.05073499999708,108.05073499999708,23,0,,,108.05073499999708,108.25267539999913,1000,108.25267539999913,1000,1000,1000,1000,0,num_3,0.629600299987942,,26,12,2026-03-05_11h15.11.886,2026A_exp2,2022.2.4,59.769361969358386,
1,0,6.1,4.9,1,0,25,25,11,,,,,108.90159690001747,109.55239680001978,109.55239680001978,110.05329340003664,315,45,110.05329340003664,110.05329340003664,110.05329340003664,110.05329340003664,110.05329340003664,110.05329340003664,110.05329340003664,110.05329340003664,110.05329340003664,110.41977300000144,110.41977300000144,110.41977300000144,110.41977300000144,110.41977300000144,110.41977300000144,110.41977300000144,110.41977300000144,110.41977300000144,18,2,"[0.1839852999546565, 0.3174049999797717]","[0.2005426000105217, 0.36708029999863356]",110.41977300000144,110.62021740002092,4.9,110.62021740002092,1,4.9,1,1,1000,num_4,1.0219411000143737,,26,12,2026-03-05_11h15.11.886,2026A_exp2,2022.2.4,59.769361969358386,
0,0,0.0,0.0,0,0,26,26,59,,,,,111.67119920003461,112.32183410000289,112.32183410000289,112.80619360000128,315,315,112.80619360000128,112.80619360000128,112.80619360000128,112.80619360000128,112.80619360000128,112.80619360000128,112.80619360000128,112.80619360000128,112.80619360000128,113.17265810002573,113.17265810002573,113.17265810002573,113.17265810002573,113.17265810002573,113.17265810002573,113.17265810002573,113.17265810002573,113.17265810002573,23,0,,,113.17265810002573,113.37291380000534,0.0,113.37291380000534,1,0.0,0,0,1000,num_4,0.653722100018058,,26,12,2026-03-05_11h15.11.886,2026A_exp2,2022.2.4,59.769361969358386,
1,0,6.1,4.9,1,0,27,27,64,,,,,114.05680140003096,114.70743780001067,114.70743780001067,115.1919695000397,45,315,115.1919695000397,115.1919695000397,115.1919695000397,115.1919695000397,115.1919695000397,115.1919695000397,115.1919695000397,115.1919695000397,115.1919695000397,115.55844580003759,115.55844580003759,115.55844580003759,115.55844580003759,115.55844580003759,115.55844580003759,115.55844580003759,115.55844580003759,115.55844580003759,23,0,,,115.55844580003759,115.75867890001973,4.9,115.75867890001973,1,4.9,1,1,1000,num_4,0.8922567000263371,,26,12,2026-03-05_11h15.11.886,2026A_exp2,2022.2.4,59.769361969358386,
1000,1,0.0,0.0,1,0,28,28,1,,,,,116.67613760003587,117.32680199999595,117.32680199999595,117.8112188000232,45,315,117.8112188000232,117.8112188000232,117.8112188000232,117.8112188000232,117.8112188000232,117.8112188000232,117.8112188000232,117.8112188000232,117.8112188000232,118.17768010002328,118.17768010002328,118.17768010002328,118.17768010002328,118.17768010002328,118.17768010002328,118.17768010002328,118.17768010002328,118.17768010002328,7,2,"[0.0012045999756082892, 0.1335520999855362]","[0.017168499995023012, 0.3671017999877222]",118.17768010002328,118.38000060000923,1000,118.38000060000923,1000,1000,1000,1000,1,num_2,0.9105436999816447,,26,12,2026-03-05_11h15.11.886,2026A_exp2,2022.2.4,59.769361969358386,
1,0,6.1,0.0,1,0,29,29,80,,,,,119.31221370003186,119.96285850001732,119.96285850001732,120.4639535000315,315,315,120.4639535000315,120.4639535000315,120.4639535000315,120.4639535000315,120.4639535000315,120.4639535000315,120.4639535000315,120.4639535000315,120.4639535000315,120.83038520003902,120.83038520003902,120.83038520003902,120.83038520003902,120.83038520003902,120.83038520003902,120.83038520003902,120.83038520003902,120.83038520003902,0,1,[0.0012070999946445227],[0.36724679998587817],120.83038520003902,121.03053330001421,0.0,121.03053330001421,0,0.0,0,1,1000,num_1,0.5888057999545708,,26,12,2026-03-05_11h15.11.886,2026A_exp2,2022.2.4,59.769361969358386,
1000,1,6.1,6.1,0,0,30,30,16,,,,,121.64772609999636,122.29810130002443,122.29810130002443,122.7829721000162,315,45,122.7829721000162,122.7829721000162,122.7829721000162,122.7829721000162,122.7829721000162,122.7829721000162,122.7829721000162,122.7829721000162,122.7829721000162,123.14939070004039,123.14939070004039,123.14939070004039,123.14939070004039,123.14939070004039,123.14939070004039,123.14939070004039,123.14939070004039,123.14939070004039,23,0,,,123.14939070004039,123.35132840002188,1000,123.35132840002188,1000,1000,1000,1000,0,num_3,0.5472463000332937,,26,12,2026-03-05_11h15.11.886,2026A_exp2,2022.2.4,59.769361969358386,
0,0,6.1,4.9,0,0,31,31,22,,,,,123.9166803000262,124.56747700000415,124.56747700000415,125.06868940003915,315,45,125.06868940003915,125.06868940003915,125.06868940003915,125.06868940003915,125.06868940003915,125.06868940003915,125.06868940003915,125.06868940003915,125.06868940003915,125.43495720002102,125.43495720002102,125.43495720002102,125.43495720002102,125.43495720002102,125.43495720002102,125.43495720002102,125.43495720002102,125.43495720002102,23,0,,,125.43495720002102,125.63523900002474,4.9,125.63523900002474,0,4.9,1,0,1000,num_1,0.7515459000132978,,26,12,2026-03-05_11h15.11.886,2026A_exp2,2022.2.4,59.769361969358386,
1000,1,0.0,3.7,0,0,32,32,46,,,,,126.40247239999007,127.05330299999332,127.05330299999332,127.53762660000939,315,315,127.53762660000939,127.53762660000939,127.53762660000939,127.53762660000939,127.53762660000939,127.53762660000939,127.53762660000939,127.53762660000939,127.53762660000939,127.90409530000761,127.90409530000761,127.90409530000761,127.90409530000761,127.90409530000761,127.90409530000761,127.90409530000761,127.90409530000761,127.90409530000761,23,0,,,127.90409530000761,128.1063122000196,1000,128.1063122000196,1000,1000,1000,1000,1,num_2,0.5128315999754705,,26,12,2026-03-05_11h15.11.886,2026A_exp2,2022.2.4,59.769361969358386,
1000,1,3.7,3.7,0,0,33,33,63,,,,,128.6381767000421,129.2888407999999,129.2888407999999,129.78998920001322,45,45,129.78998920001322,129.78998920001322,129.78998920001322,129.78998920001322,129.78998920001322,129.78998920001322,129.78998920001322,129.78998920001322,129.78998920001322,130.1564926999854,130.1564926999854,130.1564926999854,130.1564926999854,130.1564926999854,130.1564926999854,130.1564926999854,130.1564926999854,130.1564926999854,5,3,"[0.001253900001756847, 0.11708489997545257, 0.28390919999219477]","[0.10025610000593588, 0.2170431999838911, 0.36716429999796674]",130.1564926999854,130.35827810002957,1000,130.35827810002957,1000,1000,1000,1000,0,num_3,1.70067549997475,,26,12,2026-03-05_11h15.11.886,2026A_exp2,2022.2.4,59.769361969358386,
1,0,4.9,3.7,1,0,34,34,27,,,,,132.07742420001887,132.72562189999735,132.72562189999735,133.22675780003192,45,315,133.22675780003192,133.22675780003192,133.22675780003192,133.22675780003192,133.22675780003192,133.22675780003192,133.22675780003192,133.22675780003192,133.22675780003192,133.5930936000077,133.5930936000077,133.5930936000077,133.5930936000077,133.5930936000077,133.5930936000077,133.5930936000077,133.5930936000077,133.5930936000077,0,1,[0.0012102000182494521],[0.36711500003002584],133.5930936000077,133.79336499999044,3.7,133.79336499999044,0,3.7,1,0,1000,num_1,0.6255907000158913,,26,12,2026-03-05_11h15.11.886,2026A_exp2,2022.2.4,59.769361969358386,
1000,1,0.0,3.7,1,0,35,35,13,,,,,134.44390559999738,135.09477210004115,135.09477210004115,135.57907370000612,45,45,135.57907370000612,135.57907370000612,135.57907370000612,135.57907370000612,135.57907370000612,135.57907370000612,135.57907370000612,135.57907370000612,135.57907370000612,135.9454525000183,135.9454525000183,135.9454525000183,135.9454525000183,135.9454525000183,135.9454525000183,135.9454525000183,135.9454525000183,135.9454525000183,0,1,[0.0012042000307701528],[0.3671186999999918],135.9454525000183,136.1474621000234,1000,136.1474621000234,1000,1000,1000,1000,1,num_2,0.29526479996275157,,26,12,2026-03-05_11h15.11.886,2026A_exp2,2022.2.4,59.769361969358386,
1,0,0.0,3.7,1,0,36,36,14,,,,,136.46254640002735,137.1236585000297,137.1236585000297,137.61449410003843,315,45,137.61449410003843,137.61449410003843,137.61449410003843,137.61449410003843,137.61449410003843,137.61449410003843,137.61449410003843,137.61449410003843,137.61449410003843,137.98080550000304,137.98080550000304,137.98080550000304,137.98080550000304,137.98080550000304,137.98080550000304,137.98080550000304,137.98080550000304,137.98080550000304,0,1,[0.001159299979917705],[0.3669346999959089],137.98080550000304,138.1810595000279,3.7,138.1810595000279,1,3.7,1,1,1000,num_4,1.0217001999844797,,26,12,2026-03-05_11h15.11.886,2026A_exp2,2022.2.4,59.769361969358386,
0,0,4.9,3.7,0,0,37,37,28,,,,,139.23194440000225,139.88279350002995,139.88279350002995,140.36714530002791,315,45,140.36714530002791,140.36714530002791,140.36714530002791,140.36714530002791,140.36714530002791,140.36714530002791,140.36714530002791,140.36714530002791,140.36714530002791,140.73362970002927,140.73362970002927,140.73362970002927,140.73362970002927,140.73362970002927,140.73362970002927,140.73362970002927,140.73362970002927,140.73362970002927,0,1,[0.001193600008264184],[0.36719499999890104],140.73362970002927,140.93377890001284,3.7,140.93377890001284,0,3.7,1,0,1000,num_1,0.7244143999996595,,26,12,2026-03-05_11h15.11.886,2026A_exp2,2022.2.4,59.769361969358386,
1,0,4.9,3.7,0,0,38,38,44,,,,,141.6843451000168,142.3351946999901,142.3351946999901,142.8196512000286,315,45,142.8196512000286,142.8196512000286,142.8196512000286,142.8196512000286,142.8196512000286,142.8196512000286,142.8196512000286,142.8196512000286,142.8196512000286,143.18621840002015,143.18621840002015,143.18621840002015,143.18621840002015,143.18621840002015,143.18621840002015,143.18621840002015,143.18621840002015,143.18621840002015,1,2,"[0.0011952999630011618, 0.16687269997783005]","[0.15022399998269975, 0.36703709996072575]",143.18621840002015,143.3863061000011,4.9,143.3863061000011,1,4.9,1,1,1000,num_4,1.4402835000073537,,26,12,2026-03-05_11h15.11.886,2026A_exp2,2022.2.4,59.769361969358386,
0,0,6.1,0.0,0,0,39,39,74,,,,,144.85433210001793,145.50501289998647,145.50501289998647,145.9895039999974,315,315,145.9895039999974,145.9895039999974,145.9895039999974,145.9895039999974,145.9895039999974,145.9895039999974,145.9895039999974,145.9895039999974,145.9895039999974,146.35592450003605,146.35592450003605,146.35592450003605,146.35592450003605,146.35592450003605,146.35592450003605,146.35592450003605,146.35592450003605,146.35592450003605,0,1,[0.0011899999808520079],[0.3669120999984443],146.35592450003605,146.55614540004171,0.0,146.55614540004171,0,0.0,0,1,1000,num_1,0.6299387000035495,,26,12,2026-03-05_11h15.11.886,2026A_exp2,2022.2.4,59.769361969358386,
1000,1,0.0,0.0,0,0,40,40,17,,,,,147.20662509999238,147.85728850000305,147.85728850000305,148.3418313000002,315,315,148.3418313000002,148.3418313000002,148.3418313000002,148.3418313000002,148.3418313000002,148.3418313000002,148.3418313000002,148.3418313000002,148.3418313000002,148.70804370002588,148.70804370002588,148.70804370002588,148.70804370002588,148.70804370002588,148.70804370002588,148.70804370002588,148.70804370002588,148.70804370002588,23,0,,,148.70804370002588,148.9100560999941,1000,148.9100560999941,1000,1000,1000,1000,1,num_2,0.5804041000083089,,26,12,2026-03-05_11h15.11.886,2026A_exp2,2022.2.4,59.769361969358386,
1000,1,0.0,0.0,0,0,41,41,5,,,,,149.5089077000157,150.15959980001207,150.15959980001207,150.660878100025,315,45,150.660878100025,150.660878100025,150.660878100025,150.660878100025,150.660878100025,150.660878100025,150.660878100025,150.660878100025,150.660878100025,151.01059810002334,151.01059810002334,151.01059810002334,151.01059810002334,151.01059810002334,151.01059810002334,151.01059810002334,151.01059810002334,151.01059810002334,4,1,[0.06665760005125776],[0.3505192000302486],151.01059810002334,151.21248789998936,1000,151.21248789998936,1000,1000,1000,1000,1,num_2,0.5183619000017643,,26,12,2026-03-05_11h15.11.886,2026A_exp2,2022.2.4,59.769361969358386,
1000,1,3.7,3.7,0,0,42,42,72,,,,,151.7611915000016,152.41199990001041,152.41199990001041,152.9131096000201,315,45,152.9131096000201,152.9131096000201,152.9131096000201,152.9131096000201,152.9131096000201,152.9131096000201,152.9131096000201,152.9131096000201,152.9131096000201,153.26278230000753,153.26278230000753,153.26278230000753,153.26278230000753,153.26278230000753,153.26278230000753,153.26278230000753,153.26278230000753,153.26278230000753,22,0,,,153.26278230000753,153.46517300000414,1000,153.46517300000414,1000,1000,1000,1000,1,num_2,0.4256266000447795,,26,12,2026-03-05_11h15.11.886,2026A_exp2,2022.2.4,59.769361969358386,
1000,1,0.0,6.1,1,0,43,43,43,,,,,153.9133739999961,154.56412270001601,154.56412270001601,155.06509640003787,315,315,155.06509640003787,155.06509640003787,155.06509640003787,155.06509640003787,155.06509640003787,155.06509640003787,155.06509640003787,155.06509640003787,155.06509640003787,155.43161750002764,155.43161750002764,155.43161750002764,155.43161750002764,155.43161750002764,155.43161750002764,155.43161750002764,155.43161750002764,155.43161750002764,23,0,,,155.43161750002764,155.63361459999578,1000,155.63361459999578,1000,1000,1000,1000,1,num_2,0.4013441000133753,,26,12,2026-03-05_11h15.11.886,2026A_exp2,2022.2.4,59.769361969358386,
1,0,4.9,0.0,1,0,44,44,65,,,,,156.0654360000044,156.71620550000807,156.71620550000807,157.21613539999817,315,45,157.21613539999817,157.21613539999817,157.21613539999817,157.21613539999817,157.21613539999817,157.21613539999817,157.21613539999817,157.21613539999817,157.21613539999817,157.56715210003313,157.56715210003313,157.56715210003313,157.56715210003313,157.56715210003313,157.56715210003313,157.56715210003313,157.56715210003313,157.56715210003313,1,2,"[0.004231299972161651, 0.3645449999603443]","[0.34774860000470653, 0.3645519999554381]",157.56715210003313,157.76737539999885,0.0,157.76737539999885,0,0.0,0,1,1000,num_1,0.5467100000241771,,26,12,2026-03-05_11h15.11.886,2026A_exp2,2022.2.4,59.769361969358386,
1,0,3.7,4.9,1,0,45,45,20,,,,,158.33445640001446,158.98510940000415,158.98510940000415,159.46965149999596,45,45,159.46965149999596,159.46965149999596,159.46965149999596,159.46965149999596,159.46965149999596,159.46965149999596,159.46965149999596,159.46965149999596,159.46965149999596,159.8360992000089,159.8360992000089,159.8360992000089,159.8360992000089,159.8360992000089,159.8360992000089,159.8360992000089,159.8360992000089,159.8360992000089,0,1,[0.00120009999955073],[0.36698340001748875],159.8360992000089,160.03610620001564,4.9,160.03610620001564,1,4.9,1,1,1000,num_4,1.1190337000298314,,26,12,2026-03-05_11h15.11.886,2026A_exp2,2022.2.4,59.769361969358386,
1,0,0.0,0.0,1,0,46,46,39,,,,,161.18744300003164,161.8380468999967,161.8380468999967,162.32235450000735,45,45,162.32235450000735,162.32235450000735,162.32235450000735,162.32235450000735,162.32235450000735,162.32235450000735,162.32235450000735,162.32235450000735,162.32235450000735,162.68895730003715,162.68895730003715,162.68895730003715,162.68895730003715,162.68895730003715,162.68895730003715,162.68895730003715,162.68895730003715,162.68895730003715,23,0,,,162.68895730003715,162.8890881999978,0.0,162.8890881999978,1,0.0,0,0,1000,num_4,0.5859619999537244,,26,12,2026-03-05_11h15.11.886,2026A_exp2,2022.2.4,59.769361969358386,
1,0,0.0,6.1,1,0,47,47,36,,,,,163.50631249998696,164.1570955000352,164.1570955000352,164.64141219999874,315,45,164.64141219999874,164.64141219999874,164.64141219999874,164.64141219999874,164.64141219999874,164.64141219999874,164.64141219999874,164.64141219999874,164.64141219999874,165.00788200000534,165.00788200000534,165.00788200000534,165.00788200000534,165.00788200000534,165.00788200000534,165.00788200000534,165.00788200000534,165.00788200000534,23,0,,,165.00788200000534,165.20776100002695,6.1,165.20776100002695,1,6.1,1,1,1000,num_4,0.42765770002733916,,26,12,2026-03-05_11h15.11.886,2026A_exp2,2022.2.4,59.769361969358386,
1,0,0.0,3.7,1,0,48,48,35,,,,,165.65834710001945,166.30916380003328,166.30916380003328,166.79364450002322,315,45,166.79364450002322,166.79364450002322,166.79364450002322,166.79364450002322,166.79364450002322,166.79364450002322,166.79364450002322,166.79364450002322,166.79364450002322,167.15979280002648,167.15979280002648,167.15979280002648,167.15979280002648,167.15979280002648,167.15979280002648,167.15979280002648,167.15979280002648,167.15979280002648,23,0,,,167.15979280002648,167.36017040000297,3.7,167.36017040000297,1,3.7,1,1,1000,num_4,0.5145083999959752,,26,12,2026-03-05_11h15.11.886,2026A_exp2,2022.2.4,59.769361969358386,
1,0,0.0,6.1,1,0,49,49,31,,,,,167.8940226000268,168.544752900023,168.544752900023,169.02871199999936,45,45,169.02871199999936,169.02871199999936,169.02871199999936,169.02871199999936,169.02871199999936,169.02871199999936,169.02871199999936,169.02871199999936,169.02871199999936,169.3955949000083,169.3955949000083,169.3955949000083,169.3955949000083,169.3955949000083,169.3955949000083,169.3955949000083,169.3955949000083,169.3955949000083,1,1,[0.0012208999833092093],[0.3670646999962628],169.3955949000083,169.5957414000295,6.1,169.5957414000295,1,6.1,1,1,1000,num_4,0.5022513000294566,,26,12,2026-03-05_11h15.11.886,2026A_exp2,2022.2.4,59.769361969358386,
1,0,0.0,4.9,0,0,50,50,3,,,,,170.12956939998548,170.7803256000043,170.7803256000043,171.26446520001628,315,315,171.26446520001628,171.26446520001628,171.26446520001628,171.26446520001628,171.26446520001628,171.26446520001628,171.26446520001628,171.26446520001628,171.26446520001628,171.6312022000202,171.6312022000202,171.6312022000202,171.6312022000202,171.6312022000202,171.6312022000202,171.6312022000202,171.6312022000202,171.6312022000202,23,0,,,171.6312022000202,171.83134400000563,0.0,171.83134400000563,0,0.0,0,1,1000,num_1,3.1949130999855697,,26,12,2026-03-05_11h15.11.886,2026A_exp2,2022.2.4,59.769361969358386,
1,0,3.7,4.9,1,0,51,51,18,,,,,175.05109449999873,175.69578720000573,175.69578720000573,176.19173339998815,45,45,176.19173339998815,176.19173339998815,176.19173339998815,176.19173339998815,176.19173339998815,176.19173339998815,176.19173339998815,176.19173339998815,176.19173339998815,176.55276019999292,176.55276019999292,176.55276019999292,176.55276019999292,176.55276019999292,176.55276019999292,176.55276019999292,176.55276019999292,176.55276019999292,9,3,"[0.002731800021138042, 0.05002590001095086, 0.200345000019297]","[0.022616099973674864, 0.18361969996476546, 0.2837948999949731]",176.55276019999292,176.7564076000126,4.9,176.7564076000126,1,4.9,1,1,1000,num_4,0.7660756999976002,,26,12,2026-03-05_11h15.11.886,2026A_exp2,2022.2.4,59.769361969358386,
1000,1,6.1,0.0,1,0,52,52,57,,,,,177.5538297999883,178.1876057999907,178.1876057999907,178.68887469999027,45,315,178.68887469999027,178.68887469999027,178.68887469999027,178.68887469999027,178.68887469999027,178.68887469999027,178.68887469999027,178.68887469999027,178.68887469999027,179.05528430000413,179.05528430000413,179.05528430000413,179.05528430000413,179.05528430000413,179.05528430000413,179.05528430000413,179.05528430000413,179.05528430000413,0,1,[0.0012349000317044556],[0.36704219999955967],179.05528430000413,179.25639019999653,1000,179.25639019999653,1000,1000,1000,1000,0,num_3,0.4983498000074178,,26,12,2026-03-05_11h15.11.886,2026A_exp2,2022.2.4,59.769361969358386,
1,0,0.0,4.9,0,0,53,53,73,,,,,179.77256160002435,180.4233421999961,180.4233421999961,180.92437000002246,315,315,180.92437000002246,180.92437000002246,180.92437000002246,180.92437000002246,180.92437000002246,180.92437000002246,180.92437000002246,180.92437000002246,180.92437000002246,181.29079450003337,181.29079450003337,181.29079450003337,181.29079450003337,181.29079450003337,181.29079450003337,181.29079450003337,181.29079450003337,181.29079450003337,0,1,[0.0012279999791644514],[0.3663659999729134],181.29079450003337,181.49096620001364,0.0,181.49096620001364,0,0.0,0,1,1000,num_1,0.6565159000456333,,26,12,2026-03-05_11h15.11.886,2026A_exp2,2022.2.4,59.769361969358386,
0,0,4.9,0.0,1,0,54,54,67,,,,,182.17494180001086,182.8257349000196,182.8257349000196,183.3100781000103,315,315,183.3100781000103,183.3100781000103,183.3100781000103,183.3100781000103,183.3100781000103,183.3100781000103,183.3100781000103,183.3100781000103,183.3100781000103,183.67656510003144,183.67656510003144,183.67656510003144,183.67656510003144,183.67656510003144,183.67656510003144,183.67656510003144,183.67656510003144,183.67656510003144,21,2,"[0.25041809998219833, 0.35051479999674484]","[0.2837426000041887, 0.36716780002461746]",183.67656510003144,183.87658560002455,4.9,183.87658560002455,1,4.9,1,1,1000,num_4,1.0626907000551,,26,12,2026-03-05_11h15.11.886,2026A_exp2,2022.2.4,59.769361969358386,
1000,1,6.1,6.1,1,0,55,55,4,,,,,184.9609530000016,185.61170760000823,185.61170760000823,186.09627380000893,315,45,186.09627380000893,186.09627380000893,186.09627380000893,186.09627380000893,186.09627380000893,186.09627380000893,186.09627380000893,186.09627380000893,186.09627380000893,186.4626503000036,186.4626503000036,186.4626503000036,186.4626503000036,186.4626503000036,186.4626503000036,186.4626503000036,186.4626503000036,186.4626503000036,23,0,,,186.4626503000036,186.6647113999934,1000,186.6647113999934,1000,1000,1000,1000,1,num_2,0.46560900000622496,,26,12,2026-03-05_11h15.11.886,2026A_exp2,2022.2.4,59.769361969358386,
1,0,0.0,0.0,0,0,56,56,24,,,,,187.14667129999725,187.7992923000129,187.7992923000129,188.29841360001592,45,315,188.29841360001592,188.29841360001592,188.29841360001592,188.29841360001592,188.29841360001592,188.29841360001592,188.29841360001592,188.29841360001592,188.29841360001592,188.66482380003436,188.66482380003436,188.66482380003436,188.66482380003436,188.66482380003436,188.66482380003436,188.66482380003436,188.66482380003436,188.66482380003436,23,0,,,188.66482380003436,188.8650830000406,0.0,188.8650830000406,1,0.0,0,0,1000,num_4,1.6738528999849223,,26,12,2026-03-05_11h15.11.886,2026A_exp2,2022.2.4,59.769361969358386,
1000,1,3.7,0.0,1,0,57,57,38,,,,,190.56673339998815,191.2006824000273,191.2006824000273,191.70181140000932,315,45,191.70181140000932,191.70181140000932,191.70181140000932,191.70181140000932,191.70181140000932,191.70181140000932,191.70181140000932,191.70181140000932,191.70181140000932,192.06829429999925,192.06829429999925,192.06829429999925,192.06829429999925,192.06829429999925,192.06829429999925,192.06829429999925,192.06829429999925,192.06829429999925,22,1,[0.10031539999181405],[0.1171446000225842],192.06829429999925,192.27032690000487,1000,192.27032690000487,1000,1000,1000,1000,1,num_2,0.5727295000106096,,26,12,2026-03-05_11h15.11.886,2026A_exp2,2022.2.4,59.769361969358386,
1000,1,6.1,6.1,1,0,58,58,8,,,,,192.86908650002442,193.51972590002697,193.51972590002697,194.02084579999791,45,315,194.02084579999791,194.02084579999791,194.02084579999791,194.02084579999791,194.02084579999791,194.02084579999791,194.02084579999791,194.02084579999791,194.02084579999791,194.38725989998784,194.38725989998784,194.38725989998784,194.38725989998784,194.38725989998784,194.38725989998784,194.38725989998784,194.38725989998784,194.38725989998784,23,0,,,194.38725989998784,194.58918980002636,1000,194.58918980002636,1000,1000,1000,1000,0,num_3,0.5170420999638736,,26,12,2026-03-05_11h15.11.886,2026A_exp2,2022.2.4,59.769361969358386,
1000,1,6.1,0.0,1,0,59,59,25,,,,,195.12123960000463,195.77203640004154,195.77203640004154,196.2729428000166,45,315,196.2729428000166,196.2729428000166,196.2729428000166,196.2729428000166,196.2729428000166,196.2729428000166,196.2729428000166,196.2729428000166,196.2729428000166,196.63960480003152,196.63960480003152,196.63960480003152,196.63960480003152,196.63960480003152,196.63960480003152,196.63960480003152,196.63960480003152,196.63960480003152,17,2,"[0.0010423999628983438, 0.31730499997502193]","[0.05043549998663366, 0.36727619997691363]",196.63960480003152,196.84141260001343,1000,196.84141260001343,1000,1000,1000,1000,0,num_3,0.30489279999164864,,26,12,2026-03-05_11h15.11.886,2026A_exp2,2022.2.4,59.769361969358386,
1000,1,6.1,0.0,1,0,60,60,83,,,,,197.17322050000075,197.82398919999832,197.82398919999832,198.32521050004289,315,315,198.32521050004289,198.32521050004289,198.32521050004289,198.32521050004289,198.32521050004289,198.32521050004289,198.32521050004289,198.32521050004289,198.32521050004289,198.67487330001313,198.67487330001313,198.67487330001313,198.67487330001313,198.67487330001313,198.67487330001313,198.67487330001313,198.67487330001313,198.67487330001313,0,1,[0.0008705999935045838],[0.3508136000018567],198.67487330001313,198.87690949998796,1000,198.87690949998796,1000,1000,1000,1000,0,num_3,0.30935200001113117,,26,12,2026-03-05_11h15.11.886,2026A_exp2,2022.2.4,59.769361969358386,
1000,1,4.9,0.0,0,0,61,61,54,,,,,199.20868430001428,199.85943150002277,199.85943150002277,200.36037150002085,45,45,200.36037150002085,200.36037150002085,200.36037150002085,200.36037150002085,200.36037150002085,200.36037150002085,200.36037150002085,200.36037150002085,200.36037150002085,200.72695610002847,200.72695610002847,200.72695610002847,200.72695610002847,200.72695610002847,200.72695610002847,200.72695610002847,200.72695610002847,200.72695610002847,0,1,[0.0008509000181220472],[0.36738920002244413],200.72695610002847,200.9292345000431,1000,200.9292345000431,1000,1000,1000,1000,0,num_3,0.25736330001382157,,26,12,2026-03-05_11h15.11.886,2026A_exp2,2022.2.4,59.769361969358386,
1,0,3.7,0.0,1,0,62,62,12,,,,,201.21096240001498,201.86134220001986,201.86134220001986,202.36234719998902,315,315,202.36234719998902,202.36234719998902,202.36234719998902,202.36234719998902,202.36234719998902,202.36234719998902,202.36234719998902,202.36234719998902,202.36234719998902,202.72897840000223,202.72897840000223,202.72897840000223,202.72897840000223,202.72897840000223,202.72897840000223,202.72897840000223,202.72897840000223,202.72897840000223,12,2,"[0.0012879000278189778, 0.3508779000258073]","[0.15020600002026185, 0.3674077999894507]",202.72897840000223,202.92917710001348,0.0,202.92917710001348,0,0.0,0,1,1000,num_1,0.6421509999781847,,26,12,2026-03-05_11h15.11.886,2026A_exp2,2022.2.4,59.769361969358386,
0,0,3.7,0.0,0,0,63,63,62,,,,,203.59629840002162,204.24718820001,204.24718820001,204.73143550002715,315,315,204.73143550002715,204.73143550002715,204.73143550002715,204.73143550002715,204.73143550002715,204.73143550002715,204.73143550002715,204.73143550002715,204.73143550002715,205.0979261000175,205.0979261000175,205.0979261000175,205.0979261000175,205.0979261000175,205.0979261000175,205.0979261000175,205.0979261000175,205.0979261000175,23,0,,,205.0979261000175,205.29817920003552,0.0,205.29817920003552,1,0.0,0,0,1000,num_4,0.8880893000168726,,26,12,2026-03-05_11h15.11.886,2026A_exp2,2022.2.4,59.769361969358386,
1000,1,6.1,0.0,1,0,64,64,29,,,,,206.21560200001113,206.86646640003892,206.86646640003892,207.35076729999855,45,315,207.35076729999855,207.35076729999855,207.35076729999855,207.35076729999855,207.35076729999855,207.35076729999855,207.35076729999855,207.35076729999855,207.35076729999855,207.71726420003688,207.71726420003688,207.71726420003688,207.71726420003688,207.71726420003688,207.71726420003688,207.71726420003688,207.71726420003688,207.71726420003688,2,3,"[0.001247400010470301, 0.20047909999266267, 0.2342136999941431]","[0.18366179999429733, 0.21678109996719286, 0.36724120000144467]",207.71726420003688,207.91909219999798,1000,207.91909219999798,1000,1000,1000,1000,0,num_3,0.4037436000071466,,26,12,2026-03-05_11h15.11.886,2026A_exp2,2022.2.4,59.769361969358386,
1000,1,0.0,0.0,0,0,65,65,15,,,,,208.35094939998817,209.00188729999354,209.00188729999354,209.48636189999525,45,45,209.48636189999525,209.48636189999525,209.48636189999525,209.48636189999525,209.48636189999525,209.48636189999525,209.48636189999525,209.48636189999525,209.48636189999525,209.85270829999354,209.85270829999354,209.85270829999354,209.85270829999354,209.85270829999354,209.85270829999354,209.85270829999354,209.85270829999354,209.85270829999354,11,1,[0.0012289999867789447],[0.2002523999544792],209.85270829999354,210.054906400037,1000,210.054906400037,1000,1000,1000,1000,1,num_2,0.6838849000050686,,26,12,2026-03-05_11h15.11.886,2026A_exp2,2022.2.4,59.769361969358386,
1000,1,4.9,0.0,1,0,66,66,77,,,,,210.770434200007,211.42061000003014,211.42061000003014,211.9225029000081,45,45,211.9225029000081,211.9225029000081,211.9225029000081,211.9225029000081,211.9225029000081,211.9225029000081,211.9225029000081,211.9225029000081,211.9225029000081,212.27197840000736,212.27197840000736,212.27197840000736,212.27197840000736,212.27197840000736,212.27197840000736,212.27197840000736,212.27197840000736,212.27197840000736,22,0,,,212.27197840000736,212.48786360002123,1000,212.48786360002123,1000,1000,1000,1000,0,num_3,0.34705069998744875,,26,12,2026-03-05_11h15.11.886,2026A_exp2,2022.2.4,59.769361969358386,
1,0,6.1,0.0,1,0,67,67,89,,,,,212.85570610000286,213.5064550000243,213.5064550000243,214.00776250002673,45,45,214.00776250002673,214.00776250002673,214.00776250002673,214.00776250002673,214.00776250002673,214.00776250002673,214.00776250002673,214.00776250002673,214.00776250002673,214.35725880000973,214.35725880000973,214.35725880000973,214.35725880000973,214.35725880000973,214.35725880000973,214.35725880000973,214.35725880000973,214.35725880000973,22,0,,,214.35725880000973,214.5573466999922,0.0,214.5573466999922,0,0.0,0,1,1000,num_1,0.5488832999835722,,26,12,2026-03-05_11h15.11.886,2026A_exp2,2022.2.4,59.769361969358386,
1000,1,0.0,0.0,0,0,68,68,7,,,,,215.12447159999283,215.77523259998998,215.77523259998998,216.2595809000195,315,45,216.2595809000195,216.2595809000195,216.2595809000195,216.2595809000195,216.2595809000195,216.2595809000195,216.2595809000195,216.2595809000195,216.2595809000195,216.62613019999117,216.62613019999117,216.62613019999117,216.62613019999117,216.62613019999117,216.62613019999117,216.62613019999117,216.62613019999117,216.62613019999117,11,2,"[0.13354160002199933, 0.23359540000092238]","[0.18353890004800633, 0.3672235000412911]",216.62613019999117,216.82802660000743,1000,216.82802660000743,1000,1000,1000,1000,1,num_2,0.44701180001720786,,26,12,2026-03-05_11h15.11.886,2026A_exp2,2022.2.4,59.769361969358386,
1,0,0.0,4.9,1,0,69,69,37,,,,,217.29348890000256,217.94391780003207,217.94391780003207,218.44508090004092,315,45,218.44508090004092,218.44508090004092,218.44508090004092,218.44508090004092,218.44508090004092,218.44508090004092,218.44508090004092,218.44508090004092,218.44508090004092,218.81152779998956,218.81152779998956,218.81152779998956,218.81152779998956,218.81152779998956,218.81152779998956,218.81152779998956,218.81152779998956,218.81152779998956,23,0,,,218.81152779998956,219.0118065000279,4.9,219.0118065000279,1,4.9,1,1,1000,num_4,0.8783438999671489,,26,12,2026-03-05_11h15.11.886,2026A_exp2,2022.2.4,59.769361969358386,
1,0,0.0,0.0,0,0,70,70,55,,,,,219.91261040000245,220.5634343000129,220.5634343000129,221.0477412000182,45,315,221.0477412000182,221.0477412000182,221.0477412000182,221.0477412000182,221.0477412000182,221.0477412000182,221.0477412000182,221.0477412000182,221.0477412000182,221.41430599999148,221.41430599999148,221.41430599999148,221.41430599999148,221.41430599999148,221.41430599999148,221.41430599999148,221.41430599999148,221.41430599999148,0,1,[0.001243000035174191],[0.3672507000155747],221.41430599999148,221.61444279999705,0.0,221.61444279999705,1,0.0,0,0,1000,num_4,1.3237938999664038,,26,12,2026-03-05_11h15.11.886,2026A_exp2,2022.2.4,59.769361969358386,
1000,1,3.7,6.1,1,0,71,71,58,,,,,222.9657646000269,223.61649260000559,223.61649260000559,224.11762350000208,315,45,224.11762350000208,224.11762350000208,224.11762350000208,224.11762350000208,224.11762350000208,224.11762350000208,224.11762350000208,224.11762350000208,224.11762350000208,224.46716130001005,224.46716130001005,224.46716130001005,224.46716130001005,224.46716130001005,224.46716130001005,224.46716130001005,224.46716130001005,224.46716130001005,0,1,[0.0011964000295847654],[0.35048740002093837],224.46716130001005,224.66926009999588,1000,224.66926009999588,1000,1000,1000,1000,1,num_2,0.4213238999946043,,26,12,2026-03-05_11h15.11.886,2026A_exp2,2022.2.4,59.769361969358386,
1,0,6.1,3.7,1,0,72,72,51,,,,,225.11797210003715,225.76866689999588,225.76866689999588,226.26997530000517,315,315,226.26997530000517,226.26997530000517,226.26997530000517,226.26997530000517,226.26997530000517,226.26997530000517,226.26997530000517,226.26997530000517,226.26997530000517,226.61950199998682,226.61950199998682,226.61950199998682,226.61950199998682,226.61950199998682,226.61950199998682,226.61950199998682,226.61950199998682,226.61950199998682,22,0,,,226.61950199998682,226.8196957000182,3.7,226.8196957000182,1,3.7,1,1,1000,num_4,0.8151809999835677,,26,12,2026-03-05_11h15.11.886,2026A_exp2,2022.2.4,59.769361969358386,
1000,1,0.0,0.0,1,0,73,73,78,,,,,227.6536379000172,228.30453170003602,228.30453170003602,228.78900980000617,45,45,228.78900980000617,228.78900980000617,228.78900980000617,228.78900980000617,228.78900980000617,228.78900980000617,228.78900980000617,228.78900980000617,228.78900980000617,229.15545319998637,229.15545319998637,229.15545319998637,229.15545319998637,229.15545319998637,229.15545319998637,229.15545319998637,229.15545319998637,229.15545319998637,23,0,,,229.15545319998637,229.35633229999803,1000,229.35633229999803,1000,1000,1000,1000,1,num_2,0.6542414000141434,,26,12,2026-03-05_11h15.11.886,2026A_exp2,2022.2.4,59.769361969358386,
1000,1,0.0,4.9,0,0,74,74,26,,,,,230.0394382000086,230.69023120001657,230.69023120001657,231.19176660000812,315,45,231.19176660000812,231.19176660000812,231.19176660000812,231.19176660000812,231.19176660000812,231.19176660000812,231.19176660000812,231.19176660000812,231.19176660000812,231.54103550000582,231.54103550000582,231.54103550000582,231.54103550000582,231.54103550000582,231.54103550000582,231.54103550000582,231.54103550000582,231.54103550000582,22,0,,,231.54103550000582,231.7616153000272,1000,231.7616153000272,1000,1000,1000,1000,1,num_2,0.5288217999623157,,26,12,2026-03-05_11h15.11.886,2026A_exp2,2022.2.4,59.769361969358386,
1,0,0.0,6.1,1,0,75,75,33,,,,,232.30851170001552,232.9592144000344,232.9592144000344,233.45989790000021,315,315,233.45989790000021,233.45989790000021,233.45989790000021,233.45989790000021,233.45989790000021,233.45989790000021,233.45989790000021,233.45989790000021,233.45989790000021,233.82654560002265,233.82654560002265,233.82654560002265,233.82654560002265,233.82654560002265,233.82654560002265,233.82654560002265,233.82654560002265,233.82654560002265,23,0,,,233.82654560002265,234.02703370002564,6.1,234.02703370002564,1,6.1,1,1,1000,num_4,0.5440264000208117,,26,12,2026-03-05_11h15.11.886,2026A_exp2,2022.2.4,59.769361969358386,
1,0,0.0,0.0,1,0,76,76,49,,,,,234.59390279999934,235.24463540001307,235.24463540001307,235.74592190003023,45,315,235.74592190003023,235.74592190003023,235.74592190003023,235.74592190003023,235.74592190003023,235.74592190003023,235.74592190003023,235.74592190003023,235.74592190003023,236.09570900001563,236.09570900001563,236.09570900001563,236.09570900001563,236.09570900001563,236.09570900001563,236.09570900001563,236.09570900001563,236.09570900001563,22,0,,,236.09570900001563,236.29575310001383,0.0,236.29575310001383,1,0.0,0,0,1000,num_4,0.7386237000464462,,26,12,2026-03-05_11h15.11.886,2026A_exp2,2022.2.4,59.769361969358386,
1,0,0.0,6.1,1,0,77,77,50,,,,,237.06286860001273,237.71394270000746,237.71394270000746,238.19836020004004,315,315,238.19836020004004,238.19836020004004,238.19836020004004,238.19836020004004,238.19836020004004,238.19836020004004,238.19836020004004,238.19836020004004,238.19836020004004,238.56466110004112,238.56466110004112,238.56466110004112,238.56466110004112,238.56466110004112,238.56466110004112,238.56466110004112,238.56466110004112,238.56466110004112,23,0,,,238.56466110004112,238.76491600001464,6.1,238.76491600001464,1,6.1,1,1,1000,num_4,0.5177616999717429,,26,12,2026-03-05_11h15.11.886,2026A_exp2,2022.2.4,59.769361969358386,
1000,1,4.9,0.0,1,0,78,78,10,,,,,239.29870620003203,239.94950370001607,239.94950370001607,240.43390020000516,45,45,240.43390020000516,240.43390020000516,240.43390020000516,240.43390020000516,240.43390020000516,240.43390020000516,240.43390020000516,240.43390020000516,240.43390020000516,240.80041950003942,240.80041950003942,240.80041950003942,240.80041950003942,240.80041950003942,240.80041950003942,240.80041950003942,240.80041950003942,240.80041950003942,23,0,,,240.80041950003942,241.00221489998512,1000,241.00221489998512,1000,1000,1000,1000,0,num_3,0.4085966999991797,,26,12,2026-03-05_11h15.11.886,2026A_exp2,2022.2.4,59.769361969358386,
1000,1,6.1,0.0,0,0,79,79,81,,,,,241.43417130003218,242.0848930000211,242.0848930000211,242.5859944000258,315,45,242.5859944000258,242.5859944000258,242.5859944000258,242.5859944000258,242.5859944000258,242.5859944000258,242.5859944000258,242.5859944000258,242.5859944000258,242.9525130999973,242.9525130999973,242.9525130999973,242.9525130999973,242.9525130999973,242.9525130999973,242.9525130999973,242.9525130999973,242.9525130999973,19,2,"[0.3004549000179395, 0.35027789999730885]","[0.3336987000075169, 0.36706130002858117]",242.9525130999973,243.15477349999128,1000,243.15477349999128,1000,1000,1000,1000,0,num_3,0.16757710004458204,,26,12,2026-03-05_11h15.11.886,2026A_exp2,2022.2.4,59.769361969358386,
1,0,3.7,3.7,1,0,80,80,30,,,,,243.35290880000684,244.00352060003206,244.00352060003206,244.50470580003457,315,315,244.50470580003457,244.50470580003457,244.50470580003457,244.50470580003457,244.50470580003457,244.50470580003457,244.50470580003457,244.50470580003457,244.50470580003457,244.85445760004222,244.85445760004222,244.85445760004222,244.85445760004222,244.85445760004222,244.85445760004222,244.85445760004222,244.85445760004222,244.85445760004222,17,2,"[0.25045610003871843, 0.333899500023108]","[0.30044800002360716, 0.3506125000421889]",244.85445760004222,245.05462499998976,3.7,245.07128460000968,1,3.7,1,1,1000,num_4,0.643572699977085,,26,12,2026-03-05_11h15.11.886,2026A_exp2,2022.2.4,59.769361969358386,
1000,1,0.0,0.0,1,0,81,81,85,,,,,245.73855440004263,246.38912090001395,246.38912090001395,246.87372340000002,45,45,246.87372340000002,246.87372340000002,246.87372340000002,246.87372340000002,246.87372340000002,246.87372340000002,246.87372340000002,246.87372340000002,246.87372340000002,247.23999259999255,247.23999259999255,247.23999259999255,247.23999259999255,247.23999259999255,247.23999259999255,247.23999259999255,247.23999259999255,247.23999259999255,23,0,,,247.23999259999255,247.44201030000113,1000,247.44201030000113,1000,1000,1000,1000,1,num_2,0.5125653999857605,,26,12,2026-03-05_11h15.11.886,2026A_exp2,2022.2.4,59.769361969358386,
1000,1,0.0,3.7,1,0,82,82,84,,,,,247.97436920000473,248.6249744000379,248.6249744000379,249.10915040003601,45,315,249.10915040003601,249.10915040003601,249.10915040003601,249.10915040003601,249.10915040003601,249.10915040003601,249.10915040003601,249.10915040003601,249.10915040003601,249.47565290000057,249.47565290000057,249.47565290000057,249.47565290000057,249.47565290000057,249.47565290000057,249.47565290000057,249.47565290000057,249.47565290000057,0,1,[0.0012484999606385827],[0.36713539995253086],249.47565290000057,249.6775476000039,1000,249.6775476000039,1000,1000,1000,1000,1,num_2,0.26906510000117123,,26,12,2026-03-05_11h15.11.886,2026A_exp2,2022.2.4,59.769361969358386,
1,0,0.0,0.0,1,0,83,83,69,,,,,249.97615250002127,250.62684889999218,250.62684889999218,251.12810329999775,45,45,251.12810329999775,251.12810329999775,251.12810329999775,251.12810329999775,251.12810329999775,251.12810329999775,251.12810329999775,251.12810329999775,251.12810329999775,251.4942880999879,251.4942880999879,251.4942880999879,251.4942880999879,251.4942880999879,251.4942880999879,251.4942880999879,251.4942880999879,251.4942880999879,7,1,[0.11703510000370443],[0.367265300010331],251.4942880999879,251.69454090000363,0.0,251.69454090000363,1,0.0,0,0,1000,num_4,0.6437878999859095,,26,12,2026-03-05_11h15.11.886,2026A_exp2,2022.2.4,59.769361969358386,
1000,1,0.0,0.0,0,0,84,84,86,,,,,252.36185889999615,253.01254530000733,253.01254530000733,253.49706820002757,45,45,253.49706820002757,253.49706820002757,253.49706820002757,253.49706820002757,253.49706820002757,253.49706820002757,253.49706820002757,253.49706820002757,253.49706820002757,253.86343249998754,253.86343249998754,253.86343249998754,253.86343249998754,253.86343249998754,253.86343249998754,253.86343249998754,253.86343249998754,253.86343249998754,7,5,"[0.0011926000006496906, 0.15032200003042817, 0.20037340000271797, 0.2672743000439368, 0.3172214000369422]","[0.1338609000085853, 0.18378560000564903, 0.23377510003047064, 0.28392990003339946, 0.3339072000235319]",253.86343249998754,254.0653315000236,1000,254.0653315000236,1000,1000,1000,1000,0,num_3,0.5929590999730863,,26,12,2026-03-05_11h15.11.886,2026A_exp2,2022.2.4,59.769361969358386,
1,0,3.7,0.0,0,0,85,85,87,,,,,254.68097550002858,255.33154959999956,255.33154959999956,255.83254179998767,315,45,255.83254179998767,255.83254179998767,255.83254179998767,255.83254179998767,255.83254179998767,255.83254179998767,255.83254179998767,255.83254179998767,255.83254179998767,256.19887560000643,256.19887560000643,256.19887560000643,256.19887560000643,256.19887560000643,256.19887560000643,256.19887560000643,256.19887560000643,256.19887560000643,0,1,[0.0012319000088609755],[0.3669765000231564],256.19887560000643,256.39909070002614,3.7,256.39909070002614,1,3.7,1,1,1000,num_4,0.8121760999783874,,26,12,2026-03-05_11h15.11.886,2026A_exp2,2022.2.4,59.769361969358386,
1,0,0.0,6.1,0,0,86,86,0,,,,,257.2334772000322,257.88410319999093,257.88410319999093,258.3683089000406,315,315,258.3683089000406,258.3683089000406,258.3683089000406,258.3683089000406,258.3683089000406,258.3683089000406,258.3683089000406,258.3683089000406,258.3683089000406,258.73479369998677,258.73479369998677,258.73479369998677,258.73479369998677,258.73479369998677,258.73479369998677,258.73479369998677,258.73479369998677,258.73479369998677,23,0,,,258.73479369998677,258.93496360001154,0.0,258.93496360001154,0,0.0,0,1,1000,num_1,0.6920473999925889,,26,12,2026-03-05_11h15.11.886,2026A_exp2,2022.2.4,59.769361969358386,
0,0,0.0,0.0,1,0,87,87,2,,,,,259.6525383000262,260.3031704000314,260.3031704000314,260.78745699999854,45,315,260.78745699999854,260.78745699999854,260.78745699999854,260.78745699999854,260.78745699999854,260.78745699999854,260.78745699999854,260.78745699999854,260.78745699999854,261.15398500004085,261.15398500004085,261.15398500004085,261.15398500004085,261.15398500004085,261.15398500004085,261.15398500004085,261.15398500004085,261.15398500004085,0,1,[0.0012404000153765082],[0.3671436000149697],261.15398500004085,261.3541426000302,0.0,261.3541426000302,1,0.0,0,0,1000,num_4,0.7760682000080124,,26,12,2026-03-05_11h15.11.886,2026A_exp2,2022.2.4,59.769361969358386,
1000,1,4.9,0.0,0,0,88,88,41,,,,,262.1548917000182,262.8056846000254,262.8056846000254,263.2899640999967,45,315,263.2899640999967,263.2899640999967,263.2899640999967,263.2899640999967,263.2899640999967,263.2899640999967,263.2899640999967,263.2899640999967,263.2899640999967,263.6565271000145,263.6565271000145,263.6565271000145,263.6565271000145,263.6565271000145,263.6565271000145,263.6565271000145,263.6565271000145,263.6565271000145,23,0,,,263.6565271000145,263.85844219999854,1000,263.85844219999854,1000,1000,1000,1000,0,num_3,0.4801642000093125,,26,12,2026-03-05_11h15.11.886,2026A_exp2,2022.2.4,59.769361969358386,
1000,1,0.0,4.9,0,0,89,89,60,,,,,264.35717179998755,265.0078604000155,265.0078604000155,265.5088712000288,315,315,265.5088712000288,265.5088712000288,265.5088712000288,265.5088712000288,265.5088712000288,265.5088712000288,265.5088712000288,265.5088712000288,265.5088712000288,265.87541510001756,265.87541510001756,265.87541510001756,265.87541510001756,265.87541510001756,265.87541510001756,265.87541510001756,265.87541510001756,265.87541510001756,23,0,,,265.87541510001756,266.0778256999911,1000,266.0778256999911,1000,1000,1000,1000,1,num_2,0.4601925000315532,,26,12,2026-03-05_11h15.11.886,2026A_exp2,2022.2.4,59.769361969358386,
,,,,,,,,,,,,,,,,,,,,,,,,,,,,,,,,,,,,,,,,,,,,,,,,,,,,266.5679575999966,,,,,,,
