validity,detectorcomp,contrastCW,contrastCCW,precueCWorCCW,block_80trials.thisRepN,block_80trials.thisTrialN,block_80trials.thisN,block_80trials.thisIndex,etRecord.started,etRecord.stopped,text.started,text.stopped,text_4.started,text_4.stopped,text_6.started,text_6.stopped,oriCW,oriCCW,roi_2.started,grating_UR.started,grating_UL.started,grating_LR.started,grating_LL.started,noise_UR.started,noise_UL.started,noise_LR.started,noise_LL.started,roi_2.stopped,grating_UR.stopped,grating_UL.stopped,grating_LR.stopped,grating_LL.stopped,noise_UR.stopped,noise_UL.stopped,noise_LR.stopped,noise_LL.stopped,outframe,roi_2.numLooks,roi_2.timesOn,roi_2.timesOff,text_2.started,text_2.stopped,probedcontrast,key_resp.started,respdetect,relevantContrast,correctDetect,TorFdetect,respCWorCCW,key_resp.keys,key_resp.rt,feedback_display_.started,participantNo,blockNo,date,expName,psychopyVersion,frameRate,
1000,1,6.1,4.9,1,0,0,0,76,3.370002377778292e-05,3.370002377778292e-05,52.04793950001476,54.05570359999547,54.05570359999547,54.684857000014745,54.684857000014745,55.20295130001614,315,315,55.20295130001614,55.20295130001614,55.20295130001614,55.20295130001614,55.20295130001614,55.20295130001614,55.20295130001614,55.20295130001614,55.20295130001614,55.552445199980866,55.552445199980866,55.552445199980866,55.552445199980866,55.552445199980866,55.552445199980866,55.552445199980866,55.552445199980866,55.552445199980866,23,0,,,55.552445199980866,55.75296020001406,1000,55.75296020001406,1000,1000,1000,1000,1,num_2,1.139140299987048,,22,8,2026-03-04_11h19.13.057,2026A_exp2,2022.2.4,59.68845015581361,
1,0,6.1,0.0,1,0,1,1,38,,,,,56.920592200011015,57.57110040000407,57.57110040000407,58.07235779997427,315,315,58.07235779997427,58.07235779997427,58.07235779997427,58.07235779997427,58.07235779997427,58.07235779997427,58.07235779997427,58.07235779997427,58.07235779997427,58.438703699968755,58.438703699968755,58.438703699968755,58.438703699968755,58.438703699968755,58.438703699968755,58.438703699968755,58.438703699968755,58.438703699968755,23,0,,,58.438703699968755,58.638933399983216,0.0,58.638933399983216,0,0.0,0,1,1000,num_1,0.7333966000005603,,22,8,2026-03-04_11h19.13.057,2026A_exp2,2022.2.4,59.68845015581361,
1,0,6.1,3.7,0,0,2,2,86,,,,,59.38953849999234,60.04027870000573,60.04027870000573,60.526052800007164,45,315,60.526052800007164,60.526052800007164,60.526052800007164,60.526052800007164,60.526052800007164,60.526052800007164,60.526052800007164,60.526052800007164,60.526052800007164,60.89106310001807,60.89106310001807,60.89106310001807,60.89106310001807,60.89106310001807,60.89106310001807,60.89106310001807,60.89106310001807,60.89106310001807,23,0,,,60.89106310001807,61.09130450000521,6.1,61.09130450000521,1,6.1,1,1,1000,num_4,0.6243860000395216,,22,8,2026-03-04_11h19.13.057,2026A_exp2,2022.2.4,59.68845015581361,
1000,1,4.9,6.1,1,0,3,3,18,,,,,61.74181460001273,62.39262319996487,62.39262319996487,62.87707689998206,315,315,62.87707689998206,62.87707689998206,62.87707689998206,62.87707689998206,62.87707689998206,62.87707689998206,62.87707689998206,62.87707689998206,62.87707689998206,63.243484499980696,63.243484499980696,63.243484499980696,63.243484499980696,63.243484499980696,63.243484499980696,63.243484499980696,63.243484499980696,63.243484499980696,23,0,,,63.243484499980696,63.443562000000384,1000,63.443562000000384,1000,1000,1000,1000,1,num_2,0.6723836999735795,,22,8,2026-03-04_11h19.13.057,2026A_exp2,2022.2.4,59.68845015581361,
1000,1,3.7,0.0,1,0,4,4,33,,,,,64.14444000000367,64.7948183999979,64.7948183999979,65.29624619998503,45,45,65.29624619998503,65.29624619998503,65.29624619998503,65.29624619998503,65.29624619998503,65.29624619998503,65.29624619998503,65.29624619998503,65.29624619998503,65.6625561999972,65.6625561999972,65.6625561999972,65.6625561999972,65.6625561999972,65.6625561999972,65.6625561999972,65.6625561999972,65.6625561999972,23,0,,,65.6625561999972,65.86478180001723,1000,65.86478180001723,1000,1000,1000,1000,0,num_3,0.4993508000043221,,22,8,2026-03-04_11h19.13.057,2026A_exp2,2022.2.4,59.68845015581361,
0,0,3.7,6.1,1,0,5,5,17,,,,,66.3799527999945,67.0306336999638,67.0306336999638,67.53185650001979,45,315,67.53185650001979,67.53185650001979,67.53185650001979,67.53185650001979,67.53185650001979,67.53185650001979,67.53185650001979,67.53185650001979,67.53185650001979,67.8814572999836,67.8814572999836,67.8814572999836,67.8814572999836,67.8814572999836,67.8814572999836,67.8814572999836,67.8814572999836,67.8814572999836,22,0,,,67.8814572999836,68.08167499996489,3.7,68.0982842000085,0,3.7,1,0,1000,num_1,0.8337770000216551,,22,8,2026-03-04_11h19.13.057,2026A_exp2,2022.2.4,59.68845015581361,
1,0,0.0,4.9,0,0,6,6,35,,,,,68.94904879998649,69.59980889997678,69.59980889997678,70.08412879996467,315,315,70.08412879996467,70.08412879996467,70.08412879996467,70.08412879996467,70.08412879996467,70.08412879996467,70.08412879996467,70.08412879996467,70.08412879996467,70.45050629996695,70.45050629996695,70.45050629996695,70.45050629996695,70.45050629996695,70.45050629996695,70.45050629996695,70.45050629996695,70.45050629996695,1,2,"[0.001261299999896437, 0.36724980000872165]","[0.35050800000317395, 0.3672544999863021]",70.45050629996695,70.65076869999757,0.0,70.65076869999757,0,0.0,0,1,1000,num_1,2.194146100024227,,22,8,2026-03-04_11h19.13.057,2026A_exp2,2022.2.4,59.68845015581361,
1000,1,0.0,3.7,1,0,7,7,75,,,,,72.86964659998193,73.52055730001302,73.52055730001302,74.00489519996336,45,315,74.00489519996336,74.00489519996336,74.00489519996336,74.00489519996336,74.00489519996336,74.00489519996336,74.00489519996336,74.00489519996336,74.00489519996336,74.3708516000188,74.3708516000188,74.3708516000188,74.3708516000188,74.3708516000188,74.3708516000188,74.3708516000188,74.3708516000188,74.3708516000188,23,0,,,74.3708516000188,74.57334740000078,1000,74.57334740000078,1000,1000,1000,1000,1,num_2,0.5591365000000224,,22,8,2026-03-04_11h19.13.057,2026A_exp2,2022.2.4,59.68845015581361,
1000,1,3.7,0.0,1,0,8,8,44,,,,,75.15525999997044,75.80569920002017,75.80569920002017,76.30716189998202,45,315,76.30716189998202,76.30716189998202,76.30716189998202,76.30716189998202,76.30716189998202,76.30716189998202,76.30716189998202,76.30716189998202,76.30716189998202,76.67354049999267,76.67354049999267,76.67354049999267,76.67354049999267,76.67354049999267,76.67354049999267,76.67354049999267,76.67354049999267,76.67354049999267,23,0,,,76.67354049999267,76.87593639997067,1000,76.87593639997067,1000,1000,1000,1000,1,num_2,0.7929165000095963,,22,8,2026-03-04_11h19.13.057,2026A_exp2,2022.2.4,59.68845015581361,
1000,1,4.9,3.7,1,0,9,9,14,,,,,77.69115650001913,78.34186899999622,78.34186899999622,78.84307790000457,45,45,78.84307790000457,78.84307790000457,78.84307790000457,78.84307790000457,78.84307790000457,78.84307790000457,78.84307790000457,78.84307790000457,78.84307790000457,79.2093227999867,79.2093227999867,79.2093227999867,79.2093227999867,79.2093227999867,79.2093227999867,79.2093227999867,79.2093227999867,79.2093227999867,23,0,,,79.2093227999867,79.41155979997711,1000,79.41155979997711,1000,1000,1000,1000,1,num_2,0.48862240003654733,,22,8,2026-03-04_11h19.13.057,2026A_exp2,2022.2.4,59.68845015581361,
1000,1,0.0,3.7,0,0,10,10,32,,,,,79.92669659998501,80.57754979998572,80.57754979998572,81.07846809999319,45,315,81.07846809999319,81.07846809999319,81.07846809999319,81.07846809999319,81.07846809999319,81.07846809999319,81.07846809999319,81.07846809999319,81.07846809999319,81.44484319997719,81.44484319997719,81.44484319997719,81.44484319997719,81.44484319997719,81.44484319997719,81.44484319997719,81.44484319997719,81.44484319997719,23,0,,,81.44484319997719,81.6473748999997,1000,81.6473748999997,1000,1000,1000,1000,1,num_2,0.5325439000152983,,22,8,2026-03-04_11h19.13.057,2026A_exp2,2022.2.4,59.68845015581361,
1000,1,6.1,4.9,0,0,11,11,77,,,,,82.19575369998347,82.85307850001846,82.85307850001846,83.35248439997667,315,315,83.35248439997667,83.35248439997667,83.35248439997667,83.35248439997667,83.35248439997667,83.35248439997667,83.35248439997667,83.35248439997667,83.35248439997667,83.71381440002006,83.71381440002006,83.71381440002006,83.71381440002006,83.71381440002006,83.71381440002006,83.71381440002006,83.71381440002006,83.71381440002006,12,2,"[0.0026215999969281256, 0.19912200001999736]","[0.15027959999861196, 0.23179729998810217]",83.71381440002006,83.91643609997118,1000,83.91643609997118,1000,1000,1000,1000,0,num_3,0.6389098999788985,,22,8,2026-03-04_11h19.13.057,2026A_exp2,2022.2.4,59.68845015581361,
1000,1,3.7,0.0,0,0,12,12,37,,,,,84.58136969996849,85.23193830001401,85.23193830001401,85.73329060000833,315,315,85.73329060000833,85.73329060000833,85.73329060000833,85.73329060000833,85.73329060000833,85.73329060000833,85.73329060000833,85.73329060000833,85.73329060000833,86.08282249997137,86.08282249997137,86.08282249997137,86.08282249997137,86.08282249997137,86.08282249997137,86.08282249997137,86.08282249997137,86.08282249997137,2,2,"[0.0012380999978631735, 0.3339904000167735]","[0.317105200025253, 0.35054980003042147]",86.08282249997137,86.3055655999924,1000,86.3055655999924,1000,1000,1000,1000,0,num_3,0.43478150002192706,,22,8,2026-03-04_11h19.13.057,2026A_exp2,2022.2.4,59.68845015581361,
1000,1,3.7,6.1,0,0,13,13,81,,,,,86.76693509996403,87.41758599999594,87.41758599999594,87.91890769999009,315,45,87.91890769999009,87.91890769999009,87.91890769999009,87.91890769999009,87.91890769999009,87.91890769999009,87.91890769999009,87.91890769999009,87.91890769999009,88.28505100001348,88.28505100001348,88.28505100001348,88.28505100001348,88.28505100001348,88.28505100001348,88.28505100001348,88.28505100001348,88.28505100001348,22,1,[0.1504099000012502],[0.16694620001362637],88.28505100001348,88.48706959997071,1000,88.48706959997071,1000,1000,1000,1000,0,num_3,0.5009951000101864,,22,8,2026-03-04_11h19.13.057,2026A_exp2,2022.2.4,59.68845015581361,
1000,1,4.9,4.9,1,0,14,14,60,,,,,89.01908429997275,89.66989979997743,89.66989979997743,90.17089609999675,45,45,90.17089609999675,90.17089609999675,90.17089609999675,90.17089609999675,90.17089609999675,90.17089609999675,90.17089609999675,90.17089609999675,90.17089609999675,90.52068630000576,90.52068630000576,90.52068630000576,90.52068630000576,90.52068630000576,90.52068630000576,90.52068630000576,90.52068630000576,90.52068630000576,22,0,,,90.52068630000576,90.72094819997437,1000,90.73757920000935,1000,1000,1000,1000,0,num_3,0.49061130004702136,,22,8,2026-03-04_11h19.13.057,2026A_exp2,2022.2.4,59.68845015581361,
1,0,3.7,4.9,0,0,15,15,31,,,,,91.25478299998213,91.90543370001251,91.90543370001251,92.40669929998694,315,315,92.40669929998694,92.40669929998694,92.40669929998694,92.40669929998694,92.40669929998694,92.40669929998694,92.40669929998694,92.40669929998694,92.40669929998694,92.7729021999985,92.7729021999985,92.7729021999985,92.7729021999985,92.7729021999985,92.7729021999985,92.7729021999985,92.7729021999985,92.7729021999985,23,0,,,92.7729021999985,92.97321430000011,3.7,92.97321430000011,0,3.7,1,0,1000,num_1,0.7822774000233039,,22,8,2026-03-04_11h19.13.057,2026A_exp2,2022.2.4,59.68845015581361,
1,0,6.1,6.1,0,0,16,16,51,,,,,93.77389969996875,94.42442699999083,94.42442699999083,94.90909169998486,315,315,94.90909169998486,94.90909169998486,94.90909169998486,94.90909169998486,94.90909169998486,94.90909169998486,94.90909169998486,94.90909169998486,94.90909169998486,95.2754433999653,95.2754433999653,95.2754433999653,95.2754433999653,95.2754433999653,95.2754433999653,95.2754433999653,95.2754433999653,95.2754433999653,22,1,[0.2836531000211835],[0.3004842000082135],95.2754433999653,95.47565089998534,6.1,95.47565089998534,0,6.1,1,0,1000,num_1,1.3518046000390314,,22,8,2026-03-04_11h19.13.057,2026A_exp2,2022.2.4,59.68845015581361,
1,0,4.9,0.0,1,0,17,17,15,,,,,96.8435429999954,97.49432090000482,97.49432090000482,97.97881589998724,315,45,97.97881589998724,97.97881589998724,97.97881589998724,97.97881589998724,97.97881589998724,97.97881589998724,97.97881589998724,97.97881589998724,97.97881589998724,98.3451998999808,98.3451998999808,98.3451998999808,98.3451998999808,98.3451998999808,98.3451998999808,98.3451998999808,98.3451998999808,98.3451998999808,23,0,,,98.3451998999808,98.54523719998542,0.0,98.54523719998542,0,0.0,0,1,1000,num_1,0.594403599970974,,22,8,2026-03-04_11h19.13.057,2026A_exp2,2022.2.4,59.68845015581361,
1000,1,3.7,3.7,1,0,18,18,46,,,,,99.16259919997538,99.81743850000203,99.81743850000203,100.29762759996811,315,315,100.29762759996811,100.29762759996811,100.29762759996811,100.29762759996811,100.29762759996811,100.29762759996811,100.29762759996811,100.29762759996811,100.29762759996811,100.66421909997007,100.66421909997007,100.66421909997007,100.66421909997007,100.66421909997007,100.66421909997007,100.66421909997007,100.66421909997007,100.66421909997007,0,2,"[0.0015629000263288617, 0.34997400001157075]","[0.3333816999802366, 0.3669225000194274]",100.66421909997007,100.86546900001122,1000,100.86546900001122,1000,1000,1000,1000,1,num_2,0.6101016000029631,,22,8,2026-03-04_11h19.13.057,2026A_exp2,2022.2.4,59.68845015581361,
1,0,0.0,0.0,0,0,19,19,29,,,,,101.49831389996689,102.14905569999246,102.14905569999246,102.64997369999764,315,315,102.64997369999764,102.64997369999764,102.64997369999764,102.64997369999764,102.64997369999764,102.64997369999764,102.64997369999764,102.64997369999764,102.64997369999764,103.01653590000933,103.01653590000933,103.01653590000933,103.01653590000933,103.01653590000933,103.01653590000933,103.01653590000933,103.01653590000933,103.01653590000933,23,0,,,103.01653590000933,103.2167533999891,0.0,103.2167533999891,1,0.0,0,0,1000,num_4,1.2356263999827206,,22,8,2026-03-04_11h19.13.057,2026A_exp2,2022.2.4,59.68845015581361,
1,0,0.0,0.0,1,0,20,20,82,,,,,104.46785099996487,105.11873729998479,105.11873729998479,105.60311789996922,315,315,105.60311789996922,105.60311789996922,105.60311789996922,105.60311789996922,105.60311789996922,105.60311789996922,105.60311789996922,105.60311789996922,105.60311789996922,105.9695311000105,105.9695311000105,105.9695311000105,105.9695311000105,105.9695311000105,105.9695311000105,105.9695311000105,105.9695311000105,105.9695311000105,23,0,,,105.9695311000105,106.1697391999769,0.0,106.1697391999769,1,0.0,0,0,1000,num_4,0.954628599982243,,22,8,2026-03-04_11h19.13.057,2026A_exp2,2022.2.4,59.68845015581361,
1000,1,6.1,6.1,0,0,21,21,56,,,,,107.15416269999696,107.80452750000404,107.80452750000404,108.28900439996505,45,315,108.28900439996505,108.28900439996505,108.28900439996505,108.28900439996505,108.28900439996505,108.28900439996505,108.28900439996505,108.28900439996505,108.28900439996505,108.65551379998215,108.65551379998215,108.65551379998215,108.65551379998215,108.65551379998215,108.65551379998215,108.65551379998215,108.65551379998215,108.65551379998215,23,0,,,108.65551379998215,108.8575334000052,1000,108.8575334000052,1000,1000,1000,1000,1,num_2,0.7232987000024877,,22,8,2026-03-04_11h19.13.057,2026A_exp2,2022.2.4,59.68845015581361,
1,0,0.0,3.7,1,0,22,22,10,,,,,109.60637839999981,110.25718549999874,110.25718549999874,110.7583376999828,45,45,110.7583376999828,110.7583376999828,110.7583376999828,110.7583376999828,110.7583376999828,110.7583376999828,110.7583376999828,110.7583376999828,110.7583376999828,111.1247158999904,111.1247158999904,111.1247158999904,111.1247158999904,111.1247158999904,111.1247158999904,111.1247158999904,111.1247158999904,111.1247158999904,23,0,,,111.1247158999904,111.324911099975,3.7,111.324911099975,1,3.7,1,1,1000,num_4,0.9119287999928929,,22,8,2026-03-04_11h19.13.057,2026A_exp2,2022.2.4,59.68845015581361,
1,0,3.7,3.7,1,0,23,23,64,,,,,112.2589627999696,112.90964749996783,112.90964749996783,113.39421810000204,315,45,113.39421810000204,113.39421810000204,113.39421810000204,113.39421810000204,113.39421810000204,113.39421810000204,113.39421810000204,113.39421810000204,113.39421810000204,113.76066279999213,113.76066279999213,113.76066279999213,113.76066279999213,113.76066279999213,113.76066279999213,113.76066279999213,113.76066279999213,113.76066279999213,23,0,,,113.76066279999213,113.96093319996726,3.7,113.96093319996726,0,3.7,1,0,1000,num_1,1.771564299997408,,22,8,2026-03-04_11h19.13.057,2026A_exp2,2022.2.4,59.68845015581361,
1,0,0.0,3.7,0,0,24,24,22,,,,,115.76245769998059,116.41316679999,116.41316679999,116.89758380001877,315,45,116.89758380001877,116.89758380001877,116.89758380001877,116.89758380001877,116.89758380001877,116.89758380001877,116.89758380001877,116.89758380001877,116.89758380001877,117.26424499996938,117.26424499996938,117.26424499996938,117.26424499996938,117.26424499996938,117.26424499996938,117.26424499996938,117.26424499996938,117.26424499996938,8,4,"[0.0012340000248514116, 0.06693460000678897, 0.10012550000101328, 0.2833805999835022]","[0.05016580002848059, 0.08352869999362156, 0.2502418999793008, 0.2996210000128485]",117.26424499996938,117.46437659999356,0.0,117.46437659999356,1,0.0,0,0,1000,num_4,1.243332999991253,,22,8,2026-03-04_11h19.13.057,2026A_exp2,2022.2.4,59.68845015581361,
1000,1,0.0,3.7,1,0,25,25,43,,,,,118.73214149998967,119.38283389998833,119.38283389998833,119.86732299998403,315,315,119.86732299998403,119.86732299998403,119.86732299998403,119.86732299998403,119.86732299998403,119.86732299998403,119.86732299998403,119.86732299998403,119.86732299998403,120.23356269998476,120.23356269998476,120.23356269998476,120.23356269998476,120.23356269998476,120.23356269998476,120.23356269998476,120.23356269998476,120.23356269998476,23,0,,,120.23356269998476,120.4361664999742,1000,120.4361664999742,1000,1000,1000,1000,1,num_2,0.4885511000175029,,22,8,2026-03-04_11h19.13.057,2026A_exp2,2022.2.4,59.68845015581361,
1000,1,4.9,4.9,0,0,26,26,34,,,,,120.95107209996786,121.60182869998971,121.60182869998971,122.10293359996285,45,315,122.10293359996285,122.10293359996285,122.10293359996285,122.10293359996285,122.10293359996285,122.10293359996285,122.10293359996285,122.10293359996285,122.10293359996285,122.46934989996953,122.46934989996953,122.46934989996953,122.46934989996953,122.46934989996953,122.46934989996953,122.46934989996953,122.46934989996953,122.46934989996953,0,1,[0.0012209000415168703],[0.3674860000028275],122.46934989996953,122.67162420001114,1000,122.67162420001114,1000,1000,1000,1000,1,num_2,0.49264399998355657,,22,8,2026-03-04_11h19.13.057,2026A_exp2,2022.2.4,59.68845015581361,
1000,1,0.0,0.0,1,0,27,27,40,,,,,123.18660010001622,123.83726030000253,123.83726030000253,124.34112489997642,315,45,124.34112489997642,124.34112489997642,124.34112489997642,124.34112489997642,124.34112489997642,124.34112489997642,124.34112489997642,124.34112489997642,124.34112489997642,124.70500259997789,124.70500259997789,124.70500259997789,124.70500259997789,124.70500259997789,124.70500259997789,124.70500259997789,124.70500259997789,124.70500259997789,23,0,,,124.70500259997789,124.91625269997166,1000,124.91625269997166,1000,1000,1000,1000,1,num_2,0.47178710001753643,,22,8,2026-03-04_11h19.13.057,2026A_exp2,2022.2.4,59.68845015581361,
1,0,6.1,0.0,0,0,28,28,24,,,,,125.40546239999821,126.05621750000864,126.05621750000864,126.55733390001114,315,315,126.55733390001114,126.55733390001114,126.55733390001114,126.55733390001114,126.55733390001114,126.55733390001114,126.55733390001114,126.55733390001114,126.55733390001114,126.92375349998474,126.92375349998474,126.92375349998474,126.92375349998474,126.92375349998474,126.92375349998474,126.92375349998474,126.92375349998474,126.92375349998474,23,0,,,126.92375349998474,127.12400159996469,6.1,127.12400159996469,1,6.1,1,1,1000,num_4,0.583583900006488,,22,8,2026-03-04_11h19.13.057,2026A_exp2,2022.2.4,59.68845015581361,
1,0,6.1,6.1,0,0,29,29,11,,,,,127.72455119999358,128.37519290001364,128.37519290001364,128.85962459997972,315,45,128.85962459997972,128.85962459997972,128.85962459997972,128.85962459997972,128.85962459997972,128.85962459997972,128.85962459997972,128.85962459997972,128.85962459997972,129.22603059996618,129.22603059996618,129.22603059996618,129.22603059996618,129.22603059996618,129.22603059996618,129.22603059996618,129.22603059996618,129.22603059996618,0,1,[0.0012120999745093286],[0.36722169996937737],129.22603059996618,129.42633819999173,6.1,129.42633819999173,1,6.1,1,1,1000,num_4,0.6573839000193402,,22,8,2026-03-04_11h19.13.057,2026A_exp2,2022.2.4,59.68845015581361,
1000,1,0.0,0.0,1,0,30,30,71,,,,,130.11016729997937,130.760817900009,130.760817900009,131.24533389997669,315,315,131.24533389997669,131.24533389997669,131.24533389997669,131.24533389997669,131.24533389997669,131.24533389997669,131.24533389997669,131.24533389997669,131.24533389997669,131.61184809997212,131.61184809997212,131.61184809997212,131.61184809997212,131.61184809997212,131.61184809997212,131.61184809997212,131.61184809997212,131.61184809997212,23,0,,,131.61184809997212,131.81204119999893,1000,131.81204119999893,1000,1000,1000,1000,1,num_2,0.7114908999647014,,22,8,2026-03-04_11h19.13.057,2026A_exp2,2022.2.4,59.68845015581361,
1,0,0.0,0.0,0,0,31,31,19,,,,,132.5459594000131,133.1967752999626,133.1967752999626,133.69786449999083,45,315,133.69786449999083,133.69786449999083,133.69786449999083,133.69786449999083,133.69786449999083,133.69786449999083,133.69786449999083,133.69786449999083,133.69786449999083,134.06396649999078,134.06396649999078,134.06396649999078,134.06396649999078,134.06396649999078,134.06396649999078,134.06396649999078,134.06396649999078,134.06396649999078,23,0,,,134.06396649999078,134.2644275999628,0.0,134.2644275999628,0,0.0,0,1,1000,num_1,1.4358134000212885,,22,8,2026-03-04_11h19.13.057,2026A_exp2,2022.2.4,59.68845015581361,
1000,1,0.0,0.0,1,0,32,32,39,,,,,135.71580770000583,136.36649340001168,136.36649340001168,136.86755729996366,315,45,136.86755729996366,136.86755729996366,136.86755729996366,136.86755729996366,136.86755729996366,136.86755729996366,136.86755729996366,136.86755729996366,136.86755729996366,137.2173992000171,137.2173992000171,137.2173992000171,137.2173992000171,137.2173992000171,137.2173992000171,137.2173992000171,137.2173992000171,137.2173992000171,22,0,,,137.2173992000171,137.4193660999881,1000,137.4193660999881,1000,1000,1000,1000,0,num_3,0.5841074999771081,,22,8,2026-03-04_11h19.13.057,2026A_exp2,2022.2.4,59.68845015581361,
0,0,0.0,0.0,0,0,33,33,4,,,,,138.0350164999836,138.6853919000132,138.6853919000132,139.18655889999354,315,45,139.18655889999354,139.18655889999354,139.18655889999354,139.18655889999354,139.18655889999354,139.18655889999354,139.18655889999354,139.18655889999354,139.18655889999354,139.55302370002028,139.55302370002028,139.55302370002028,139.55302370002028,139.55302370002028,139.55302370002028,139.55302370002028,139.55302370002028,139.55302370002028,0,1,[0.0012395999510772526],[0.36696729995310307],139.55302370002028,139.753220100014,0.0,139.753220100014,1,0.0,0,0,1000,num_4,1.6664092999999411,,22,8,2026-03-04_11h19.13.057,2026A_exp2,2022.2.4,59.68845015581361,
1000,1,6.1,6.1,0,0,34,34,50,,,,,141.43822409998393,142.08887179999147,142.08887179999147,142.5734003999969,315,315,142.5734003999969,142.5734003999969,142.5734003999969,142.5734003999969,142.5734003999969,142.5734003999969,142.5734003999969,142.5734003999969,142.5734003999969,142.93981489998987,142.93981489998987,142.93981489998987,142.93981489998987,142.93981489998987,142.93981489998987,142.93981489998987,142.93981489998987,142.93981489998987,23,0,,,142.93981489998987,143.1420708000078,1000,143.1420708000078,1000,1000,1000,1000,1,num_2,0.6304412999888882,,22,8,2026-03-04_11h19.13.057,2026A_exp2,2022.2.4,59.68845015581361,
1,0,0.0,0.0,1,0,35,35,53,,,,,143.79053729999578,144.44138649996603,144.44138649996603,144.94226430001436,315,315,144.94226430001436,144.94226430001436,144.94226430001436,144.94226430001436,144.94226430001436,144.94226430001436,144.94226430001436,144.94226430001436,144.94226430001436,145.29209860000992,145.29209860000992,145.29209860000992,145.29209860000992,145.29209860000992,145.29209860000992,145.29209860000992,145.29209860000992,145.29209860000992,20,1,[0.0012051000376231968],[0.03366770001593977],145.29209860000992,145.49234980001347,0.0,145.49234980001347,1,0.0,0,0,1000,num_4,1.5357621000148356,,22,8,2026-03-04_11h19.13.057,2026A_exp2,2022.2.4,59.68845015581361,
1000,1,6.1,0.0,1,0,36,36,79,,,,,147.04384800000116,147.69463969999924,147.69463969999924,148.17891020001844,315,45,148.17891020001844,148.17891020001844,148.17891020001844,148.17891020001844,148.17891020001844,148.17891020001844,148.17891020001844,148.17891020001844,148.17891020001844,148.54534259997308,148.54534259997308,148.54534259997308,148.54534259997308,148.54534259997308,148.54534259997308,148.54534259997308,148.54534259997308,148.54534259997308,23,0,,,148.54534259997308,148.74788609996904,1000,148.74788609996904,1000,1000,1000,1000,0,num_3,0.47242710000136867,,22,8,2026-03-04_11h19.13.057,2026A_exp2,2022.2.4,59.68845015581361,
1,0,0.0,6.1,0,0,37,37,72,,,,,149.24609649996273,149.89660540001933,149.89660540001933,150.3977484999923,45,45,150.3977484999923,150.3977484999923,150.3977484999923,150.3977484999923,150.3977484999923,150.3977484999923,150.3977484999923,150.3977484999923,150.3977484999923,150.74764700001106,150.74764700001106,150.74764700001106,150.74764700001106,150.74764700001106,150.74764700001106,150.74764700001106,150.74764700001106,150.74764700001106,22,0,,,150.74764700001106,150.94789359997958,0.0,150.96453180001117,0,0.0,0,1,1000,num_1,0.8711693999939598,,22,8,2026-03-04_11h19.13.057,2026A_exp2,2022.2.4,59.68845015581361,
1000,1,6.1,3.7,0,0,38,38,61,,,,,151.86531650001416,152.51625380001497,152.51625380001497,153.00051759998314,315,315,153.00051759998314,153.00051759998314,153.00051759998314,153.00051759998314,153.00051759998314,153.00051759998314,153.00051759998314,153.00051759998314,153.00051759998314,153.36677550000604,153.36677550000604,153.36677550000604,153.36677550000604,153.36677550000604,153.36677550000604,153.36677550000604,153.36677550000604,153.36677550000604,23,0,,,153.36677550000604,153.56894079997437,1000,153.56894079997437,1000,1000,1000,1000,0,num_3,0.4753948000143282,,22,8,2026-03-04_11h19.13.057,2026A_exp2,2022.2.4,59.68845015581361,
1000,1,6.1,0.0,0,0,39,39,68,,,,,154.06756569998106,154.71822510001948,154.71822510001948,155.21939199999906,45,315,155.21939199999906,155.21939199999906,155.21939199999906,155.21939199999906,155.21939199999906,155.21939199999906,155.21939199999906,155.21939199999906,155.21939199999906,155.5857221999904,155.5857221999904,155.5857221999904,155.5857221999904,155.5857221999904,155.5857221999904,155.5857221999904,155.5857221999904,155.5857221999904,23,0,,,155.5857221999904,155.78771940001752,1000,155.78771940001752,1000,1000,1000,1000,0,num_3,0.4485075999982655,,22,8,2026-03-04_11h19.13.057,2026A_exp2,2022.2.4,59.68845015581361,
1000,1,0.0,0.0,0,0,40,40,41,,,,,156.253255299991,156.9037365000113,156.9037365000113,157.40474719996564,315,45,157.40474719996564,157.40474719996564,157.40474719996564,157.40474719996564,157.40474719996564,157.40474719996564,157.40474719996564,157.40474719996564,157.40474719996564,157.7545735000167,157.7545735000167,157.7545735000167,157.7545735000167,157.7545735000167,157.7545735000167,157.7545735000167,157.7545735000167,157.7545735000167,0,1,[0.0012101999600417912],[0.3506275999825448],157.7545735000167,157.95604969997657,1000,157.95604969997657,1000,1000,1000,1000,0,num_3,0.5038000000058673,,22,8,2026-03-04_11h19.13.057,2026A_exp2,2022.2.4,59.68845015581361,
1000,1,4.9,0.0,0,0,41,41,78,,,,,158.48885369999334,159.13936229998944,159.13936229998944,159.62366509996355,45,315,159.62366509996355,159.62366509996355,159.62366509996355,159.62366509996355,159.62366509996355,159.62366509996355,159.62366509996355,159.62366509996355,159.62366509996355,159.99006649997318,159.99006649997318,159.99006649997318,159.99006649997318,159.99006649997318,159.99006649997318,159.99006649997318,159.99006649997318,159.99006649997318,0,1,[0.0007896999595686793],[0.366937099955976],159.99006649997318,160.19241560000228,1000,160.19241560000228,1000,1000,1000,1000,0,num_3,0.46747559995856136,,22,8,2026-03-04_11h19.13.057,2026A_exp2,2022.2.4,59.68845015581361,
1000,1,3.7,3.7,1,0,42,42,88,,,,,160.6908024000004,161.3415911999764,161.3415911999764,161.84265419997973,45,45,161.84265419997973,161.84265419997973,161.84265419997973,161.84265419997973,161.84265419997973,161.84265419997973,161.84265419997973,161.84265419997973,161.84265419997973,162.19239109999035,162.19239109999035,162.19239109999035,162.19239109999035,162.19239109999035,162.19239109999035,162.19239109999035,162.19239109999035,162.19239109999035,22,0,,,162.19239109999035,162.3948209999944,1000,162.3948209999944,1000,1000,1000,1000,0,num_3,0.34463680000044405,,22,8,2026-03-04_11h19.13.057,2026A_exp2,2022.2.4,59.68845015581361,
1000,1,3.7,3.7,0,0,43,43,16,,,,,162.759653599991,163.4102724000113,163.4102724000113,163.91143129998818,45,45,163.91143129998818,163.91143129998818,163.91143129998818,163.91143129998818,163.91143129998818,163.91143129998818,163.91143129998818,163.91143129998818,163.91143129998818,164.2774942999822,164.2774942999822,164.2774942999822,164.2774942999822,164.2774942999822,164.2774942999822,164.2774942999822,164.2774942999822,164.2774942999822,23,0,,,164.2774942999822,164.50110180000775,1000,164.50110180000775,1000,1000,1000,1000,0,num_3,0.2869254000252113,,22,8,2026-03-04_11h19.13.057,2026A_exp2,2022.2.4,59.68845015581361,
1000,1,0.0,0.0,0,0,44,44,5,,,,,164.81160149996867,165.46218490001047,165.46218490001047,165.96333649998996,45,45,165.96333649998996,165.96333649998996,165.96333649998996,165.96333649998996,165.96333649998996,165.96333649998996,165.96333649998996,165.96333649998996,165.96333649998996,166.3298110999749,166.3298110999749,166.3298110999749,166.3298110999749,166.3298110999749,166.3298110999749,166.3298110999749,166.3298110999749,166.3298110999749,23,0,,,166.3298110999749,166.5302471999894,1000,166.5302471999894,1000,1000,1000,1000,0,num_3,0.713225000014063,,22,8,2026-03-04_11h19.13.057,2026A_exp2,2022.2.4,59.68845015581361,
1,0,4.9,0.0,0,0,45,45,23,,,,,167.26403740001842,167.91475529997842,167.91475529997842,168.41613379999762,45,45,168.41613379999762,168.41613379999762,168.41613379999762,168.41613379999762,168.41613379999762,168.41613379999762,168.41613379999762,168.41613379999762,168.41613379999762,168.7823069000151,168.7823069000151,168.7823069000151,168.7823069000151,168.7823069000151,168.7823069000151,168.7823069000151,168.7823069000151,168.7823069000151,23,0,,,168.7823069000151,168.98256009997567,4.9,168.98256009997567,1,4.9,1,1,1000,num_4,0.6931077999761328,,22,8,2026-03-04_11h19.13.057,2026A_exp2,2022.2.4,59.68845015581361,
1000,1,0.0,0.0,0,0,46,46,47,,,,,169.699804999982,170.3505350999767,170.3505350999767,170.83486210001865,45,45,170.83486210001865,170.83486210001865,170.83486210001865,170.83486210001865,170.83486210001865,170.83486210001865,170.83486210001865,170.83486210001865,170.83486210001865,171.2012957999832,171.2012957999832,171.2012957999832,171.2012957999832,171.2012957999832,171.2012957999832,171.2012957999832,171.2012957999832,171.2012957999832,23,0,,,171.2012957999832,171.4033586999867,1000,171.4033586999867,1000,1000,1000,1000,0,num_3,0.920168399985414,,22,8,2026-03-04_11h19.13.057,2026A_exp2,2022.2.4,59.68845015581361,
1,0,0.0,0.0,0,0,47,47,0,,,,,172.35239879996516,173.0031866999925,173.0031866999925,173.5043460999732,45,45,173.5043460999732,173.5043460999732,173.5043460999732,173.5043460999732,173.5043460999732,173.5043460999732,173.5043460999732,173.5043460999732,173.5043460999732,173.87077410001075,173.87077410001075,173.87077410001075,173.87077410001075,173.87077410001075,173.87077410001075,173.87077410001075,173.87077410001075,173.87077410001075,23,0,,,173.87077410001075,174.07093170000007,0.0,174.07093170000007,1,0.0,0,0,1000,num_4,1.204640300013125,,22,8,2026-03-04_11h19.13.057,2026A_exp2,2022.2.4,59.68845015581361,
1,0,3.7,6.1,1,0,48,48,6,,,,,175.3054903000011,175.95061890000943,175.95061890000943,176.44557039998472,315,315,176.44557039998472,176.44557039998472,176.44557039998472,176.44557039998472,176.44557039998472,176.44557039998472,176.44557039998472,176.44557039998472,176.44557039998472,176.80693209997844,176.80693209997844,176.80693209997844,176.80693209997844,176.80693209997844,176.80693209997844,176.80693209997844,176.80693209997844,176.80693209997844,23,0,,,176.80693209997844,177.00716899998952,6.1,177.00716899998952,1,6.1,1,1,1000,num_4,0.6530404000077397,,22,8,2026-03-04_11h19.13.057,2026A_exp2,2022.2.4,59.68845015581361,
1000,1,4.9,0.0,1,0,49,49,7,,,,,177.69108329998562,178.3418543000007,178.3418543000007,178.82634179998422,45,45,178.82634179998422,178.82634179998422,178.82634179998422,178.82634179998422,178.82634179998422,178.82634179998422,178.82634179998422,178.82634179998422,178.82634179998422,179.19275350001408,179.19275350001408,179.19275350001408,179.19275350001408,179.19275350001408,179.19275350001408,179.19275350001408,179.19275350001408,179.19275350001408,23,0,,,179.19275350001408,179.3946702000103,1000,179.3946702000103,1000,1000,1000,1000,0,num_3,0.6101658000261523,,22,8,2026-03-04_11h19.13.057,2026A_exp2,2022.2.4,59.68845015581361,
1,0,6.1,4.9,0,0,50,50,30,,,,,180.0268668999779,180.67756519996328,180.67756519996328,181.17871890001697,45,45,181.17871890001697,181.17871890001697,181.17871890001697,181.17871890001697,181.17871890001697,181.17871890001697,181.17871890001697,181.17871890001697,181.17871890001697,181.54541349998908,181.54541349998908,181.54541349998908,181.54541349998908,181.54541349998908,181.54541349998908,181.54541349998908,181.54541349998908,181.54541349998908,5,1,[0.001254500006325543],[0.3003154000034556],181.54541349998908,181.74523679999402,6.1,181.74523679999402,1,6.1,1,1,1000,num_4,0.5302785999956541,,22,8,2026-03-04_11h19.13.057,2026A_exp2,2022.2.4,59.68845015581361,
1000,1,0.0,0.0,1,0,51,51,70,,,,,182.295875300013,182.94652070000302,182.94652070000302,183.4309321999899,315,45,183.4309321999899,183.4309321999899,183.4309321999899,183.4309321999899,183.4309321999899,183.4309321999899,183.4309321999899,183.4309321999899,183.4309321999899,183.7973460999783,183.7973460999783,183.7973460999783,183.7973460999783,183.7973460999783,183.7973460999783,183.7973460999783,183.7973460999783,183.7973460999783,23,0,,,183.7973460999783,183.9996567000053,1000,183.9996567000053,1000,1000,1000,1000,1,num_2,0.7162877999944612,,22,8,2026-03-04_11h19.13.057,2026A_exp2,2022.2.4,59.68845015581361,
0,0,0.0,0.0,0,0,52,52,67,,,,,184.7315765999956,185.3821116000181,185.3821116000181,185.88341100001708,315,315,185.88341100001708,185.88341100001708,185.88341100001708,185.88341100001708,185.88341100001708,185.88341100001708,185.88341100001708,185.88341100001708,185.88341100001708,186.24977609998314,186.24977609998314,186.24977609998314,186.24977609998314,186.24977609998314,186.24977609998314,186.24977609998314,186.24977609998314,186.24977609998314,23,0,,,186.24977609998314,186.44995829998516,0.0,186.44995829998516,0,0.0,0,1,1000,num_1,1.2015385999693535,,22,8,2026-03-04_11h19.13.057,2026A_exp2,2022.2.4,59.68845015581361,
1000,1,4.9,0.0,1,0,53,53,28,,,,,187.66776440001559,188.3184972999734,188.3184972999734,188.80293070001062,45,45,188.80293070001062,188.80293070001062,188.80293070001062,188.80293070001062,188.80293070001062,188.80293070001062,188.80293070001062,188.80293070001062,188.80293070001062,189.16936359996907,189.16936359996907,189.16936359996907,189.16936359996907,189.16936359996907,189.16936359996907,189.16936359996907,189.16936359996907,189.16936359996907,23,0,,,189.16936359996907,189.37125610001385,1000,189.37125610001385,1000,1000,1000,1000,0,num_3,0.6733226999640465,,22,8,2026-03-04_11h19.13.057,2026A_exp2,2022.2.4,59.68845015581361,
1,0,4.9,0.0,0,0,54,54,87,,,,,190.07015809998848,190.72095549997175,190.72095549997175,191.22203569998965,45,315,191.22203569998965,191.22203569998965,191.22203569998965,191.22203569998965,191.22203569998965,191.22203569998965,191.22203569998965,191.22203569998965,191.22203569998965,191.58846880000783,191.58846880000783,191.58846880000783,191.58846880000783,191.58846880000783,191.58846880000783,191.58846880000783,191.58846880000783,191.58846880000783,23,0,,,191.58846880000783,191.78863099997398,4.9,191.78863099997398,1,4.9,1,1,1000,num_4,0.6960295999888331,,22,8,2026-03-04_11h19.13.057,2026A_exp2,2022.2.4,59.68845015581361,
1000,1,6.1,3.7,1,0,55,55,45,,,,,192.5058876000112,193.15670009999303,193.15670009999303,193.65773540001828,45,315,193.65773540001828,193.65773540001828,193.65773540001828,193.65773540001828,193.65773540001828,193.65773540001828,193.65773540001828,193.65773540001828,193.65773540001828,194.00747479998972,194.00747479998972,194.00747479998972,194.00747479998972,194.00747479998972,194.00747479998972,194.00747479998972,194.00747479998972,194.00747479998972,22,0,,,194.00747479998972,194.20769139996264,1000,194.20769139996264,1000,1000,1000,1000,1,num_2,1.2280798999709077,,22,8,2026-03-04_11h19.13.057,2026A_exp2,2022.2.4,59.68845015581361,
0,0,0.0,0.0,0,0,56,56,69,,,,,195.4589290000149,196.10957769997185,196.10957769997185,196.61075280001387,45,45,196.61075280001387,196.61075280001387,196.61075280001387,196.61075280001387,196.61075280001387,196.61075280001387,196.61075280001387,196.61075280001387,196.61075280001387,196.97712220001267,196.97712220001267,196.97712220001267,196.97712220001267,196.97712220001267,196.97712220001267,196.97712220001267,196.97712220001267,196.97712220001267,23,0,,,196.97712220001267,197.17743599996902,0.0,197.17743599996902,0,0.0,0,1,1000,num_1,1.5151401999755763,,22,8,2026-03-04_11h19.13.057,2026A_exp2,2022.2.4,59.68845015581361,
1,0,0.0,0.0,0,0,57,57,66,,,,,198.71211710001808,199.36292689997936,199.36292689997936,199.847219999996,315,315,199.847219999996,199.847219999996,199.847219999996,199.847219999996,199.847219999996,199.847219999996,199.847219999996,199.847219999996,199.847219999996,200.21373369998764,200.21373369998764,200.21373369998764,200.21373369998764,200.21373369998764,200.21373369998764,200.21373369998764,200.21373369998764,200.21373369998764,23,0,,,200.21373369998764,200.41401339997537,0.0,200.41401339997537,1,0.0,0,0,1000,num_4,1.1415294999605976,,22,8,2026-03-04_11h19.13.057,2026A_exp2,2022.2.4,59.68845015581361,
1,0,6.1,0.0,1,0,58,58,54,,,,,201.5816213999642,202.23230719997082,202.23230719997082,202.71687920001568,45,45,202.71687920001568,202.71687920001568,202.71687920001568,202.71687920001568,202.71687920001568,202.71687920001568,202.71687920001568,202.71687920001568,202.71687920001568,203.08332679996965,203.08332679996965,203.08332679996965,203.08332679996965,203.08332679996965,203.08332679996965,203.08332679996965,203.08332679996965,203.08332679996965,23,0,,,203.08332679996965,203.28342569997767,0.0,203.28342569997767,0,0.0,0,1,1000,num_1,0.6093960999860428,,22,8,2026-03-04_11h19.13.057,2026A_exp2,2022.2.4,59.68845015581361,
1,0,0.0,0.0,0,0,59,59,49,,,,,203.91735070000868,204.55138489999808,204.55138489999808,205.05250910000177,45,315,205.05250910000177,205.05250910000177,205.05250910000177,205.05250910000177,205.05250910000177,205.05250910000177,205.05250910000177,205.05250910000177,205.05250910000177,205.4189606999862,205.4189606999862,205.4189606999862,205.4189606999862,205.4189606999862,205.4189606999862,205.4189606999862,205.4189606999862,205.4189606999862,0,1,[0.0012263000244274735],[0.36721370002487674],205.4189606999862,205.6190189999761,0.0,205.6190189999761,0,0.0,0,1,1000,num_1,1.1530248000053689,,22,8,2026-03-04_11h19.13.057,2026A_exp2,2022.2.4,59.68845015581361,
1000,1,0.0,6.1,1,0,60,60,3,,,,,206.80343049997464,207.4376052999869,207.4376052999869,207.93866179999895,45,45,207.93866179999895,207.93866179999895,207.93866179999895,207.93866179999895,207.93866179999895,207.93866179999895,207.93866179999895,207.93866179999895,207.93866179999895,208.30517820001114,208.30517820001114,208.30517820001114,208.30517820001114,208.30517820001114,208.30517820001114,208.30517820001114,208.30517820001114,208.30517820001114,23,0,,,208.30517820001114,208.5052219000063,1000,208.5052219000063,1000,1000,1000,1000,1,num_2,0.5784894000389613,,22,8,2026-03-04_11h19.13.057,2026A_exp2,2022.2.4,59.68845015581361,
0,0,3.7,3.7,0,0,61,61,63,,,,,209.1058386999648,209.75656639999943,209.75656639999943,210.2574930000119,315,45,210.2574930000119,210.2574930000119,210.2574930000119,210.2574930000119,210.2574930000119,210.2574930000119,210.2574930000119,210.2574930000119,210.2574930000119,210.62414139998145,210.62414139998145,210.62414139998145,210.62414139998145,210.62414139998145,210.62414139998145,210.62414139998145,210.62414139998145,210.62414139998145,23,0,,,210.62414139998145,210.82439269998576,3.7,210.82439269998576,0,3.7,1,0,1000,num_1,0.7709964999812655,,22,8,2026-03-04_11h19.13.057,2026A_exp2,2022.2.4,59.68845015581361,
1000,1,0.0,6.1,0,0,62,62,83,,,,,211.62507359997835,212.27587660000427,212.27587660000427,212.7602625999716,315,45,212.7602625999716,212.7602625999716,212.7602625999716,212.7602625999716,212.7602625999716,212.7602625999716,212.7602625999716,212.7602625999716,212.7602625999716,213.12658049998572,213.12658049998572,213.12658049998572,213.12658049998572,213.12658049998572,213.12658049998572,213.12658049998572,213.12658049998572,213.12658049998572,23,0,,,213.12658049998572,213.32848470000317,1000,213.32848470000317,1000,1000,1000,1000,1,num_2,0.5878419999498874,,22,8,2026-03-04_11h19.13.057,2026A_exp2,2022.2.4,59.68845015581361,
1000,1,3.7,0.0,1,0,63,63,21,,,,,213.94411609997042,214.59469369996805,214.59469369996805,215.0957324000192,45,45,215.0957324000192,215.0957324000192,215.0957324000192,215.0957324000192,215.0957324000192,215.0957324000192,215.0957324000192,215.0957324000192,215.0957324000192,215.46229559998028,215.46229559998028,215.46229559998028,215.46229559998028,215.46229559998028,215.46229559998028,215.46229559998028,215.46229559998028,215.46229559998028,23,0,,,215.46229559998028,215.66258160001598,1000,215.66258160001598,1000,1000,1000,1000,1,num_2,0.7579011999769136,,22,8,2026-03-04_11h19.13.057,2026A_exp2,2022.2.4,59.68845015581361,
1000,1,3.7,4.9,0,0,64,64,13,,,,,216.4465584999998,217.09718909999356,217.09718909999356,217.582499000011,315,315,217.582499000011,217.582499000011,217.582499000011,217.582499000011,217.582499000011,217.582499000011,217.582499000011,217.582499000011,217.582499000011,217.96483060001628,217.96483060001628,217.96483060001628,217.96483060001628,217.96483060001628,217.96483060001628,217.96483060001628,217.96483060001628,217.96483060001628,24,0,,,217.96483060001628,218.1672339999932,1000,218.1672339999932,1000,1000,1000,1000,1,num_2,0.47735459997784346,,22,8,2026-03-04_11h19.13.057,2026A_exp2,2022.2.4,59.68845015581361,
1,0,3.7,6.1,0,0,65,65,55,,,,,218.66542199999094,219.32597689999966,219.32597689999966,219.8172227999894,45,45,219.8172227999894,219.8172227999894,219.8172227999894,219.8172227999894,219.8172227999894,219.8172227999894,219.8172227999894,219.8172227999894,219.8172227999894,220.18367399997078,220.18367399997078,220.18367399997078,220.18367399997078,220.18367399997078,220.18367399997078,220.18367399997078,220.18367399997078,220.18367399997078,23,0,,,220.18367399997078,220.38392180000665,3.7,220.38392180000665,0,3.7,1,0,1000,num_1,0.6513919000281021,,22,8,2026-03-04_11h19.13.057,2026A_exp2,2022.2.4,59.68845015581361,
1,0,0.0,4.9,1,0,66,66,36,,,,,221.05119399999967,221.7019651000155,221.7019651000155,222.1862189999665,315,315,222.1862189999665,222.1862189999665,222.1862189999665,222.1862189999665,222.1862189999665,222.1862189999665,222.1862189999665,222.1862189999665,222.1862189999665,222.55278369999724,222.55278369999724,222.55278369999724,222.55278369999724,222.55278369999724,222.55278369999724,222.55278369999724,222.55278369999724,222.55278369999724,23,0,,,222.55278369999724,222.75291320000542,4.9,222.75291320000542,1,4.9,1,1,1000,num_4,0.9070551000186242,,22,8,2026-03-04_11h19.13.057,2026A_exp2,2022.2.4,59.68845015581361,
1000,1,6.1,0.0,1,0,67,67,52,,,,,223.68777560000308,224.34565969998948,224.34565969998948,224.84334779996425,45,45,224.84334779996425,224.84334779996425,224.84334779996425,224.84334779996425,224.84334779996425,224.84334779996425,224.84334779996425,224.84334779996425,224.84334779996425,225.20541359996423,225.20541359996423,225.20541359996423,225.20541359996423,225.20541359996423,225.20541359996423,225.20541359996423,225.20541359996423,225.20541359996423,23,0,,,225.20541359996423,225.40688510000473,1000,225.40688510000473,1000,1000,1000,1000,0,num_3,0.5007340000011027,,22,8,2026-03-04_11h19.13.057,2026A_exp2,2022.2.4,59.68845015581361,
1000,1,4.9,4.9,1,0,68,68,26,,,,,225.9227116999682,226.57328489999054,226.57328489999054,227.07428319996689,315,315,227.07428319996689,227.07428319996689,227.07428319996689,227.07428319996689,227.07428319996689,227.07428319996689,227.07428319996689,227.07428319996689,227.07428319996689,227.4409808999626,227.4409808999626,227.4409808999626,227.4409808999626,227.4409808999626,227.4409808999626,227.4409808999626,227.4409808999626,227.4409808999626,23,0,,,227.4409808999626,227.64272669999627,1000,227.64272669999627,1000,1000,1000,1000,1,num_2,0.3618197999894619,,22,8,2026-03-04_11h19.13.057,2026A_exp2,2022.2.4,59.68845015581361,
1,0,0.0,6.1,0,0,69,69,57,,,,,228.0247248999658,228.67552190000424,228.67552190000424,229.17639019998023,45,45,229.17639019998023,229.17639019998023,229.17639019998023,229.17639019998023,229.17639019998023,229.17639019998023,229.17639019998023,229.17639019998023,229.17639019998023,229.54289149999386,229.54289149999386,229.54289149999386,229.54289149999386,229.54289149999386,229.54289149999386,229.54289149999386,229.54289149999386,229.54289149999386,23,0,,,229.54289149999386,229.74324370000977,0.0,229.74324370000977,0,0.0,0,1,1000,num_1,0.4931705999770202,,22,8,2026-03-04_11h19.13.057,2026A_exp2,2022.2.4,59.68845015581361,
1,0,0.0,3.7,1,0,70,70,25,,,,,230.26043530000607,230.91114139999263,230.91114139999263,231.39543709997088,315,315,231.39543709997088,231.39543709997088,231.39543709997088,231.39543709997088,231.39543709997088,231.39543709997088,231.39543709997088,231.39543709997088,231.39543709997088,231.76190250000218,231.76190250000218,231.76190250000218,231.76190250000218,231.76190250000218,231.76190250000218,231.76190250000218,231.76190250000218,231.76190250000218,23,0,,,231.76190250000218,231.96214219997637,3.7,231.96214219997637,1,3.7,1,1,1000,num_4,0.6744899000041187,,22,8,2026-03-04_11h19.13.057,2026A_exp2,2022.2.4,59.68845015581361,
1,0,4.9,0.0,1,0,71,71,48,,,,,232.66300210001646,233.31366589997197,233.31366589997197,233.79786499997135,45,45,233.79786499997135,233.79786499997135,233.79786499997135,233.79786499997135,233.79786499997135,233.79786499997135,233.79786499997135,233.79786499997135,233.79786499997135,234.16440770000918,234.16440770000918,234.16440770000918,234.16440770000918,234.16440770000918,234.16440770000918,234.16440770000918,234.16440770000918,234.16440770000918,23,0,,,234.16440770000918,234.36461489996873,0.0,234.36461489996873,0,0.0,0,1,1000,num_1,0.5752917999634519,,22,8,2026-03-04_11h19.13.057,2026A_exp2,2022.2.4,59.68845015581361,
1000,1,4.9,4.9,1,0,72,72,85,,,,,234.96500359999482,235.6157499999972,235.6157499999972,236.10024780000094,45,315,236.10024780000094,236.10024780000094,236.10024780000094,236.10024780000094,236.10024780000094,236.10024780000094,236.10024780000094,236.10024780000094,236.10024780000094,236.46649979997892,236.46649979997892,236.46649979997892,236.46649979997892,236.46649979997892,236.46649979997892,236.46649979997892,236.46649979997892,236.46649979997892,23,0,,,236.46649979997892,236.6685501000029,1000,236.6685501000029,1000,1000,1000,1000,1,num_2,0.5116898000123911,,22,8,2026-03-04_11h19.13.057,2026A_exp2,2022.2.4,59.68845015581361,
1000,1,6.1,0.0,0,0,73,73,80,,,,,237.20077509997645,237.85144930001115,237.85144930001115,238.33582490001572,45,45,238.33582490001572,238.33582490001572,238.33582490001572,238.33582490001572,238.33582490001572,238.33582490001572,238.33582490001572,238.33582490001572,238.33582490001572,238.70222869998543,238.70222869998543,238.70222869998543,238.70222869998543,238.70222869998543,238.70222869998543,238.70222869998543,238.70222869998543,238.70222869998543,23,0,,,238.70222869998543,238.90408449998358,1000,238.90408449998358,1000,1000,1000,1000,0,num_3,0.4360148999840021,,22,8,2026-03-04_11h19.13.057,2026A_exp2,2022.2.4,59.68845015581361,
1,0,3.7,4.9,0,0,74,74,84,,,,,239.36960490001366,240.0200807999936,240.0200807999936,240.52138260001084,315,315,240.52138260001084,240.52138260001084,240.52138260001084,240.52138260001084,240.52138260001084,240.52138260001084,240.52138260001084,240.52138260001084,240.52138260001084,240.88779770000838,240.88779770000838,240.88779770000838,240.88779770000838,240.88779770000838,240.88779770000838,240.88779770000838,240.88779770000838,240.88779770000838,23,0,,,240.88779770000838,241.0879821999697,3.7,241.0879821999697,0,3.7,1,0,1000,num_1,0.8834707000060007,,22,8,2026-03-04_11h19.13.057,2026A_exp2,2022.2.4,59.68845015581361,
1000,1,4.9,0.0,0,0,75,75,20,,,,,241.98871659999713,242.63935599999968,242.63935599999968,243.13199630001327,45,45,243.13199630001327,243.13199630001327,243.13199630001327,243.13199630001327,243.13199630001327,243.13199630001327,243.13199630001327,243.13199630001327,243.13199630001327,243.4901908999891,243.4901908999891,243.4901908999891,243.4901908999891,243.4901908999891,243.4901908999891,243.4901908999891,243.4901908999891,243.4901908999891,1,2,"[0.0030181999900378287, 0.26528689998667687]","[0.24860990000888705, 0.36530299996957183]",243.4901908999891,243.69051939999918,1000,243.69051939999918,1000,1000,1000,1000,1,num_2,0.7449670000351034,,22,8,2026-03-04_11h19.13.057,2026A_exp2,2022.2.4,59.68845015581361,
1,0,0.0,3.7,0,0,76,76,2,,,,,244.45770969998557,245.1084624999785,245.1084624999785,245.60975080000935,45,45,245.60975080000935,245.60975080000935,245.60975080000935,245.60975080000935,245.60975080000935,245.60975080000935,245.60975080000935,245.60975080000935,245.60975080000935,245.95949659997132,245.95949659997132,245.95949659997132,245.95949659997132,245.95949659997132,245.95949659997132,245.95949659997132,245.95949659997132,245.95949659997132,22,0,,,245.95949659997132,246.15974299999652,0.0,246.17632400000002,0,0.0,0,1,1000,num_1,0.6285176000092179,,22,8,2026-03-04_11h19.13.057,2026A_exp2,2022.2.4,59.68845015581361,
1000,1,0.0,0.0,1,0,77,77,62,,,,,246.82688740000594,247.4775528999744,247.4775528999744,247.96206649998203,45,315,247.96206649998203,247.96206649998203,247.96206649998203,247.96206649998203,247.96206649998203,247.96206649998203,247.96206649998203,247.96206649998203,247.96206649998203,248.32846009999048,248.32846009999048,248.32846009999048,248.32846009999048,248.32846009999048,248.32846009999048,248.32846009999048,248.32846009999048,248.32846009999048,23,0,,,248.32846009999048,248.5303341000108,1000,248.5303341000108,1000,1000,1000,1000,0,num_3,0.53799079998862,,22,8,2026-03-04_11h19.13.057,2026A_exp2,2022.2.4,59.68845015581361,
1000,1,0.0,4.9,0,0,78,78,9,,,,,249.09586549998494,249.74656559998402,249.74656559998402,250.2633878000197,315,45,250.2633878000197,250.2633878000197,250.2633878000197,250.2633878000197,250.2633878000197,250.2633878000197,250.2633878000197,250.2633878000197,250.2633878000197,250.59762139996747,250.59762139996747,250.59762139996747,250.59762139996747,250.59762139996747,250.59762139996747,250.59762139996747,250.59762139996747,250.59762139996747,22,0,,,250.59762139996747,250.81304530001944,1000,250.81304530001944,1000,1000,1000,1000,0,num_3,0.702347100013867,,22,8,2026-03-04_11h19.13.057,2026A_exp2,2022.2.4,59.68845015581361,
1,0,0.0,4.9,1,0,79,79,65,,,,,251.53148870001314,252.18236320000142,252.18236320000142,252.68351569998777,315,45,252.68351569998777,252.68351569998777,252.68351569998777,252.68351569998777,252.68351569998777,252.68351569998777,252.68351569998777,252.68351569998777,252.68351569998777,253.0331513999845,253.0331513999845,253.0331513999845,253.0331513999845,253.0331513999845,253.0331513999845,253.0331513999845,253.0331513999845,253.0331513999845,22,0,,,253.0331513999845,253.2334003999713,4.9,253.25010750000365,1,4.9,1,1,1000,num_4,0.8342609000392258,,22,8,2026-03-04_11h19.13.057,2026A_exp2,2022.2.4,59.68845015581361,
1000,1,6.1,6.1,0,0,80,80,74,,,,,254.10128790000454,254.7349405999994,254.7349405999994,255.23593009996694,315,45,255.23593009996694,255.23593009996694,255.23593009996694,255.23593009996694,255.23593009996694,255.23593009996694,255.23593009996694,255.23593009996694,255.23593009996694,255.60248880001018,255.60248880001018,255.60248880001018,255.60248880001018,255.60248880001018,255.60248880001018,255.60248880001018,255.60248880001018,255.60248880001018,23,0,,,255.60248880001018,255.80537869996624,1000,255.80537869996624,1000,1000,1000,1000,1,num_2,0.4787668000208214,,22,8,2026-03-04_11h19.13.057,2026A_exp2,2022.2.4,59.68845015581361,
1000,1,0.0,4.9,0,0,81,81,27,,,,,256.3030291000032,256.953768700012,256.953768700012,257.4549151000101,315,45,257.4549151000101,257.4549151000101,257.4549151000101,257.4549151000101,257.4549151000101,257.4549151000101,257.4549151000101,257.4549151000101,257.4549151000101,257.8046267000027,257.8046267000027,257.8046267000027,257.8046267000027,257.8046267000027,257.8046267000027,257.8046267000027,257.8046267000027,257.8046267000027,22,0,,,257.8046267000027,258.00491929997224,1000,258.00491929997224,1000,1000,1000,1000,1,num_2,0.5906669000396505,,22,8,2026-03-04_11h19.13.057,2026A_exp2,2022.2.4,59.68845015581361,
1000,1,0.0,4.9,1,0,82,82,73,,,,,258.62207109999144,259.2728294999688,259.2728294999688,259.7739816000103,45,315,259.7739816000103,259.7739816000103,259.7739816000103,259.7739816000103,259.7739816000103,259.7739816000103,259.7739816000103,259.7739816000103,259.7739816000103,260.14026700000977,260.14026700000977,260.14026700000977,260.14026700000977,260.14026700000977,260.14026700000977,260.14026700000977,260.14026700000977,260.14026700000977,23,0,,,260.14026700000977,260.3428374999785,1000,260.3428374999785,1000,1000,1000,1000,1,num_2,0.4685256000375375,,22,8,2026-03-04_11h19.13.057,2026A_exp2,2022.2.4,59.68845015581361,
1000,1,6.1,0.0,0,0,83,83,8,,,,,260.8409473999636,261.49157760001253,261.49157760001253,261.99285749997944,45,315,261.99285749997944,261.99285749997944,261.99285749997944,261.99285749997944,261.99285749997944,261.99285749997944,261.99285749997944,261.99285749997944,261.99285749997944,262.3591447999934,262.3591447999934,262.3591447999934,262.3591447999934,262.3591447999934,262.3591447999934,262.3591447999934,262.3591447999934,262.3591447999934,23,0,,,262.3591447999934,262.5617611000198,1000,262.5617611000198,1000,1000,1000,1000,0,num_3,0.38567510002758354,,22,8,2026-03-04_11h19.13.057,2026A_exp2,2022.2.4,59.68845015581361,
1,0,6.1,6.1,1,0,84,84,89,,,,,262.9764867000049,263.62718070001574,263.62718070001574,264.12832399999024,45,315,264.12832399999024,264.12832399999024,264.12832399999024,264.12832399999024,264.12832399999024,264.12832399999024,264.12832399999024,264.12832399999024,264.12832399999024,264.4946816000156,264.4946816000156,264.4946816000156,264.4946816000156,264.4946816000156,264.4946816000156,264.4946816000156,264.4946816000156,264.4946816000156,23,0,,,264.4946816000156,264.6948438999825,6.1,264.6948438999825,1,6.1,1,1,1000,num_4,1.0695064999745227,,22,8,2026-03-04_11h19.13.057,2026A_exp2,2022.2.4,59.68845015581361,
1,0,0.0,3.7,0,0,85,85,1,,,,,265.7958799999906,266.4462873999728,266.4462873999728,266.93097819999093,315,45,266.93097819999093,266.93097819999093,266.93097819999093,266.93097819999093,266.93097819999093,266.93097819999093,266.93097819999093,266.93097819999093,266.93097819999093,267.29740009998204,267.29740009998204,267.29740009998204,267.29740009998204,267.29740009998204,267.29740009998204,267.29740009998204,267.29740009998204,267.29740009998204,23,0,,,267.29740009998204,267.4976760999998,0.0,267.4976760999998,0,0.0,0,1,1000,num_1,1.170210300013423,,22,8,2026-03-04_11h19.13.057,2026A_exp2,2022.2.4,59.68845015581361,
1,0,0.0,3.7,1,0,86,86,12,,,,,268.6987646999769,269.3494004000095,269.3494004000095,269.8506622000132,315,315,269.8506622000132,269.8506622000132,269.8506622000132,269.8506622000132,269.8506622000132,269.8506622000132,269.8506622000132,269.8506622000132,269.8506622000132,270.21698480000487,270.21698480000487,270.21698480000487,270.21698480000487,270.21698480000487,270.21698480000487,270.21698480000487,270.21698480000487,270.21698480000487,23,0,,,270.21698480000487,270.41720119997626,3.7,270.41720119997626,1,3.7,1,1,1000,num_4,0.8989737000083551,,22,8,2026-03-04_11h19.13.057,2026A_exp2,2022.2.4,59.68845015581361,
1,0,3.7,0.0,1,0,87,87,59,,,,,271.3347750999965,271.9855787999695,271.9855787999695,272.46993249998195,45,45,272.46993249998195,272.46993249998195,272.46993249998195,272.46993249998195,272.46993249998195,272.46993249998195,272.46993249998195,272.46993249998195,272.46993249998195,272.8361458000145,272.8361458000145,272.8361458000145,272.8361458000145,272.8361458000145,272.8361458000145,272.8361458000145,272.8361458000145,272.8361458000145,23,0,,,272.8361458000145,273.0366154999938,0.0,273.0366154999938,1,0.0,0,0,1000,num_4,0.6960025000153109,,22,8,2026-03-04_11h19.13.057,2026A_exp2,2022.2.4,59.68845015581361,
1000,1,0.0,0.0,1,0,88,88,42,,,,,273.75382899999386,274.4045840000035,274.4045840000035,274.889050400001,45,315,274.889050400001,274.889050400001,274.889050400001,274.889050400001,274.889050400001,274.889050400001,274.889050400001,274.889050400001,274.889050400001,275.25540339999134,275.25540339999134,275.25540339999134,275.25540339999134,275.25540339999134,275.25540339999134,275.25540339999134,275.25540339999134,275.25540339999134,23,0,,,275.25540339999134,275.4575193999917,1000,275.4575193999917,1000,1000,1000,1000,1,num_2,0.578582699992694,,22,8,2026-03-04_11h19.13.057,2026A_exp2,2022.2.4,59.68845015581361,
1000,1,6.1,0.0,0,0,89,89,58,,,,,276.05615049996413,276.70684920001077,276.70684920001077,277.20790149999084,315,315,277.20790149999084,277.20790149999084,277.20790149999084,277.20790149999084,277.20790149999084,277.20790149999084,277.20790149999084,277.20790149999084,277.20790149999084,277.5744764999836,277.5744764999836,277.5744764999836,277.5744764999836,277.5744764999836,277.5744764999836,277.5744764999836,277.5744764999836,277.5744764999836,23,0,,,277.5744764999836,277.77669239998795,1000,277.77669239998795,1000,1000,1000,1000,0,num_3,0.45936819998314604,,22,8,2026-03-04_11h19.13.057,2026A_exp2,2022.2.4,59.68845015581361,
,,,,,,,,,,,,,,,,,,,,,,,,,,,,,,,,,,,,,,,,,,,,,,,,,,,,278.2683091000072,,,,,,,
