validity,detectorcomp,contrastCW,contrastCCW,precueCWorCCW,block_80trials.thisRepN,block_80trials.thisTrialN,block_80trials.thisN,block_80trials.thisIndex,etRecord.started,etRecord.stopped,text.started,text.stopped,text_4.started,text_4.stopped,text_6.started,text_6.stopped,oriCW,oriCCW,roi_2.started,grating_UR.started,grating_UL.started,grating_LR.started,grating_LL.started,noise_UR.started,noise_UL.started,noise_LR.started,noise_LL.started,roi_2.stopped,grating_UR.stopped,grating_UL.stopped,grating_LR.stopped,grating_LL.stopped,noise_UR.stopped,noise_UL.stopped,noise_LR.stopped,noise_LL.stopped,outframe,roi_2.numLooks,roi_2.timesOn,roi_2.timesOff,text_2.started,text_2.stopped,probedcontrast,key_resp.started,respdetect,relevantContrast,correctDetect,TorFdetect,respCWorCCW,key_resp.keys,key_resp.rt,feedback_display_.started,participantNo,blockNo,date,expName,psychopyVersion,frameRate,
1000,1,3.7,0.0,0,0,0,0,81,3.6899931728839874e-05,3.6899931728839874e-05,46.297724900068715,48.308815999887884,48.308815999887884,48.95177759998478,48.95177759998478,49.47537530004047,315,315,49.47537530004047,49.47537530004047,49.47537530004047,49.47537530004047,49.47537530004047,49.47537530004047,49.47537530004047,49.47537530004047,49.47537530004047,49.81889440002851,49.81889440002851,49.81889440002851,49.81889440002851,49.81889440002851,49.81889440002851,49.81889440002851,49.81889440002851,49.81889440002851,0,1,[0.0009411999490112066],[0.36693349992856383],49.81889440002851,50.01997140003368,1000,50.01997140003368,1000,1000,1000,1000,0,num_3,0.6247324999421835,,31,15,2026-03-12_14h36.51.088,2026A_exp2,2022.2.4,59.942982247734584,
1000,1,4.9,0.0,1,0,1,1,74,,,,,50.67041069990955,51.32029030006379,51.32029030006379,51.82141079986468,315,315,51.82141079986468,51.82141079986468,51.82141079986468,51.82141079986468,51.82141079986468,51.82141079986468,51.82141079986468,51.82141079986468,51.82141079986468,52.187609599903226,52.187609599903226,52.187609599903226,52.187609599903226,52.187609599903226,52.187609599903226,52.187609599903226,52.187609599903226,52.187609599903226,0,1,[0.0006796000525355339],[0.36654910002835095],52.187609599903226,52.38797180005349,1000,52.38797180005349,1000,1000,1000,1000,0,num_3,0.35339369997382164,,31,15,2026-03-12_14h36.51.088,2026A_exp2,2022.2.4,59.942982247734584,
1000,1,4.9,3.7,0,0,2,2,40,,,,,52.77160430001095,53.42239319998771,53.42239319998771,53.906858999980614,45,315,53.906858999980614,53.906858999980614,53.906858999980614,53.906858999980614,53.906858999980614,53.906858999980614,53.906858999980614,53.906858999980614,53.906858999980614,54.273015700047836,54.273015700047836,54.273015700047836,54.273015700047836,54.273015700047836,54.273015700047836,54.273015700047836,54.273015700047836,54.273015700047836,0,1,[0.0007497998885810375],[0.3674439999740571],54.273015700047836,54.47340979985893,1000,54.47340979985893,1000,1000,1000,1000,0,num_3,0.611195599893108,,31,15,2026-03-12_14h36.51.088,2026A_exp2,2022.2.4,59.942982247734584,
1,0,3.7,0.0,0,0,3,3,9,,,,,55.1072774999775,55.7578451000154,55.7578451000154,56.242526799906045,45,45,56.242526799906045,56.242526799906045,56.242526799906045,56.242526799906045,56.242526799906045,56.242526799906045,56.242526799906045,56.242526799906045,56.242526799906045,56.60879569989629,56.60879569989629,56.60879569989629,56.60879569989629,56.60879569989629,56.60879569989629,56.60879569989629,56.60879569989629,56.60879569989629,23,0,,,56.60879569989629,56.80898969992995,3.7,56.80898969992995,1,3.7,1,1,1000,num_4,0.7557983000297099,,31,15,2026-03-12_14h36.51.088,2026A_exp2,2022.2.4,59.942982247734584,
1,0,6.1,0.0,1,0,4,4,17,,,,,57.593228299869224,58.227251699892804,58.227251699892804,58.728337900014594,315,315,58.728337900014594,58.728337900014594,58.728337900014594,58.728337900014594,58.728337900014594,58.728337900014594,58.728337900014594,58.728337900014594,58.728337900014594,59.09481599996798,59.09481599996798,59.09481599996798,59.09481599996798,59.09481599996798,59.09481599996798,59.09481599996798,59.09481599996798,59.09481599996798,23,0,,,59.09481599996798,59.29518130002543,0.0,59.29518130002543,0,0.0,0,1,1000,num_1,0.758173800073564,,31,15,2026-03-12_14h36.51.088,2026A_exp2,2022.2.4,59.942982247734584,
1,0,4.9,0.0,0,0,5,5,47,,,,,60.07904960005544,60.71300429990515,60.71300429990515,61.213904100004584,315,315,61.213904100004584,61.213904100004584,61.213904100004584,61.213904100004584,61.213904100004584,61.213904100004584,61.213904100004584,61.213904100004584,61.213904100004584,61.580385899869725,61.580385899869725,61.580385899869725,61.580385899869725,61.580385899869725,61.580385899869725,61.580385899869725,61.580385899869725,61.580385899869725,17,3,"[0.0008029001764953136, 0.06651340005919337, 0.11650490015745163]","[0.03305299999192357, 0.08312880015000701, 0.16709490003995597]",61.580385899869725,61.78078639996238,4.9,61.78078639996238,1,4.9,1,1,1000,num_4,0.6319191998336464,,31,15,2026-03-12_14h36.51.088,2026A_exp2,2022.2.4,59.942982247734584,
0,0,0.0,6.1,1,0,6,6,46,,,,,62.43120689992793,63.06535889999941,63.06535889999941,63.56660769996233,45,315,63.56660769996233,63.56660769996233,63.56660769996233,63.56660769996233,63.56660769996233,63.56660769996233,63.56660769996233,63.56660769996233,63.56660769996233,63.932708099950105,63.932708099950105,63.932708099950105,63.932708099950105,63.932708099950105,63.932708099950105,63.932708099950105,63.932708099950105,63.932708099950105,0,1,[0.0009111000690609217],[0.3667850000783801],63.932708099950105,64.13288569985889,0.0,64.13288569985889,0,0.0,0,1,1000,num_1,0.9369255998171866,,31,15,2026-03-12_14h36.51.088,2026A_exp2,2022.2.4,59.942982247734584,
1,0,0.0,3.7,0,0,7,7,76,,,,,65.1006761000026,65.7360672999639,65.7360672999639,66.23582739988342,315,45,66.23582739988342,66.23582739988342,66.23582739988342,66.23582739988342,66.23582739988342,66.23582739988342,66.23582739988342,66.23582739988342,66.23582739988342,66.60203429986723,66.60203429986723,66.60203429986723,66.60203429986723,66.60203429986723,66.60203429986723,66.60203429986723,66.60203429986723,66.60203429986723,13,2,"[0.18360550003126264, 0.23396430001594126]","[0.20016230014152825, 0.3672253000549972]",66.60203429986723,66.80228549987078,0.0,66.80228549987078,1,0.0,0,0,1000,num_4,0.7791826999746263,,31,15,2026-03-12_14h36.51.088,2026A_exp2,2022.2.4,59.942982247734584,
0,0,0.0,4.9,1,0,8,8,0,,,,,67.60307379998267,68.23714930005372,68.23714930005372,68.73813239997253,45,315,68.73813239997253,68.73813239997253,68.73813239997253,68.73813239997253,68.73813239997253,68.73813239997253,68.73813239997253,68.73813239997253,68.73813239997253,69.10464979987592,69.10464979987592,69.10464979987592,69.10464979987592,69.10464979987592,69.10464979987592,69.10464979987592,69.10464979987592,69.10464979987592,10,6,"[0.03331740014255047, 0.11653889995068312, 0.149938500020653, 0.1831930000334978, 0.31708780000917614, 0.3502609001006931]","[0.06761180004104972, 0.13320020004175603, 0.16658929991535842, 0.28321109991520643, 0.3334965000394732, 0.36682490003295243]",69.10464979987592,69.30512999999337,0.0,69.30512999999337,0,0.0,0,1,1000,num_1,0.6918524999637157,,31,15,2026-03-12_14h36.51.088,2026A_exp2,2022.2.4,59.942982247734584,
1,0,0.0,0.0,0,0,9,9,6,,,,,70.02223609993234,70.65602870006114,70.65602870006114,71.1571545000188,315,45,71.1571545000188,71.1571545000188,71.1571545000188,71.1571545000188,71.1571545000188,71.1571545000188,71.1571545000188,71.1571545000188,71.1571545000188,71.52362410002388,71.52362410002388,71.52362410002388,71.52362410002388,71.52362410002388,71.52362410002388,71.52362410002388,71.52362410002388,71.52362410002388,20,2,"[0.317162899998948, 0.3506120000965893]","[0.3338452000170946, 0.3671978001948446]",71.52362410002388,71.72381319990382,0.0,71.72381319990382,0,0.0,0,1,1000,num_1,0.7858295000623912,,31,15,2026-03-12_14h36.51.088,2026A_exp2,2022.2.4,59.942982247734584,
1,0,6.1,0.0,0,0,10,10,51,,,,,72.54202349996194,73.19211559998803,73.19211559998803,73.67647479986772,45,315,73.67647479986772,73.67647479986772,73.67647479986772,73.67647479986772,73.67647479986772,73.67647479986772,73.67647479986772,73.67647479986772,73.67647479986772,74.04288319987245,74.04288319987245,74.04288319987245,74.04288319987245,74.04288319987245,74.04288319987245,74.04288319987245,74.04288319987245,74.04288319987245,0,1,[0.0007468000985682011],[0.36710810009390116],74.04288319987245,74.24323810008354,6.1,74.24323810008354,1,6.1,1,1,1000,num_4,0.7460262000095099,,31,15,2026-03-12_14h36.51.088,2026A_exp2,2022.2.4,59.942982247734584,
1,0,0.0,3.7,0,0,11,11,64,,,,,75.0109576000832,75.64493010006845,75.64493010006845,76.14583229995333,315,45,76.14583229995333,76.14583229995333,76.14583229995333,76.14583229995333,76.14583229995333,76.14583229995333,76.14583229995333,76.14583229995333,76.14583229995333,76.51223160000518,76.51223160000518,76.51223160000518,76.51223160000518,76.51223160000518,76.51223160000518,76.51223160000518,76.51223160000518,76.51223160000518,23,0,,,76.51223160000518,76.71251840004697,0.0,76.71251840004697,0,0.0,0,1,1000,num_1,0.9725058998446912,,31,15,2026-03-12_14h36.51.088,2026A_exp2,2022.2.4,59.942982247734584,
1000,1,0.0,0.0,1,0,12,12,35,,,,,77.71340280002914,78.3473378000781,78.3473378000781,78.84844169998541,315,315,78.84844169998541,78.84844169998541,78.84844169998541,78.84844169998541,78.84844169998541,78.84844169998541,78.84844169998541,78.84844169998541,78.84844169998541,79.21474309987389,79.21474309987389,79.21474309987389,79.21474309987389,79.21474309987389,79.21474309987389,79.21474309987389,79.21474309987389,79.21474309987389,0,1,[0.0007227000314742327],[0.36701449984684587],79.21474309987389,79.41540380008519,1000,79.41540380008519,1000,1000,1000,1000,0,num_3,0.7417057999409735,,31,15,2026-03-12_14h36.51.088,2026A_exp2,2022.2.4,59.942982247734584,
1000,1,6.1,0.0,0,0,13,13,69,,,,,80.1825794999022,80.83434000005946,80.83434000005946,81.3345291998703,315,45,81.3345291998703,81.3345291998703,81.3345291998703,81.3345291998703,81.3345291998703,81.3345291998703,81.3345291998703,81.3345291998703,81.3345291998703,81.70047829998657,81.70047829998657,81.70047829998657,81.70047829998657,81.70047829998657,81.70047829998657,81.70047829998657,81.70047829998657,81.70047829998657,2,3,"[0.0007303999736905098, 0.3337484998628497, 0.3671260999981314]","[0.3170696999877691, 0.3503989998716861, 0.3671295999083668]",81.70047829998657,81.90086219995283,1000,81.90086219995283,1000,1000,1000,1000,0,num_3,0.4078381001017988,,31,15,2026-03-12_14h36.51.088,2026A_exp2,2022.2.4,59.942982247734584,
1000,1,0.0,3.7,0,0,14,14,50,,,,,82.33465950004756,82.98520089988597,82.98520089988597,83.46972099994309,45,45,83.46972099994309,83.46972099994309,83.46972099994309,83.46972099994309,83.46972099994309,83.46972099994309,83.46972099994309,83.46972099994309,83.46972099994309,83.83655630005524,83.83655630005524,83.83655630005524,83.83655630005524,83.83655630005524,83.83655630005524,83.83655630005524,83.83655630005524,83.83655630005524,0,1,[0.0007940998766571283],[0.3673094999976456],83.83655630005524,84.03631870006211,1000,84.03631870006211,1000,1000,1000,1000,1,num_2,0.4013219999615103,,31,15,2026-03-12_14h36.51.088,2026A_exp2,2022.2.4,59.942982247734584,
1000,1,0.0,4.9,1,0,15,15,57,,,,,84.45338639989495,85.10397009993903,85.10397009993903,85.58846260001883,315,315,85.58846260001883,85.58846260001883,85.58846260001883,85.58846260001883,85.58846260001883,85.58846260001883,85.58846260001883,85.58846260001883,85.58846260001883,85.95509999990463,85.95509999990463,85.95509999990463,85.95509999990463,85.95509999990463,85.95509999990463,85.95509999990463,85.95509999990463,85.95509999990463,0,1,[0.0008903001435101032],[0.3674002999905497],85.95509999990463,86.15539720002562,1000,86.15539720002562,1000,1000,1000,1000,1,num_2,0.33795300009660423,,31,15,2026-03-12_14h36.51.088,2026A_exp2,2022.2.4,59.942982247734584,
1,0,0.0,0.0,1,0,16,16,20,,,,,86.52270459989086,87.1727795000188,87.1727795000188,87.673815399874,45,45,87.673815399874,87.673815399874,87.673815399874,87.673815399874,87.673815399874,87.673815399874,87.673815399874,87.673815399874,87.673815399874,88.04013699991629,88.04013699991629,88.04013699991629,88.04013699991629,88.04013699991629,88.04013699991629,88.04013699991629,88.04013699991629,88.04013699991629,0,1,[0.0008102001156657934],[0.3673900000285357],88.04013699991629,88.24047020007856,0.0,88.24047020007856,0,0.0,0,1,1000,num_1,0.5491305000614375,,31,15,2026-03-12_14h36.51.088,2026A_exp2,2022.2.4,59.942982247734584,
1000,1,3.7,3.7,1,0,17,17,54,,,,,88.80772679997608,89.45851289993152,89.45851289993152,89.95961949997582,315,315,89.95961949997582,89.95961949997582,89.95961949997582,89.95961949997582,89.95961949997582,89.95961949997582,89.95961949997582,89.95961949997582,89.95961949997582,90.30922230007127,90.30922230007127,90.30922230007127,90.30922230007127,90.30922230007127,90.30922230007127,90.30922230007127,90.30922230007127,90.30922230007127,0,1,[0.0008150001522153616],[0.3505332001950592],90.30922230007127,90.50957249989733,1000,90.50957249989733,1000,1000,1000,1000,1,num_2,0.7034101001918316,,31,15,2026-03-12_14h36.51.088,2026A_exp2,2022.2.4,59.942982247734584,
1,0,4.9,4.9,0,0,18,18,28,,,,,91.24346800008789,91.89434859994799,91.89434859994799,92.37887110002339,315,45,92.37887110002339,92.37887110002339,92.37887110002339,92.37887110002339,92.37887110002339,92.37887110002339,92.37887110002339,92.37887110002339,92.37887110002339,92.74489219998941,92.74489219998941,92.74489219998941,92.74489219998941,92.74489219998941,92.74489219998941,92.74489219998941,92.74489219998941,92.74489219998941,0,1,[0.0007394000422209501],[0.3666775000747293],92.74489219998941,92.94535829988308,4.9,92.94535829988308,1,4.9,1,1,1000,num_4,0.7955390000715852,,31,15,2026-03-12_14h36.51.088,2026A_exp2,2022.2.4,59.942982247734584,
1,0,0.0,3.7,0,0,19,19,31,,,,,93.76276220008731,94.41354999993928,94.41354999993928,94.89805139997043,315,315,94.89805139997043,94.89805139997043,94.89805139997043,94.89805139997043,94.89805139997043,94.89805139997043,94.89805139997043,94.89805139997043,94.89805139997043,95.26407320005819,95.26407320005819,95.26407320005819,95.26407320005819,95.26407320005819,95.26407320005819,95.26407320005819,95.26407320005819,95.26407320005819,0,1,[0.0012162001803517342],[0.3664465001784265],95.26407320005819,95.4644048998598,0.0,95.4644048998598,0,0.0,0,1,1000,num_1,0.7570241999346763,,31,15,2026-03-12_14h36.51.088,2026A_exp2,2022.2.4,59.942982247734584,
1000,1,3.7,0.0,1,0,20,20,78,,,,,96.24861219990999,96.8992846000474,96.8992846000474,97.38390589994378,315,315,97.38390589994378,97.38390589994378,97.38390589994378,97.38390589994378,97.38390589994378,97.38390589994378,97.38390589994378,97.38390589994378,97.38390589994378,97.75028029992245,97.75028029992245,97.75028029992245,97.75028029992245,97.75028029992245,97.75028029992245,97.75028029992245,97.75028029992245,97.75028029992245,0,1,[0.0012326999567449093],[0.36719690007157624],97.75028029992245,97.95217279996723,1000,97.95217279996723,1000,1000,1000,1000,0,num_3,0.6060390998609364,,31,15,2026-03-12_14h36.51.088,2026A_exp2,2022.2.4,59.942982247734584,
1000,1,0.0,0.0,1,0,21,21,68,,,,,98.58436039998196,99.23508549993858,99.23508549993858,99.73625919991173,315,315,99.73625919991173,99.73625919991173,99.73625919991173,99.73625919991173,99.73625919991173,99.73625919991173,99.73625919991173,99.73625919991173,99.73625919991173,100.10263059986755,100.10263059986755,100.10263059986755,100.10263059986755,100.10263059986755,100.10263059986755,100.10263059986755,100.10263059986755,100.10263059986755,0,1,[0.001288499915972352],[0.3670709999278188],100.10263059986755,100.30515150004067,1000,100.30515150004067,1000,1000,1000,1000,1,num_2,0.4680812999140471,,31,15,2026-03-12_14h36.51.088,2026A_exp2,2022.2.4,59.942982247734584,
1,0,6.1,6.1,1,0,22,22,49,,,,,100.80321569996886,101.45386880007572,101.45386880007572,101.9551053000614,315,315,101.9551053000614,101.9551053000614,101.9551053000614,101.9551053000614,101.9551053000614,101.9551053000614,101.9551053000614,101.9551053000614,101.9551053000614,102.32154679996893,102.32154679996893,102.32154679996893,102.32154679996893,102.32154679996893,102.32154679996893,102.32154679996893,102.32154679996893,102.32154679996893,0,1,[0.0012567001394927502],[0.36704839998856187],102.32154679996893,102.521706599975,6.1,102.521706599975,1,6.1,1,1,1000,num_4,0.6676815999671817,,31,15,2026-03-12_14h36.51.088,2026A_exp2,2022.2.4,59.942982247734584,
0,0,3.7,3.7,1,0,23,23,62,,,,,103.2056062000338,103.83963559987023,103.83963559987023,104.34084969991818,315,315,104.34084969991818,104.34084969991818,104.34084969991818,104.34084969991818,104.34084969991818,104.34084969991818,104.34084969991818,104.34084969991818,104.34084969991818,104.70725669991225,104.70725669991225,104.70725669991225,104.70725669991225,104.70725669991225,104.70725669991225,104.70725669991225,104.70725669991225,104.70725669991225,0,1,[0.0012255997862666845],[0.3672136999666691],104.70725669991225,104.907490799902,3.7,104.907490799902,1,3.7,1,1,1000,num_4,0.8094202999491245,,31,15,2026-03-12_14h36.51.088,2026A_exp2,2022.2.4,59.942982247734584,
1000,1,3.7,0.0,1,0,24,24,52,,,,,105.74141560005955,106.37545159994625,106.37545159994625,106.87672970001586,315,315,106.87672970001586,106.87672970001586,106.87672970001586,106.87672970001586,106.87672970001586,106.87672970001586,106.87672970001586,106.87672970001586,106.87672970001586,107.2431624000892,107.2431624000892,107.2431624000892,107.2431624000892,107.2431624000892,107.2431624000892,107.2431624000892,107.2431624000892,107.2431624000892,0,1,[0.001231200061738491],[0.3668519000057131],107.2431624000892,107.44497429998592,1000,107.44497429998592,1000,1000,1000,1000,0,num_3,0.5840592000167817,,31,15,2026-03-12_14h36.51.088,2026A_exp2,2022.2.4,59.942982247734584,
1000,1,3.7,0.0,0,0,25,25,55,,,,,108.06065470003523,108.71134999999776,108.71134999999776,109.20867120008916,45,315,109.20867120008916,109.20867120008916,109.20867120008916,109.20867120008916,109.20867120008916,109.20867120008916,109.20867120008916,109.20867120008916,109.20867120008916,109.5621593000833,109.5621593000833,109.5621593000833,109.5621593000833,109.5621593000833,109.5621593000833,109.5621593000833,109.5621593000833,109.5621593000833,0,1,[0.003951699938625097],[0.3641276000998914],109.5621593000833,109.76400339999236,1000,109.76400339999236,1000,1000,1000,1000,1,num_2,0.44945100019685924,,31,15,2026-03-12_14h36.51.088,2026A_exp2,2022.2.4,59.942982247734584,
1,0,6.1,3.7,1,0,26,26,16,,,,,110.22968959994614,110.88012679992244,110.88012679992244,111.38112300005741,45,315,111.38112300005741,111.38112300005741,111.38112300005741,111.38112300005741,111.38112300005741,111.38112300005741,111.38112300005741,111.38112300005741,111.38112300005741,111.74757670005783,111.74757670005783,111.74757670005783,111.74757670005783,111.74757670005783,111.74757670005783,111.74757670005783,111.74757670005783,111.74757670005783,0,1,[0.001175199868157506],[0.3672720999456942],111.74757670005783,111.94765329989605,3.7,111.94765329989605,1,3.7,1,1,1000,num_4,0.745242599863559,,31,15,2026-03-12_14h36.51.088,2026A_exp2,2022.2.4,59.942982247734584,
1,0,3.7,0.0,0,0,27,27,10,,,,,112.71502609993331,113.36585949989967,113.36585949989967,113.8502056999132,45,315,113.8502056999132,113.8502056999132,113.8502056999132,113.8502056999132,113.8502056999132,113.8502056999132,113.8502056999132,113.8502056999132,113.8502056999132,114.2167921999935,114.2167921999935,114.2167921999935,114.2167921999935,114.2167921999935,114.2167921999935,114.2167921999935,114.2167921999935,114.2167921999935,0,1,[0.0012032999657094479],[0.3672281999606639],114.2167921999935,114.41676699998789,3.7,114.41676699998789,1,3.7,1,1,1000,num_4,0.7808668001089245,,31,15,2026-03-12_14h36.51.088,2026A_exp2,2022.2.4,59.942982247734584,
1000,1,0.0,3.7,1,0,28,28,67,,,,,115.2175388999749,115.86841590004042,115.86841590004042,116.3528441998642,315,315,116.3528441998642,116.3528441998642,116.3528441998642,116.3528441998642,116.3528441998642,116.3528441998642,116.3528441998642,116.3528441998642,116.3528441998642,116.71935439994559,116.71935439994559,116.71935439994559,116.71935439994559,116.71935439994559,116.71935439994559,116.71935439994559,116.71935439994559,116.71935439994559,0,1,[0.0012399000115692616],[0.3665448999963701],116.71935439994559,116.92166680004448,1000,116.92166680004448,1000,1000,1000,1000,1,num_2,1.5397604999598116,,31,15,2026-03-12_14h36.51.088,2026A_exp2,2022.2.4,59.942982247734584,
1000,1,0.0,0.0,0,0,29,29,79,,,,,118.48775149998255,119.1383587999735,119.1383587999735,119.6394513999112,315,45,119.6394513999112,119.6394513999112,119.6394513999112,119.6394513999112,119.6394513999112,119.6394513999112,119.6394513999112,119.6394513999112,119.6394513999112,120.00585679989308,120.00585679989308,120.00585679989308,120.00585679989308,120.00585679989308,120.00585679989308,120.00585679989308,120.00585679989308,120.00585679989308,3,1,[0.001222300110384822],[0.3338451001327485],120.00585679989308,120.20816039992496,1000,120.20816039992496,1000,1000,1000,1000,0,num_3,0.8529811999760568,,31,15,2026-03-12_14h36.51.088,2026A_exp2,2022.2.4,59.942982247734584,
1,0,0.0,0.0,0,0,30,30,11,,,,,121.0901414998807,121.74095989996567,121.74095989996567,122.24208309990354,315,45,122.24208309990354,122.24208309990354,122.24208309990354,122.24208309990354,122.24208309990354,122.24208309990354,122.24208309990354,122.24208309990354,122.24208309990354,122.5917714999523,122.5917714999523,122.5917714999523,122.5917714999523,122.5917714999523,122.5917714999523,122.5917714999523,122.5917714999523,122.5917714999523,0,1,[0.0009834000375121832],[0.35048280004411936],122.5917714999523,122.79195989994332,0.0,122.80866290000267,0,0.0,0,1,1000,num_1,0.7574479000177234,,31,15,2026-03-12_14h36.51.088,2026A_exp2,2022.2.4,59.942982247734584,
1,0,0.0,0.0,0,0,31,31,61,,,,,123.59257159987465,124.24354210007004,124.24354210007004,124.72782390005887,315,315,124.72782390005887,124.72782390005887,124.72782390005887,124.72782390005887,124.72782390005887,124.72782390005887,124.72782390005887,124.72782390005887,124.72782390005887,125.09425850003026,125.09425850003026,125.09425850003026,125.09425850003026,125.09425850003026,125.09425850003026,125.09425850003026,125.09425850003026,125.09425850003026,0,1,[0.0012399000115692616],[0.367225700058043],125.09425850003026,125.29455269989558,0.0,125.29455269989558,0,0.0,0,1,1000,num_1,1.0865704000461847,,31,15,2026-03-12_14h36.51.088,2026A_exp2,2022.2.4,59.942982247734584,
1,0,0.0,0.0,1,0,32,32,4,,,,,126.41217650007457,127.06281429994851,127.06281429994851,127.54738119989634,315,315,127.54738119989634,127.54738119989634,127.54738119989634,127.54738119989634,127.54738119989634,127.54738119989634,127.54738119989634,127.54738119989634,127.54738119989634,127.91375229996629,127.91375229996629,127.91375229996629,127.91375229996629,127.91375229996629,127.91375229996629,127.91375229996629,127.91375229996629,127.91375229996629,0,1,[0.0012389998883008957],[0.3671234999783337],127.91375229996629,128.1138895000331,0.0,128.1138895000331,0,0.0,0,1,1000,num_1,0.48330649989657104,,31,15,2026-03-12_14h36.51.088,2026A_exp2,2022.2.4,59.942982247734584,
1,0,0.0,0.0,1,0,33,33,59,,,,,128.61430069990456,129.25872659985907,129.25872659985907,129.7495925000403,315,45,129.7495925000403,129.7495925000403,129.7495925000403,129.7495925000403,129.7495925000403,129.7495925000403,129.7495925000403,129.7495925000403,129.7495925000403,130.1158652000595,130.1158652000595,130.1158652000595,130.1158652000595,130.1158652000595,130.1158652000595,130.1158652000595,130.1158652000595,130.1158652000595,0,1,[0.0012335001956671476],[0.36709320009686053],130.1158652000595,130.31602780008689,0.0,130.31602780008689,0,0.0,0,1,1000,num_1,0.5533779000397772,,31,15,2026-03-12_14h36.51.088,2026A_exp2,2022.2.4,59.942982247734584,
0,0,0.0,4.9,1,0,34,34,33,,,,,130.89991879998706,131.5508004000876,131.5508004000876,132.03504709992558,45,315,132.03504709992558,132.03504709992558,132.03504709992558,132.03504709992558,132.03504709992558,132.03504709992558,132.03504709992558,132.03504709992558,132.03504709992558,132.40160340000875,132.40160340000875,132.40160340000875,132.40160340000875,132.40160340000875,132.40160340000875,132.40160340000875,132.40160340000875,132.40160340000875,0,1,[0.001206899993121624],[0.3673475000541657],132.40160340000875,132.6016577000264,0.0,132.6016577000264,0,0.0,0,1,1000,num_1,1.6836840999312699,,31,15,2026-03-12_14h36.51.088,2026A_exp2,2022.2.4,59.942982247734584,
1,0,3.7,6.1,1,0,35,35,75,,,,,134.30324289994314,134.93749779998325,134.93749779998325,135.43864890001714,45,315,135.43864890001714,135.43864890001714,135.43864890001714,135.43864890001714,135.43864890001714,135.43864890001714,135.43864890001714,135.43864890001714,135.43864890001714,135.80492899985984,135.80492899985984,135.80492899985984,135.80492899985984,135.80492899985984,135.80492899985984,135.80492899985984,135.80492899985984,135.80492899985984,0,1,[0.001210200134664774],[0.3667498999275267],135.80492899985984,136.0051974998787,6.1,136.0051974998787,1,6.1,1,1,1000,num_4,0.5354120000265539,,31,15,2026-03-12_14h36.51.088,2026A_exp2,2022.2.4,59.942982247734584,
0,0,4.9,0.0,1,0,36,36,26,,,,,136.57247800007463,137.2231119000353,137.2231119000353,137.70739819994196,45,315,137.70739819994196,137.70739819994196,137.70739819994196,137.70739819994196,137.70739819994196,137.70739819994196,137.70739819994196,137.70739819994196,137.70739819994196,138.07395009999163,138.07395009999163,138.07395009999163,138.07395009999163,138.07395009999163,138.07395009999163,138.07395009999163,138.07395009999163,138.07395009999163,1,1,[0.0012491000816226006],[0.3671415001153946],138.07395009999163,138.274084799923,4.9,138.274084799923,0,4.9,1,0,1000,num_1,0.6355004000943154,,31,15,2026-03-12_14h36.51.088,2026A_exp2,2022.2.4,59.942982247734584,
1,0,0.0,0.0,1,0,37,37,66,,,,,138.94144849991426,139.57715309993364,139.57715309993364,140.07626540004276,45,45,140.07626540004276,140.07626540004276,140.07626540004276,140.07626540004276,140.07626540004276,140.07626540004276,140.07626540004276,140.07626540004276,140.07626540004276,140.44316660007462,140.44316660007462,140.44316660007462,140.44316660007462,140.44316660007462,140.44316660007462,140.44316660007462,140.44316660007462,140.44316660007462,0,1,[0.0013800000306218863],[0.3666455999482423],140.44316660007462,140.64298780006357,0.0,140.64298780006357,0,0.0,0,1,1000,num_1,0.8103978999424726,,31,15,2026-03-12_14h36.51.088,2026A_exp2,2022.2.4,59.942982247734584,
1000,1,0.0,0.0,1,0,38,38,63,,,,,141.47765860008076,142.1280153999105,142.1280153999105,142.6291263999883,315,45,142.6291263999883,142.6291263999883,142.6291263999883,142.6291263999883,142.6291263999883,142.6291263999883,142.6291263999883,142.6291263999883,142.6291263999883,142.99537259992212,142.99537259992212,142.99537259992212,142.99537259992212,142.99537259992212,142.99537259992212,142.99537259992212,142.99537259992212,142.99537259992212,0,1,[0.0012483000755310059],[0.36716339993290603],142.99537259992212,143.19752510008402,1000,143.19752510008402,1000,1000,1000,1000,0,num_3,0.7837519000750035,,31,15,2026-03-12_14h36.51.088,2026A_exp2,2022.2.4,59.942982247734584,
1,0,0.0,0.0,0,0,39,39,22,,,,,143.9964010999538,144.6468823000323,144.6468823000323,145.1483132999856,315,315,145.1483132999856,145.1483132999856,145.1483132999856,145.1483132999856,145.1483132999856,145.1483132999856,145.1483132999856,145.1483132999856,145.1483132999856,145.51475059986115,145.51475059986115,145.51475059986115,145.51475059986115,145.51475059986115,145.51475059986115,145.51475059986115,145.51475059986115,145.51475059986115,4,1,[0.0012261001393198967],[0.31704430002719164],145.51475059986115,145.71489880001172,0.0,145.71489880001172,0,0.0,0,1,1000,num_1,0.7150086001493037,,31,15,2026-03-12_14h36.51.088,2026A_exp2,2022.2.4,59.942982247734584,
1,0,0.0,4.9,1,0,40,40,41,,,,,146.44912889995612,147.0829270000104,147.0829270000104,147.58410239988007,315,315,147.58410239988007,147.58410239988007,147.58410239988007,147.58410239988007,147.58410239988007,147.58410239988007,147.58410239988007,147.58410239988007,147.58410239988007,147.95051639992744,147.95051639992744,147.95051639992744,147.95051639992744,147.95051639992744,147.95051639992744,147.95051639992744,147.95051639992744,147.95051639992744,0,1,[0.0012148001696914434],[0.36690150015056133],147.95051639992744,148.1506974999793,4.9,148.1506974999793,1,4.9,1,1,1000,num_4,0.6146750999614596,,31,15,2026-03-12_14h36.51.088,2026A_exp2,2022.2.4,59.942982247734584,
1000,1,6.1,4.9,1,0,41,41,86,,,,,148.78457150002941,149.44378410000354,149.44378410000354,149.93871910008602,315,45,149.93871910008602,149.93871910008602,149.93871910008602,149.93871910008602,149.93871910008602,149.93871910008602,149.93871910008602,149.93871910008602,149.93871910008602,150.30278909998015,150.30278909998015,150.30278909998015,150.30278909998015,150.30278909998015,150.30278909998015,150.30278909998015,150.30278909998015,150.30278909998015,0,1,[0.0021355999633669853],[0.3672186001203954],150.30278909998015,150.5136794000864,1000,150.5136794000864,1000,1000,1000,1000,0,num_3,0.6679732999764383,,31,15,2026-03-12_14h36.51.088,2026A_exp2,2022.2.4,59.942982247734584,
0,0,0.0,4.9,0,0,42,42,65,,,,,151.2035502998624,151.8544213999994,151.8544213999994,152.35537929995917,315,315,152.35537929995917,152.35537929995917,152.35537929995917,152.35537929995917,152.35537929995917,152.35537929995917,152.35537929995917,152.35537929995917,152.35537929995917,152.7218488000799,152.7218488000799,152.7218488000799,152.7218488000799,152.7218488000799,152.7218488000799,152.7218488000799,152.7218488000799,152.7218488000799,3,3,"[0.0012966999784111977, 0.050197500037029386, 0.11685620015487075]","[0.017201000126078725, 0.10022430005483329, 0.36702440003864467]",152.7218488000799,152.92206560005434,4.9,152.92206560005434,1,4.9,1,1,1000,num_4,0.8515364998020232,,31,15,2026-03-12_14h36.51.088,2026A_exp2,2022.2.4,59.942982247734584,
1,0,4.9,3.7,1,0,43,43,71,,,,,153.7894347999245,154.44025169988163,154.44025169988163,154.94135129987262,315,45,154.94135129987262,154.94135129987262,154.94135129987262,154.94135129987262,154.94135129987262,154.94135129987262,154.94135129987262,154.94135129987262,154.94135129987262,155.3075723000802,155.3075723000802,155.3075723000802,155.3075723000802,155.3075723000802,155.3075723000802,155.3075723000802,155.3075723000802,155.3075723000802,0,1,[0.001199900172650814],[0.3665114000905305],155.3075723000802,155.50804649991915,3.7,155.50804649991915,1,3.7,1,1,1000,num_4,0.5134479000698775,,31,15,2026-03-12_14h36.51.088,2026A_exp2,2022.2.4,59.942982247734584,
1000,1,0.0,0.0,0,0,44,44,24,,,,,156.04177260003053,156.6925176999066,156.6925176999066,157.19350589998066,315,45,157.19350589998066,157.19350589998066,157.19350589998066,157.19350589998066,157.19350589998066,157.19350589998066,157.19350589998066,157.19350589998066,157.19350589998066,157.5600487999618,157.5600487999618,157.5600487999618,157.5600487999618,157.5600487999618,157.5600487999618,157.5600487999618,157.5600487999618,157.5600487999618,3,2,"[0.0012320999521762133, 0.28396269981749356]","[0.26709420001134276, 0.3505124000366777]",157.5600487999618,157.76233850000426,1000,157.76233850000426,1000,1000,1000,1000,1,num_2,0.8598136000800878,,31,15,2026-03-12_14h36.51.088,2026A_exp2,2022.2.4,59.942982247734584,
1000,1,0.0,6.1,0,0,45,45,27,,,,,158.64445369993336,159.2951986999251,159.2951986999251,159.80702050006948,45,315,159.80702050006948,159.80702050006948,159.80702050006948,159.80702050006948,159.80702050006948,159.80702050006948,159.80702050006948,159.80702050006948,159.80702050006948,160.146114599891,160.146114599891,160.146114599891,160.146114599891,160.146114599891,160.146114599891,160.146114599891,160.146114599891,160.146114599891,22,0,,,160.146114599891,160.34787579998374,1000,160.34787579998374,1000,1000,1000,1000,1,num_2,0.5290472998749465,,31,15,2026-03-12_14h36.51.088,2026A_exp2,2022.2.4,59.942982247734584,
1000,1,4.9,0.0,1,0,46,46,56,,,,,160.89661470009014,161.54742729989812,161.54742729989812,162.04841599985957,315,315,162.04841599985957,162.04841599985957,162.04841599985957,162.04841599985957,162.04841599985957,162.04841599985957,162.04841599985957,162.04841599985957,162.04841599985957,162.3982947000768,162.3982947000768,162.3982947000768,162.3982947000768,162.3982947000768,162.3982947000768,162.3982947000768,162.3982947000768,162.3982947000768,11,5,"[0.001254200004041195, 0.06674510007724166, 0.15011470019817352, 0.23342000017873943, 0.35027809999883175]","[0.03346390021033585, 0.11690210015513003, 0.2002372001297772, 0.2665189001709223, 0.3502838001586497]",162.3982947000768,162.60035560000688,1000,162.61519420007244,1000,1000,1000,1000,0,num_3,0.49498879979364574,,31,15,2026-03-12_14h36.51.088,2026A_exp2,2022.2.4,59.942982247734584,
1000,1,4.9,0.0,0,0,47,47,12,,,,,163.1321852998808,163.78284200001508,163.78284200001508,164.28410400007851,45,315,164.28410400007851,164.28410400007851,164.28410400007851,164.28410400007851,164.28410400007851,164.28410400007851,164.28410400007851,164.28410400007851,164.28410400007851,164.6503000999801,164.6503000999801,164.6503000999801,164.6503000999801,164.6503000999801,164.6503000999801,164.6503000999801,164.6503000999801,164.6503000999801,12,4,"[0.10020860005170107, 0.183516199933365, 0.21698829997330904, 0.2838661998976022]","[0.13349769986234605, 0.20026810001581907, 0.2504280998837203, 0.3673002999275923]",164.6503000999801,164.85281180008315,1000,164.85281180008315,1000,1000,1000,1000,0,num_3,0.4004532000981271,,31,15,2026-03-12_14h36.51.088,2026A_exp2,2022.2.4,59.942982247734584,
1,0,6.1,6.1,0,0,48,48,89,,,,,165.2845642999746,165.93513270001858,165.93513270001858,166.41978819994256,45,45,166.41978819994256,166.41978819994256,166.41978819994256,166.41978819994256,166.41978819994256,166.41978819994256,166.41978819994256,166.41978819994256,166.41978819994256,166.78600710001774,166.78600710001774,166.78600710001774,166.78600710001774,166.78600710001774,166.78600710001774,166.78600710001774,166.78600710001774,166.78600710001774,0,1,[0.0007762000896036625],[0.3674161999952048],166.78600710001774,166.98602780001238,6.1,166.98602780001238,1,6.1,1,1,1000,num_4,0.8675243998877704,,31,15,2026-03-12_14h36.51.088,2026A_exp2,2022.2.4,59.942982247734584,
1,0,3.7,3.7,0,0,49,49,60,,,,,167.87023980007507,168.52103509986773,168.52103509986773,169.00542659987696,315,315,169.00542659987696,169.00542659987696,169.00542659987696,169.00542659987696,169.00542659987696,169.00542659987696,169.00542659987696,169.00542659987696,169.00542659987696,169.3718807999976,169.3718807999976,169.3718807999976,169.3718807999976,169.3718807999976,169.3718807999976,169.3718807999976,169.3718807999976,169.3718807999976,0,1,[0.0012327998410910368],[0.3671860999893397],169.3718807999976,169.57181079988368,3.7,169.57181079988368,1,3.7,1,1,1000,num_4,0.624881099909544,,31,15,2026-03-12_14h36.51.088,2026A_exp2,2022.2.4,59.942982247734584,
1000,1,0.0,0.0,0,0,50,50,13,,,,,170.22296059993096,170.87346690008417,170.87346690008417,171.35763849993236,315,45,171.35763849993236,171.35763849993236,171.35763849993236,171.35763849993236,171.35763849993236,171.35763849993236,171.35763849993236,171.35763849993236,171.35763849993236,171.72421439993195,171.72421439993195,171.72421439993195,171.72421439993195,171.72421439993195,171.72421439993195,171.72421439993195,171.72421439993195,171.72421439993195,1,2,"[0.0012648999691009521, 0.13347709993831813]","[0.11693659983575344, 0.36716489982791245]",171.72421439993195,171.9242906998843,1000,171.9242906998843,1000,1000,1000,1000,0,num_3,0.9369873001705855,,31,15,2026-03-12_14h36.51.088,2026A_exp2,2022.2.4,59.942982247734584,
1,0,4.9,6.1,1,0,51,51,36,,,,,172.89194589992985,173.54277880000882,173.54277880000882,174.04377999994904,45,45,174.04377999994904,174.04377999994904,174.04377999994904,174.04377999994904,174.04377999994904,174.04377999994904,174.04377999994904,174.04377999994904,174.04377999994904,174.41028599999845,174.41028599999845,174.41028599999845,174.41028599999845,174.41028599999845,174.41028599999845,174.41028599999845,174.41028599999845,174.41028599999845,0,1,[0.0012391000054776669],[0.3672330998815596],174.41028599999845,174.61042659985833,6.1,174.61042659985833,1,6.1,1,1,1000,num_4,0.6423691001255065,,31,15,2026-03-12_14h36.51.088,2026A_exp2,2022.2.4,59.942982247734584,
0,0,0.0,0.0,1,0,52,52,14,,,,,175.2779586999677,175.9284371000249,175.9284371000249,176.4126271000132,45,45,176.4126271000132,176.4126271000132,176.4126271000132,176.4126271000132,176.4126271000132,176.4126271000132,176.4126271000132,176.4126271000132,176.4126271000132,176.77921309997328,176.77921309997328,176.77921309997328,176.77921309997328,176.77921309997328,176.77921309997328,176.77921309997328,176.77921309997328,176.77921309997328,11,2,"[0.13444400019943714, 0.2176362001337111]","[0.1675756999757141, 0.3681324999779463]",176.77921309997328,176.9794926000759,0.0,176.9794926000759,0,0.0,0,1,1000,num_1,0.7133017999585718,,31,15,2026-03-12_14h36.51.088,2026A_exp2,2022.2.4,59.942982247734584,
1000,1,0.0,0.0,1,0,53,53,34,,,,,177.71337580005638,178.36408660002053,178.36408660002053,178.84872019989416,315,45,178.84872019989416,178.84872019989416,178.84872019989416,178.84872019989416,178.84872019989416,178.84872019989416,178.84872019989416,178.84872019989416,178.84872019989416,179.21507789986208,179.21507789986208,179.21507789986208,179.21507789986208,179.21507789986208,179.21507789986208,179.21507789986208,179.21507789986208,179.21507789986208,0,1,[0.0012571001425385475],[0.36735930014401674],179.21507789986208,179.41703999997117,1000,179.41703999997117,1000,1000,1000,1000,1,num_2,0.7798529998399317,,31,15,2026-03-12_14h36.51.088,2026A_exp2,2022.2.4,59.942982247734584,
1000,1,3.7,4.9,0,0,54,54,25,,,,,180.21595059987158,180.86667530005798,180.86667530005798,181.3677514998708,45,45,181.3677514998708,181.3677514998708,181.3677514998708,181.3677514998708,181.3677514998708,181.3677514998708,181.3677514998708,181.3677514998708,181.3677514998708,181.73425269988365,181.73425269988365,181.73425269988365,181.73425269988365,181.73425269988365,181.73425269988365,181.73425269988365,181.73425269988365,181.73425269988365,0,1,[0.0012073998805135489],[0.3672614998649806],181.73425269988365,181.93632710003294,1000,181.93632710003294,1000,1000,1000,1000,1,num_2,0.5492677998263389,,31,15,2026-03-12_14h36.51.088,2026A_exp2,2022.2.4,59.942982247734584,
1,0,0.0,4.9,1,0,55,55,73,,,,,182.50159329990856,183.1522228999529,183.1522228999529,183.65337969991378,45,45,183.65337969991378,183.65337969991378,183.65337969991378,183.65337969991378,183.65337969991378,183.65337969991378,183.65337969991378,183.65337969991378,183.65337969991378,184.01979400007986,184.01979400007986,184.01979400007986,184.01979400007986,184.01979400007986,184.01979400007986,184.01979400007986,184.01979400007986,184.01979400007986,0,1,[0.001205200096592307],[0.367246099980548],184.01979400007986,184.2200915000867,4.9,184.2200915000867,1,4.9,1,1,1000,num_4,0.6740027000196278,,31,15,2026-03-12_14h36.51.088,2026A_exp2,2022.2.4,59.942982247734584,
1000,1,3.7,0.0,1,0,56,56,19,,,,,184.92064719996415,185.57138069998473,185.57138069998473,186.0557651000563,315,45,186.0557651000563,186.0557651000563,186.0557651000563,186.0557651000563,186.0557651000563,186.0557651000563,186.0557651000563,186.0557651000563,186.0557651000563,186.42230949993245,186.42230949993245,186.42230949993245,186.42230949993245,186.42230949993245,186.42230949993245,186.42230949993245,186.42230949993245,186.42230949993245,7,5,"[0.033787700114771724, 0.10021740011870861, 0.14995260001160204, 0.18382959999144077, 0.31728870002552867]","[0.08380650007165968, 0.11683990014716983, 0.1670049000531435, 0.30060359998606145, 0.36740770004689693]",186.42230949993245,186.62419230001979,1000,186.62419230001979,1000,1000,1000,1000,0,num_3,0.5176602001301944,,31,15,2026-03-12_14h36.51.088,2026A_exp2,2022.2.4,59.942982247734584,
1000,1,6.1,6.1,1,0,57,57,53,,,,,187.17313409992494,187.82368899998255,187.82368899998255,188.32483460009098,315,45,188.32483460009098,188.32483460009098,188.32483460009098,188.32483460009098,188.32483460009098,188.32483460009098,188.32483460009098,188.32483460009098,188.32483460009098,188.69080789992586,188.69080789992586,188.69080789992586,188.69080789992586,188.69080789992586,188.69080789992586,188.69080789992586,188.69080789992586,188.69080789992586,0,1,[0.0012636000756174326],[0.3672897000797093],188.69080789992586,188.8931767998729,1000,188.8931767998729,1000,1000,1000,1000,0,num_3,0.7612032000906765,,31,15,2026-03-12_14h36.51.088,2026A_exp2,2022.2.4,59.942982247734584,
1000,1,3.7,0.0,1,0,58,58,38,,,,,189.67887980001979,190.3261994998902,190.3261994998902,190.82719029998407,45,45,190.82719029998407,190.82719029998407,190.82719029998407,190.82719029998407,190.82719029998407,190.82719029998407,190.82719029998407,190.82719029998407,190.82719029998407,191.1936762998812,191.1936762998812,191.1936762998812,191.1936762998812,191.1936762998812,191.1936762998812,191.1936762998812,191.1936762998812,191.1936762998812,0,1,[0.0012771000619977713],[0.36729860003106296],191.1936762998812,191.39551019994542,1000,191.39551019994542,1000,1000,1000,1000,0,num_3,0.47337789996527135,,31,15,2026-03-12_14h36.51.088,2026A_exp2,2022.2.4,59.942982247734584,
1,0,0.0,0.0,0,0,59,59,39,,,,,191.89434759994037,192.54500079993159,192.54500079993159,193.0462396000512,45,45,193.0462396000512,193.0462396000512,193.0462396000512,193.0462396000512,193.0462396000512,193.0462396000512,193.0462396000512,193.0462396000512,193.0462396000512,193.41252680006437,193.41252680006437,193.41252680006437,193.41252680006437,193.41252680006437,193.41252680006437,193.41252680006437,193.41252680006437,193.41252680006437,0,1,[0.0013050998095422983],[0.36715979990549386],193.41252680006437,193.61283789994195,0.0,193.61283789994195,0,0.0,0,1,1000,num_1,0.8328825999051332,,31,15,2026-03-12_14h36.51.088,2026A_exp2,2022.2.4,59.942982247734584,
1,0,4.9,6.1,0,0,60,60,29,,,,,194.46393450000323,195.11422639992088,195.11422639992088,195.59865320008248,45,315,195.59865320008248,195.59865320008248,195.59865320008248,195.59865320008248,195.59865320008248,195.59865320008248,195.59865320008248,195.59865320008248,195.59865320008248,195.96517089987174,195.96517089987174,195.96517089987174,195.96517089987174,195.96517089987174,195.96517089987174,195.96517089987174,195.96517089987174,195.96517089987174,0,1,[0.0012186001986265182],[0.36723640002310276],195.96517089987174,196.16521129989997,4.9,196.16521129989997,1,4.9,1,1,1000,num_4,0.6240717999171466,,31,15,2026-03-12_14h36.51.088,2026A_exp2,2022.2.4,59.942982247734584,
1,0,6.1,0.0,0,0,61,61,77,,,,,196.81583520001732,197.46665339986794,197.46665339986794,197.95111849997193,315,315,197.95111849997193,197.95111849997193,197.95111849997193,197.95111849997193,197.95111849997193,197.95111849997193,197.95111849997193,197.95111849997193,197.95111849997193,198.31748609989882,198.31748609989882,198.31748609989882,198.31748609989882,198.31748609989882,198.31748609989882,198.31748609989882,198.31748609989882,198.31748609989882,7,5,"[0.001233499962836504, 0.06687889993190765, 0.16693930001929402, 0.250373899936676, 0.31716899992898107]","[0.05016499990597367, 0.15024109999649227, 0.21706319996155798, 0.3004556999076158, 0.36709710001014173]",198.31748609989882,198.5176766999066,6.1,198.5176766999066,1,6.1,1,1,1000,num_4,0.4474490999709815,,31,15,2026-03-12_14h36.51.088,2026A_exp2,2022.2.4,59.942982247734584,
1000,1,4.9,0.0,0,0,62,62,45,,,,,198.98469699989073,199.6352087999694,199.6352087999694,200.12003330001608,315,315,200.12003330001608,200.12003330001608,200.12003330001608,200.12003330001608,200.12003330001608,200.12003330001608,200.12003330001608,200.12003330001608,200.12003330001608,200.48623179993592,200.48623179993592,200.48623179993592,200.48623179993592,200.48623179993592,200.48623179993592,200.48623179993592,200.48623179993592,200.48623179993592,4,4,"[0.0012446001637727022, 0.033085100119933486, 0.09960080008022487, 0.16656000004149973]","[0.017476200126111507, 0.08298840001225471, 0.13300180016085505, 0.3676231000572443]",200.48623179993592,200.68672430003062,1000,200.68672430003062,1000,1000,1000,1000,0,num_3,0.6632832000032067,,31,15,2026-03-12_14h36.51.088,2026A_exp2,2022.2.4,59.942982247734584,
1,0,3.7,3.7,0,0,63,63,8,,,,,201.37032149988227,202.02102610003203,202.02102610003203,202.52215490001254,315,315,202.52215490001254,202.52215490001254,202.52215490001254,202.52215490001254,202.52215490001254,202.52215490001254,202.52215490001254,202.52215490001254,202.52215490001254,202.88872779998928,202.88872779998928,202.88872779998928,202.88872779998928,202.88872779998928,202.88872779998928,202.88872779998928,202.88872779998928,202.88872779998928,0,1,[0.0012352000921964645],[0.3671740998979658],202.88872779998928,203.08880329993553,3.7,203.08880329993553,1,3.7,1,1,1000,num_4,0.9971986000891775,,31,15,2026-03-12_14h36.51.088,2026A_exp2,2022.2.4,59.942982247734584,
1,0,0.0,0.0,1,0,64,64,58,,,,,204.10647429991513,204.74060610006563,204.74060610006563,205.24174520000815,45,45,205.24174520000815,205.24174520000815,205.24174520000815,205.24174520000815,205.24174520000815,205.24174520000815,205.24174520000815,205.24174520000815,205.24174520000815,205.60817550006323,205.60817550006323,205.60817550006323,205.60817550006323,205.60817550006323,205.60817550006323,205.60817550006323,205.60817550006323,205.60817550006323,0,1,[0.0012356999795883894],[0.3671689999755472],205.60817550006323,205.8082894999534,0.0,205.8082894999534,0,0.0,0,1,1000,num_1,0.5168556999415159,,31,15,2026-03-12_14h36.51.088,2026A_exp2,2022.2.4,59.942982247734584,
1,0,0.0,0.0,0,0,65,65,85,,,,,206.34200709988363,206.99281189986505,206.99281189986505,207.47734079998918,315,315,207.47734079998918,207.47734079998918,207.47734079998918,207.47734079998918,207.47734079998918,207.47734079998918,207.47734079998918,207.47734079998918,207.47734079998918,207.84354589995928,207.84354589995928,207.84354589995928,207.84354589995928,207.84354589995928,207.84354589995928,207.84354589995928,207.84354589995928,207.84354589995928,0,1,[0.0012262999080121517],[0.3671872999984771],207.84354589995928,208.04387050005607,0.0,208.04387050005607,0,0.0,0,1,1000,num_1,0.6013171998783946,,31,15,2026-03-12_14h36.51.088,2026A_exp2,2022.2.4,59.942982247734584,
0,0,4.9,6.1,1,0,66,66,70,,,,,208.66098809987307,209.31208999990486,209.31208999990486,209.79613190004602,45,315,209.79613190004602,209.79613190004602,209.79613190004602,209.79613190004602,209.79613190004602,209.79613190004602,209.79613190004602,209.79613190004602,209.79613190004602,210.1625252000522,210.1625252000522,210.1625252000522,210.1625252000522,210.1625252000522,210.1625252000522,210.1625252000522,210.1625252000522,210.1625252000522,0,1,[0.0007381998002529144],[0.36761759989894927],210.1625252000522,210.36279570008628,4.9,210.36279570008628,1,4.9,1,1,1000,num_4,0.39506389992311597,,31,15,2026-03-12_14h36.51.088,2026A_exp2,2022.2.4,59.942982247734584,
1000,1,3.7,6.1,1,0,67,67,43,,,,,210.77979850000702,211.43054739991203,211.43054739991203,211.91493269987404,45,315,211.91493269987404,211.91493269987404,211.91493269987404,211.91493269987404,211.91493269987404,211.91493269987404,211.91493269987404,211.91493269987404,211.91493269987404,212.2814312998671,212.2814312998671,212.2814312998671,212.2814312998671,212.2814312998671,212.2814312998671,212.2814312998671,212.2814312998671,212.2814312998671,0,1,[0.0012489000800997019],[0.367039900040254],212.2814312998671,212.48388840002008,1000,212.48388840002008,1000,1000,1000,1000,0,num_3,0.6016545998863876,,31,15,2026-03-12_14h36.51.088,2026A_exp2,2022.2.4,59.942982247734584,
0,0,6.1,4.9,1,0,68,68,42,,,,,213.11560470005497,213.76620609988458,213.76620609988458,214.26729850005358,315,45,214.26729850005358,214.26729850005358,214.26729850005358,214.26729850005358,214.26729850005358,214.26729850005358,214.26729850005358,214.26729850005358,214.26729850005358,214.61700639990158,214.61700639990158,214.61700639990158,214.61700639990158,214.61700639990158,214.61700639990158,214.61700639990158,214.61700639990158,214.61700639990158,0,1,[0.0012622999493032694],[0.35027440008707345],214.61700639990158,214.81719169998541,6.1,214.81719169998541,1,6.1,1,1,1000,num_4,0.7395391000900418,,31,15,2026-03-12_14h36.51.088,2026A_exp2,2022.2.4,59.942982247734584,
0,0,6.1,6.1,1,0,69,69,48,,,,,215.58486260008067,216.21857480006292,216.21857480006292,216.72008519992232,315,315,216.72008519992232,216.72008519992232,216.72008519992232,216.72008519992232,216.72008519992232,216.72008519992232,216.72008519992232,216.72008519992232,216.72008519992232,217.0862193000503,217.0862193000503,217.0862193000503,217.0862193000503,217.0862193000503,217.0862193000503,217.0862193000503,217.0862193000503,217.0862193000503,6,2,"[0.0831926001701504, 0.13338520005345345]","[0.11671580001711845, 0.3672954000066966]",217.0862193000503,217.28672199998982,6.1,217.28672199998982,1,6.1,1,1,1000,num_4,0.878909100079909,,31,15,2026-03-12_14h36.51.088,2026A_exp2,2022.2.4,59.942982247734584,
1,0,0.0,0.0,0,0,70,70,32,,,,,218.18707920005545,218.82139099994674,218.82139099994674,219.32208399986848,45,315,219.32208399986848,219.32208399986848,219.32208399986848,219.32208399986848,219.32208399986848,219.32208399986848,219.32208399986848,219.32208399986848,219.32208399986848,219.68878219998442,219.68878219998442,219.68878219998442,219.68878219998442,219.68878219998442,219.68878219998442,219.68878219998442,219.68878219998442,219.68878219998442,20,3,"[0.134042700054124, 0.2009952999651432, 0.30091680004261434]","[0.15084749995730817, 0.21752499998547137, 0.3176377001218498]",219.68878219998442,219.88919569994323,0.0,219.88919569994323,0,0.0,0,1,1000,num_1,0.5010645999573171,,31,15,2026-03-12_14h36.51.088,2026A_exp2,2022.2.4,59.942982247734584,
1,0,0.0,6.1,1,0,71,71,5,,,,,220.4086696000304,221.06385400006548,221.06385400006548,221.55796330003068,45,315,221.55796330003068,221.55796330003068,221.55796330003068,221.55796330003068,221.55796330003068,221.55796330003068,221.55796330003068,221.55796330003068,221.55796330003068,221.92432489991188,221.92432489991188,221.92432489991188,221.92432489991188,221.92432489991188,221.92432489991188,221.92432489991188,221.92432489991188,221.92432489991188,9,5,"[0.0012354999780654907, 0.11683220020495355, 0.20029160007834435, 0.26675710012204945, 0.3503001001663506]","[0.0501951000187546, 0.16693569999188185, 0.23333560000173748, 0.33366480004042387, 0.3670846000313759]",221.92432489991188,222.12453419994563,6.1,222.12453419994563,1,6.1,1,1,1000,num_4,0.6647431999444962,,31,15,2026-03-12_14h36.51.088,2026A_exp2,2022.2.4,59.942982247734584,
1000,1,6.1,0.0,0,0,72,72,21,,,,,222.80853200005367,223.45947270002216,223.45947270002216,223.9437684000004,45,315,223.9437684000004,223.9437684000004,223.9437684000004,223.9437684000004,223.9437684000004,223.9437684000004,223.9437684000004,223.9437684000004,223.9437684000004,224.31019230000675,224.31019230000675,224.31019230000675,224.31019230000675,224.31019230000675,224.31019230000675,224.31019230000675,224.31019230000675,224.31019230000675,0,1,[0.001200099941343069],[0.36716339993290603],224.31019230000675,224.5104201999493,1000,224.5104201999493,1000,1000,1000,1000,0,num_3,0.6463311999104917,,31,15,2026-03-12_14h36.51.088,2026A_exp2,2022.2.4,59.942982247734584,
1,0,0.0,3.7,1,0,73,73,30,,,,,225.17761359992437,225.8282902999781,225.8282902999781,226.32965229987167,45,315,226.32965229987167,226.32965229987167,226.32965229987167,226.32965229987167,226.32965229987167,226.32965229987167,226.32965229987167,226.32965229987167,226.32965229987167,226.69579879986122,226.69579879986122,226.69579879986122,226.69579879986122,226.69579879986122,226.69579879986122,226.69579879986122,226.69579879986122,226.69579879986122,0,1,[0.001242100028321147],[0.3671281000133604],226.69579879986122,226.8960400999058,3.7,226.8960400999058,0,3.7,1,0,1000,num_1,1.0533151999115944,,31,15,2026-03-12_14h36.51.088,2026A_exp2,2022.2.4,59.942982247734584,
1000,1,4.9,0.0,1,0,74,74,84,,,,,227.9803512999788,228.63112289994024,228.63112289994024,229.11548650008626,45,45,229.11548650008626,229.11548650008626,229.11548650008626,229.11548650008626,229.11548650008626,229.11548650008626,229.11548650008626,229.11548650008626,229.11548650008626,229.48184660007246,229.48184660007246,229.48184660007246,229.48184660007246,229.48184660007246,229.48184660007246,229.48184660007246,229.48184660007246,229.48184660007246,4,1,[0.05022330000065267],[0.3669743000064045],229.48184660007246,229.68212589994073,1000,229.68212589994073,1000,1000,1000,1000,0,num_3,0.6108027000445873,,31,15,2026-03-12_14h36.51.088,2026A_exp2,2022.2.4,59.942982247734584,
1000,1,0.0,3.7,1,0,75,75,82,,,,,230.3159574000165,230.96669039991684,230.96669039991684,231.45124309998937,315,315,231.45124309998937,231.45124309998937,231.45124309998937,231.45124309998937,231.45124309998937,231.45124309998937,231.45124309998937,231.45124309998937,231.45124309998937,231.81768059986643,231.81768059986643,231.81768059986643,231.81768059986643,231.81768059986643,231.81768059986643,231.81768059986643,231.81768059986643,231.81768059986643,0,1,[0.0012550000101327896],[0.36689910013228655],231.81768059986643,232.0197725999169,1000,232.0197725999169,1000,1000,1000,1000,1,num_2,0.5541865001432598,,31,15,2026-03-12_14h36.51.088,2026A_exp2,2022.2.4,59.942982247734584,
1000,1,0.0,4.9,0,0,76,76,23,,,,,232.6016500000842,233.2524534999393,233.2524534999393,233.7535697000567,315,315,233.7535697000567,233.7535697000567,233.7535697000567,233.7535697000567,233.7535697000567,233.7535697000567,233.7535697000567,233.7535697000567,233.7535697000567,234.1198851999361,234.1198851999361,234.1198851999361,234.1198851999361,234.1198851999361,234.1198851999361,234.1198851999361,234.1198851999361,234.1198851999361,0,1,[0.0013176000211387873],[0.3670923998579383],234.1198851999361,234.32205439987592,1000,234.32205439987592,1000,1000,1000,1000,1,num_2,0.4748511998914182,,31,15,2026-03-12_14h36.51.088,2026A_exp2,2022.2.4,59.942982247734584,
1000,1,0.0,4.9,1,0,77,77,72,,,,,234.82068310002796,235.47119509987533,235.47119509987533,235.9723616000265,315,315,235.9723616000265,235.9723616000265,235.9723616000265,235.9723616000265,235.9723616000265,235.9723616000265,235.9723616000265,235.9723616000265,235.9723616000265,236.32219980005175,236.32219980005175,236.32219980005175,236.32219980005175,236.32219980005175,236.32219980005175,236.32219980005175,236.32219980005175,236.32219980005175,1,2,"[0.0013071999419480562, 0.03368539991788566]","[0.01744839991442859, 0.35075470013543963]",236.32219980005175,236.52473299996927,1000,236.53914069989696,1000,1000,1000,1000,1,num_2,0.45058080018498003,,31,15,2026-03-12_14h36.51.088,2026A_exp2,2022.2.4,59.942982247734584,
1,0,3.7,0.0,0,0,78,78,7,,,,,237.0060388999991,237.65653700008988,237.65653700008988,238.141030699946,315,45,238.141030699946,238.141030699946,238.141030699946,238.141030699946,238.141030699946,238.141030699946,238.141030699946,238.141030699946,238.141030699946,238.50845439988188,238.50845439988188,238.50845439988188,238.50845439988188,238.50845439988188,238.50845439988188,238.50845439988188,238.50845439988188,238.50845439988188,0,1,[0.0007342000026255846],[0.3672065001446754],238.50845439988188,238.7091139999684,3.7,238.7091139999684,1,3.7,1,1,1000,num_4,0.7204172001220286,,31,15,2026-03-12_14h36.51.088,2026A_exp2,2022.2.4,59.942982247734584,
1000,1,0.0,3.7,1,0,79,79,1,,,,,239.46013400005177,240.09261150006205,240.09261150006205,240.59517730004154,315,45,240.59517730004154,240.59517730004154,240.59517730004154,240.59517730004154,240.59517730004154,240.59517730004154,240.59517730004154,240.59517730004154,240.59517730004154,240.96025269990787,240.96025269990787,240.96025269990787,240.96025269990787,240.96025269990787,240.96025269990787,240.96025269990787,240.96025269990787,240.96025269990787,0,1,[0.0011161998845636845],[0.36711360001936555],240.96025269990787,241.16049019992352,1000,241.16049019992352,1000,1000,1000,1000,1,num_2,0.5721870001871139,,31,15,2026-03-12_14h36.51.088,2026A_exp2,2022.2.4,59.942982247734584,
1,0,3.7,0.0,0,0,80,80,3,,,,,241.76100809988566,242.41122890007682,242.41122890007682,242.91233489988372,315,45,242.91233489988372,242.91233489988372,242.91233489988372,242.91233489988372,242.91233489988372,242.91233489988372,242.91233489988372,242.91233489988372,242.91233489988372,243.26209530001506,243.26209530001506,243.26209530001506,243.26209530001506,243.26209530001506,243.26209530001506,243.26209530001506,243.26209530001506,243.26209530001506,2,2,"[0.0007198001258075237, 0.3181191000621766]","[0.30051880003884435, 0.35058300010859966]",243.26209530001506,243.4625423999969,3.7,243.4625423999969,0,3.7,1,0,1000,num_1,0.9026413999963552,,31,15,2026-03-12_14h36.51.088,2026A_exp2,2022.2.4,59.942982247734584,
1,0,4.9,4.9,1,0,81,81,18,,,,,244.3968366999179,245.0474326000549,245.0474326000549,245.53185499995016,315,45,245.53185499995016,245.53185499995016,245.53185499995016,245.53185499995016,245.53185499995016,245.53185499995016,245.53185499995016,245.53185499995016,245.53185499995016,245.89836229989305,245.89836229989305,245.89836229989305,245.89836229989305,245.89836229989305,245.89836229989305,245.89836229989305,245.89836229989305,245.89836229989305,0,1,[0.0012000000569969416],[0.36723900004290044],245.89836229989305,246.09850189997815,4.9,246.09850189997815,1,4.9,1,1,1000,num_4,0.5704725000541657,,31,15,2026-03-12_14h36.51.088,2026A_exp2,2022.2.4,59.942982247734584,
1000,1,0.0,0.0,1,0,82,82,44,,,,,246.69906049990095,247.349844600074,247.349844600074,247.83420550008304,45,315,247.83420550008304,247.83420550008304,247.83420550008304,247.83420550008304,247.83420550008304,247.83420550008304,247.83420550008304,247.83420550008304,247.83420550008304,248.2005715998821,248.2005715998821,248.2005715998821,248.2005715998821,248.2005715998821,248.2005715998821,248.2005715998821,248.2005715998821,248.2005715998821,0,1,[0.0011142999865114689],[0.36742749996483326],248.2005715998821,248.40249409992248,1000,248.40249409992248,1000,1000,1000,1000,0,num_3,0.6591086001135409,,31,15,2026-03-12_14h36.51.088,2026A_exp2,2022.2.4,59.942982247734584,
1000,1,6.1,4.9,1,0,83,83,15,,,,,249.08483069995418,249.73549959994853,249.73549959994853,250.236598999938,45,315,250.236598999938,250.236598999938,250.236598999938,250.236598999938,250.236598999938,250.236598999938,250.236598999938,250.236598999938,250.236598999938,250.58641780004837,250.58641780004837,250.58641780004837,250.58641780004837,250.58641780004837,250.58641780004837,250.58641780004837,250.58641780004837,250.58641780004837,0,1,[0.001205699983984232],[0.3507093000225723],250.58641780004837,250.78864919999614,1000,250.78864919999614,1000,1000,1000,1000,0,num_3,0.6240721000358462,,31,15,2026-03-12_14h36.51.088,2026A_exp2,2022.2.4,59.942982247734584,
1000,1,0.0,0.0,1,0,84,84,88,,,,,251.4370124998968,252.08795389998704,252.08795389998704,252.58906869986095,315,315,252.58906869986095,252.58906869986095,252.58906869986095,252.58906869986095,252.58906869986095,252.58906869986095,252.58906869986095,252.58906869986095,252.58906869986095,252.93879040004686,252.93879040004686,252.93879040004686,252.93879040004686,252.93879040004686,252.93879040004686,252.93879040004686,252.93879040004686,252.93879040004686,0,1,[0.0012374999932944775],[0.35059319995343685],252.93879040004686,253.14075520006008,1000,253.14075520006008,1000,1000,1000,1000,1,num_2,0.9213485000655055,,31,15,2026-03-12_14h36.51.088,2026A_exp2,2022.2.4,59.942982247734584,
0,0,0.0,0.0,1,0,85,85,80,,,,,254.08981069992296,254.7405723000411,254.7405723000411,255.24179610004649,315,45,255.24179610004649,255.24179610004649,255.24179610004649,255.24179610004649,255.24179610004649,255.24179610004649,255.24179610004649,255.24179610004649,255.24179610004649,255.6080449000001,255.6080449000001,255.6080449000001,255.6080449000001,255.6080449000001,255.6080449000001,255.6080449000001,255.6080449000001,255.6080449000001,5,3,"[0.0012423000298440456, 0.21685600001364946, 0.26710339984856546]","[0.2002693999093026, 0.25032679992727935, 0.3336428999900818]",255.6080449000001,255.80836619995534,0.0,255.80836619995534,0,0.0,0,1,1000,num_1,0.8455940999556333,,31,15,2026-03-12_14h36.51.088,2026A_exp2,2022.2.4,59.942982247734584,
1000,1,4.9,0.0,0,0,86,86,37,,,,,256.67563599999994,257.3266085998621,257.3266085998621,257.8109353999607,315,45,257.8109353999607,257.8109353999607,257.8109353999607,257.8109353999607,257.8109353999607,257.8109353999607,257.8109353999607,257.8109353999607,257.8109353999607,258.177316499874,258.177316499874,258.177316499874,258.177316499874,258.177316499874,258.177316499874,258.177316499874,258.177316499874,258.177316499874,0,1,[0.001228200038895011],[0.3672055001370609],258.177316499874,258.37967759999447,1000,258.37967759999447,1000,1000,1000,1000,0,num_3,0.545592000009492,,31,15,2026-03-12_14h36.51.088,2026A_exp2,2022.2.4,59.942982247734584,
1000,1,6.1,6.1,0,0,87,87,87,,,,,258.94466269994155,259.59551490005106,259.59551490005106,260.09650900005363,45,315,260.09650900005363,260.09650900005363,260.09650900005363,260.09650900005363,260.09650900005363,260.09650900005363,260.09650900005363,260.09650900005363,260.09650900005363,260.4630865000654,260.4630865000654,260.4630865000654,260.4630865000654,260.4630865000654,260.4630865000654,260.4630865000654,260.4630865000654,260.4630865000654,0,1,[0.0008515999652445316],[0.36752680013887584],260.4630865000654,260.663976599928,1000,260.663976599928,1000,1000,1000,1000,0,num_3,0.5969924000091851,,31,15,2026-03-12_14h36.51.088,2026A_exp2,2022.2.4,59.942982247734584,
1,0,6.1,3.7,1,0,88,88,83,,,,,261.28030340000987,261.9307309000287,261.9307309000287,262.4476178998593,45,315,262.4476178998593,262.4476178998593,262.4476178998593,262.4476178998593,262.4476178998593,262.4476178998593,262.4476178998593,262.4476178998593,262.4476178998593,262.7985761000309,262.7985761000309,262.7985761000309,262.7985761000309,262.7985761000309,262.7985761000309,262.7985761000309,262.7985761000309,262.7985761000309,0,1,[0.004276900086551905],[0.3638478999491781],262.7985761000309,263.004847999895,3.7,263.004847999895,1,3.7,1,1,1000,num_4,0.8648876000661403,,31,15,2026-03-12_14h36.51.088,2026A_exp2,2022.2.4,59.942982247734584,
1000,1,0.0,0.0,0,0,89,89,2,,,,,263.89955480000935,264.55438799993135,264.55438799993135,265.0515183999669,315,45,265.0515183999669,265.0515183999669,265.0515183999669,265.0515183999669,265.0515183999669,265.0515183999669,265.0515183999669,265.0515183999669,265.0515183999669,265.41784940008074,265.41784940008074,265.41784940008074,265.41784940008074,265.41784940008074,265.41784940008074,265.41784940008074,265.41784940008074,265.41784940008074,0,1,[0.0011354999151080847],[0.36723929992876947],265.41784940008074,265.61996839987114,1000,265.61996839987114,1000,1000,1000,1000,0,num_3,0.9775300000328571,,31,15,2026-03-12_14h36.51.088,2026A_exp2,2022.2.4,59.942982247734584,
,,,,,,,,,,,,,,,,,,,,,,,,,,,,,,,,,,,,,,,,,,,,,,,,,,,,266.62766369991004,,,,,,,
