validity,detectorcomp,contrastCW,contrastCCW,precueCWorCCW,block_80trials.thisRepN,block_80trials.thisTrialN,block_80trials.thisN,block_80trials.thisIndex,etRecord.started,etRecord.stopped,text.started,text.stopped,text_4.started,text_4.stopped,text_6.started,text_6.stopped,oriCW,oriCCW,roi_2.started,grating_UR.started,grating_UL.started,grating_LR.started,grating_LL.started,noise_UR.started,noise_UL.started,noise_LR.started,noise_LL.started,roi_2.stopped,grating_UR.stopped,grating_UL.stopped,grating_LR.stopped,grating_LL.stopped,noise_UR.stopped,noise_UL.stopped,noise_LR.stopped,noise_LL.stopped,outframe,roi_2.numLooks,roi_2.timesOn,roi_2.timesOff,text_2.started,text_2.stopped,probedcontrast,key_resp.started,respdetect,relevantContrast,correctDetect,TorFdetect,respCWorCCW,key_resp.keys,key_resp.rt,feedback_display_.started,participantNo,blockNo,date,expName,psychopyVersion,frameRate,
0,0,4.9,0.0,1,0,0,0,26,3.17999511025846e-05,3.17999511025846e-05,47.51207769999746,49.51445129996864,49.51445129996864,50.148372899973765,50.148372899973765,50.671533999964595,45,315,50.671533999964595,50.671533999964595,50.671533999964595,50.671533999964595,50.671533999964595,50.671533999964595,50.671533999964595,50.671533999964595,50.671533999964595,51.015844899986405,51.015844899986405,51.015844899986405,51.015844899986405,51.015844899986405,51.015844899986405,51.015844899986405,51.015844899986405,51.015844899986405,0,1,[0.001276399998459965],[0.3668250000337139],51.015844899986405,51.216607699985616,4.9,51.216607699985616,1,4.9,1,1,1000,num_4,0.7999436000245623,,24,15,2026-03-04_16h30.04.221,2026A_exp2,2022.2.4,59.94661154599595,
1,0,3.7,3.7,0,0,1,1,8,,,,,52.033553699962795,52.68406119995052,52.68406119995052,53.16903479996836,45,45,53.16903479996836,53.16903479996836,53.16903479996836,53.16903479996836,53.16903479996836,53.16903479996836,53.16903479996836,53.16903479996836,53.16903479996836,53.53504469996551,53.53504469996551,53.53504469996551,53.53504469996551,53.53504469996551,53.53504469996551,53.53504469996551,53.53504469996551,53.53504469996551,0,1,[0.0007814999553374946],[0.36641299998154864],53.53504469996551,53.735161799995694,3.7,53.735161799995694,1,3.7,1,1,1000,num_4,0.801379700016696,,24,15,2026-03-04_16h30.04.221,2026A_exp2,2022.2.4,59.94661154599595,
0,0,0.0,4.9,1,0,2,2,33,,,,,54.55266479996499,55.204025299986824,55.204025299986824,55.68825690000085,45,45,55.68825690000085,55.68825690000085,55.68825690000085,55.68825690000085,55.68825690000085,55.68825690000085,55.68825690000085,55.68825690000085,55.68825690000085,56.054255399969406,56.054255399969406,56.054255399969406,56.054255399969406,56.054255399969406,56.054255399969406,56.054255399969406,56.054255399969406,56.054255399969406,0,1,[0.0008743999642319977],[0.3668257999815978],56.054255399969406,56.255195099976845,0.0,56.255195099976845,0,0.0,0,1,1000,num_1,0.8567538000061177,,24,15,2026-03-04_16h30.04.221,2026A_exp2,2022.2.4,59.94661154599595,
1,0,0.0,0.0,1,0,3,3,59,,,,,57.138848899980076,57.78926629998023,57.78926629998023,58.27421019994654,45,45,58.27421019994654,58.27421019994654,58.27421019994654,58.27421019994654,58.27421019994654,58.27421019994654,58.27421019994654,58.27421019994654,58.27421019994654,58.64010419999249,58.64010419999249,58.64010419999249,58.64010419999249,58.64010419999249,58.64010419999249,58.64010419999249,58.64010419999249,58.64010419999249,0,1,[0.0009418000117875636],[0.3663207000354305],58.64010419999249,58.84066200000234,0.0,58.84066200000234,0,0.0,0,1,1000,num_1,0.9198369999649003,,24,15,2026-03-04_16h30.04.221,2026A_exp2,2022.2.4,59.94661154599595,
0,0,4.9,6.1,1,0,4,4,70,,,,,59.7914124999661,60.4252642999636,60.4252642999636,60.926770799967926,45,45,60.926770799967926,60.926770799967926,60.926770799967926,60.926770799967926,60.926770799967926,60.926770799967926,60.926770799967926,60.926770799967926,60.926770799967926,61.29287399997702,61.29287399997702,61.29287399997702,61.29287399997702,61.29287399997702,61.29287399997702,61.29287399997702,61.29287399997702,61.29287399997702,0,1,[0.0009055000264197588],[0.3672664000187069],61.29287399997702,61.493071699980646,4.9,61.493071699980646,1,4.9,1,1,1000,num_4,0.7953811000334099,,24,15,2026-03-04_16h30.04.221,2026A_exp2,2022.2.4,59.94661154599595,
1000,1,0.0,0.0,0,0,5,5,24,,,,,62.310555599979125,62.94440989999566,62.94440989999566,63.44623829994816,315,45,63.44623829994816,63.44623829994816,63.44623829994816,63.44623829994816,63.44623829994816,63.44623829994816,63.44623829994816,63.44623829994816,63.44623829994816,63.81208359997254,63.81208359997254,63.81208359997254,63.81208359997254,63.81208359997254,63.81208359997254,63.81208359997254,63.81208359997254,63.81208359997254,0,1,[0.0008182000019587576],[0.3664654000313021],63.81208359997254,64.01229299994884,1000,64.01229299994884,1000,1000,1000,1000,1,num_2,0.9797750000143424,,24,15,2026-03-04_16h30.04.221,2026A_exp2,2022.2.4,59.94661154599595,
1000,1,0.0,6.1,0,0,6,6,27,,,,,65.01327850000234,65.66390369995497,65.66390369995497,66.14858059998369,315,315,66.14858059998369,66.14858059998369,66.14858059998369,66.14858059998369,66.14858059998369,66.14858059998369,66.14858059998369,66.14858059998369,66.14858059998369,66.51472349994583,66.51472349994583,66.51472349994583,66.51472349994583,66.51472349994583,66.51472349994583,66.51472349994583,66.51472349994583,66.51472349994583,0,1,[0.0007814000127837062],[0.3672843999811448],66.51472349994583,66.71503449999727,1000,66.71503449999727,1000,1000,1000,1000,1,num_2,0.5656891000107862,,24,15,2026-03-04_16h30.04.221,2026A_exp2,2022.2.4,59.94661154599595,
0,0,3.7,3.7,1,0,7,7,62,,,,,67.29889629996615,67.94955369998934,67.94955369998934,68.43445669999346,45,315,68.43445669999346,68.43445669999346,68.43445669999346,68.43445669999346,68.43445669999346,68.43445669999346,68.43445669999346,68.43445669999346,68.43445669999346,68.80031289998442,68.80031289998442,68.80031289998442,68.80031289998442,68.80031289998442,68.80031289998442,68.80031289998442,68.80031289998442,68.80031289998442,0,1,[0.0007655000081285834],[0.3670770000317134],68.80031289998442,69.00074419996236,3.7,69.00074419996236,1,3.7,1,1,1000,num_4,0.7592831999645568,,24,15,2026-03-04_16h30.04.221,2026A_exp2,2022.2.4,59.94661154599595,
1000,1,0.0,0.0,0,0,8,8,2,,,,,69.78513859998202,70.43541330000153,70.43541330000153,70.92008529999293,45,315,70.92008529999293,70.92008529999293,70.92008529999293,70.92008529999293,70.92008529999293,70.92008529999293,70.92008529999293,70.92008529999293,70.92008529999293,71.28658629994607,71.28658629994607,71.28658629994607,71.28658629994607,71.28658629994607,71.28658629994607,71.28658629994607,71.28658629994607,71.28658629994607,0,1,[0.0007404000498354435],[0.367462600057479],71.28658629994607,71.48655619996134,1000,71.48655619996134,1000,1000,1000,1000,1,num_2,0.6501150999683887,,24,15,2026-03-04_16h30.04.221,2026A_exp2,2022.2.4,59.94661154599595,
1,0,3.7,0.0,0,0,9,9,9,,,,,72.15386369999032,72.804643499956,72.804643499956,73.28905039996607,45,315,73.28905039996607,73.28905039996607,73.28905039996607,73.28905039996607,73.28905039996607,73.28905039996607,73.28905039996607,73.28905039996607,73.28905039996607,73.65540089999558,73.65540089999558,73.65540089999558,73.65540089999558,73.65540089999558,73.65540089999558,73.65540089999558,73.65540089999558,73.65540089999558,0,1,[0.0009083999902941287],[0.3670105999917723],73.65540089999558,73.85543739999412,3.7,73.85543739999412,1,3.7,1,1,1000,num_4,0.7288553999969736,,24,15,2026-03-04_16h30.04.221,2026A_exp2,2022.2.4,59.94661154599595,
1,0,0.0,0.0,0,0,10,10,61,,,,,74.60617449996062,75.24025089998031,75.24025089998031,75.741452199989,45,45,75.741452199989,75.741452199989,75.741452199989,75.741452199989,75.741452199989,75.741452199989,75.741452199989,75.741452199989,75.741452199989,76.10768469999311,76.10768469999311,76.10768469999311,76.10768469999311,76.10768469999311,76.10768469999311,76.10768469999311,76.10768469999311,76.10768469999311,0,1,[0.0008000999805517495],[0.36765400000149384],76.10768469999311,76.30780269997194,0.0,76.30780269997194,0,0.0,0,1,1000,num_1,0.7565637000370771,,24,15,2026-03-04_16h30.04.221,2026A_exp2,2022.2.4,59.94661154599595,
1000,1,3.7,4.9,0,0,11,11,25,,,,,77.0922405999736,77.72595799999544,77.72595799999544,78.22706579999067,45,315,78.22706579999067,78.22706579999067,78.22706579999067,78.22706579999067,78.22706579999067,78.22706579999067,78.22706579999067,78.22706579999067,78.22706579999067,78.59353039995767,78.59353039995767,78.59353039995767,78.59353039995767,78.59353039995767,78.59353039995767,78.59353039995767,78.59353039995767,78.59353039995767,0,1,[0.0007193000055849552],[0.3674660999677144],78.59353039995767,78.79387090000091,1000,78.79387090000091,1000,1000,1000,1000,0,num_3,0.7104552999953739,,24,15,2026-03-04_16h30.04.221,2026A_exp2,2022.2.4,59.94661154599595,
1,0,0.0,6.1,1,0,12,12,5,,,,,79.52778919995762,80.1618578999769,80.1618578999769,80.66274149995297,315,315,80.66274149995297,80.66274149995297,80.66274149995297,80.66274149995297,80.66274149995297,80.66274149995297,80.66274149995297,80.66274149995297,80.66274149995297,81.02920170000289,81.02920170000289,81.02920170000289,81.02920170000289,81.02920170000289,81.02920170000289,81.02920170000289,81.02920170000289,81.02920170000289,1,2,"[0.0007573000038973987, 0.03349709999747574]","[0.017433500033803284, 0.36721330002183095]",81.02920170000289,81.22967849997804,6.1,81.22967849997804,1,6.1,1,1,1000,num_4,0.7550551000167616,,24,15,2026-03-04_16h30.04.221,2026A_exp2,2022.2.4,59.94661154599595,
1,0,3.7,0.0,0,0,13,13,3,,,,,82.01357219996862,82.64774519996718,82.64774519996718,83.14855739998166,45,315,83.14855739998166,83.14855739998166,83.14855739998166,83.14855739998166,83.14855739998166,83.14855739998166,83.14855739998166,83.14855739998166,83.14855739998166,83.51509099995019,83.51509099995019,83.51509099995019,83.51509099995019,83.51509099995019,83.51509099995019,83.51509099995019,83.51509099995019,83.51509099995019,0,1,[0.0007230999763123691],[0.367614799994044],83.51509099995019,83.71530069998698,3.7,83.71530069998698,1,3.7,1,1,1000,num_4,0.7649150000070222,,24,15,2026-03-04_16h30.04.221,2026A_exp2,2022.2.4,59.94661154599595,
0,0,6.1,4.9,1,0,14,14,42,,,,,84.49956129997736,85.15043689997401,85.15043689997401,85.65126379998401,315,45,85.65126379998401,85.65126379998401,85.65126379998401,85.65126379998401,85.65126379998401,85.65126379998401,85.65126379998401,85.65126379998401,85.65126379998401,86.017863999994,86.017863999994,86.017863999994,86.017863999994,86.017863999994,86.017863999994,86.017863999994,86.017863999994,86.017863999994,0,1,[0.001727700000628829],[0.3665767999482341],86.017863999994,86.21796249999898,6.1,86.21796249999898,1,6.1,1,1,1000,num_4,0.7428826999966986,,24,15,2026-03-04_16h30.04.221,2026A_exp2,2022.2.4,59.94661154599595,
1,0,0.0,3.7,0,0,15,15,76,,,,,86.98541179997846,87.63628699997207,87.63628699997207,88.12032989994623,45,45,88.12032989994623,88.12032989994623,88.12032989994623,88.12032989994623,88.12032989994623,88.12032989994623,88.12032989994623,88.12032989994623,88.12032989994623,88.48706129996572,88.48706129996572,88.48706129996572,88.48706129996572,88.48706129996572,88.48706129996572,88.48706129996572,88.48706129996572,88.48706129996572,0,1,[0.0012728999718092382],[0.3673150999820791],88.48706129996572,88.68708969996078,0.0,88.68708969996078,0,0.0,0,1,1000,num_1,0.8582528000115417,,24,15,2026-03-04_16h30.04.221,2026A_exp2,2022.2.4,59.94661154599595,
1000,1,4.9,0.0,1,0,16,16,84,,,,,89.57134929997846,90.22194269997999,90.22194269997999,90.70658089994686,45,315,90.70658089994686,90.70658089994686,90.70658089994686,90.70658089994686,90.70658089994686,90.70658089994686,90.70658089994686,90.70658089994686,90.70658089994686,91.07272369996645,91.07272369996645,91.07272369996645,91.07272369996645,91.07272369996645,91.07272369996645,91.07272369996645,91.07272369996645,91.07272369996645,0,1,[0.0012087999493815005],[0.3670664999517612],91.07272369996645,91.27281039999798,1000,91.27281039999798,1000,1000,1000,1000,0,num_3,0.7514945999719203,,24,15,2026-03-04_16h30.04.221,2026A_exp2,2022.2.4,59.94661154599595,
1000,1,0.0,3.7,1,0,17,17,67,,,,,92.04047709994484,92.69116439996287,92.69116439996287,93.19243339996319,315,315,93.19243339996319,93.19243339996319,93.19243339996319,93.19243339996319,93.19243339996319,93.19243339996319,93.19243339996319,93.19243339996319,93.19243339996319,93.55874139996013,93.55874139996013,93.55874139996013,93.55874139996013,93.55874139996013,93.55874139996013,93.55874139996013,93.55874139996013,93.55874139996013,0,1,[0.0009498000144958496],[0.3674355000257492],93.55874139996013,93.76108699996257,1000,93.76108699996257,1000,1000,1000,1000,0,num_3,1.0562554000061937,,24,15,2026-03-04_16h30.04.221,2026A_exp2,2022.2.4,59.94661154599595,
1000,1,4.9,3.7,0,0,18,18,40,,,,,94.8433243999607,95.49393060000148,95.49393060000148,95.99508509994484,45,315,95.99508509994484,95.99508509994484,95.99508509994484,95.99508509994484,95.99508509994484,95.99508509994484,95.99508509994484,95.99508509994484,95.99508509994484,96.34495169995353,96.34495169995353,96.34495169995353,96.34495169995353,96.34495169995353,96.34495169995353,96.34495169995353,96.34495169995353,96.34495169995353,0,1,[0.0012544000055640936],[0.3503781000035815],96.34495169995353,96.54511619999539,1000,96.54511619999539,1000,1000,1000,1000,0,num_3,0.5988552999915555,,24,15,2026-03-04_16h30.04.221,2026A_exp2,2022.2.4,59.94661154599595,
1,0,6.1,3.7,1,0,19,19,83,,,,,97.16218249994563,97.8129048999981,97.8129048999981,98.31391689996235,45,45,98.31391689996235,98.31391689996235,98.31391689996235,98.31391689996235,98.31391689996235,98.31391689996235,98.31391689996235,98.31391689996235,98.31391689996235,98.68048419995466,98.68048419995466,98.68048419995466,98.68048419995466,98.68048419995466,98.68048419995466,98.68048419995466,98.68048419995466,98.68048419995466,0,1,[0.0007806000066921115],[0.3674347000196576],98.68048419995466,98.88068099995144,3.7,98.88068099995144,1,3.7,1,1,1000,num_4,0.7273584000067785,,24,15,2026-03-04_16h30.04.221,2026A_exp2,2022.2.4,59.94661154599595,
1,0,4.9,6.1,0,0,20,20,29,,,,,99.63136790000135,100.28210809995653,100.28210809995653,100.76667479996104,315,315,100.76667479996104,100.76667479996104,100.76667479996104,100.76667479996104,100.76667479996104,100.76667479996104,100.76667479996104,100.76667479996104,100.76667479996104,101.1330305999727,101.1330305999727,101.1330305999727,101.1330305999727,101.1330305999727,101.1330305999727,101.1330305999727,101.1330305999727,101.1330305999727,0,1,[0.0012388000031933188],[0.3673390000476502],101.1330305999727,101.33326409995789,4.9,101.33326409995789,1,4.9,1,1,1000,num_4,1.0278175999992527,,24,15,2026-03-04_16h30.04.221,2026A_exp2,2022.2.4,59.94661154599595,
1000,1,3.7,3.7,1,0,21,21,54,,,,,102.38410229998408,103.03493549994892,103.03493549994892,103.51935560000129,45,45,103.51935560000129,103.51935560000129,103.51935560000129,103.51935560000129,103.51935560000129,103.51935560000129,103.51935560000129,103.51935560000129,103.51935560000129,103.88576839998132,103.88576839998132,103.88576839998132,103.88576839998132,103.88576839998132,103.88576839998132,103.88576839998132,103.88576839998132,103.88576839998132,0,1,[0.0012109000235795975],[0.3671854000422172],103.88576839998132,104.0876525999629,1000,104.0876525999629,1000,1000,1000,1000,1,num_2,0.9123428000020795,,24,15,2026-03-04_16h30.04.221,2026A_exp2,2022.2.4,59.94661154599595,
1000,1,3.7,0.0,0,0,22,22,81,,,,,105.02011409995612,105.6709427999449,105.6709427999449,106.17183299997123,45,45,106.17183299997123,106.17183299997123,106.17183299997123,106.17183299997123,106.17183299997123,106.17183299997123,106.17183299997123,106.17183299997123,106.17183299997123,106.53837929997826,106.53837929997826,106.53837929997826,106.53837929997826,106.53837929997826,106.53837929997826,106.53837929997826,106.53837929997826,106.53837929997826,0,1,[0.0012092000106349587],[0.3672339000040665],106.53837929997826,106.74094449996483,1000,106.74094449996483,1000,1000,1000,1000,0,num_3,0.5235338000347838,,24,15,2026-03-04_16h30.04.221,2026A_exp2,2022.2.4,59.94661154599595,
0,0,0.0,4.9,1,0,23,23,0,,,,,107.28931419999572,107.93971509998664,107.93971509998664,108.44090459996369,45,45,108.44090459996369,108.44090459996369,108.44090459996369,108.44090459996369,108.44090459996369,108.44090459996369,108.44090459996369,108.44090459996369,108.44090459996369,108.80728789995192,108.80728789995192,108.80728789995192,108.80728789995192,108.80728789995192,108.80728789995192,108.80728789995192,108.80728789995192,108.80728789995192,0,1,[0.0007124000112526119],[0.3677923000068404],108.80728789995192,109.00750649999827,0.0,109.00750649999827,0,0.0,0,1,1000,num_1,1.609541000041645,,24,15,2026-03-04_16h30.04.221,2026A_exp2,2022.2.4,59.94661154599595,
1000,1,0.0,3.7,1,0,24,24,1,,,,,110.64234279998345,111.29320789995836,111.29320789995836,111.79431609995663,315,45,111.79431609995663,111.79431609995663,111.79431609995663,111.79431609995663,111.79431609995663,111.79431609995663,111.79431609995663,111.79431609995663,111.79431609995663,112.14394739997806,112.14394739997806,112.14394739997806,112.14394739997806,112.14394739997806,112.14394739997806,112.14394739997806,112.14394739997806,112.14394739997806,0,1,[0.0012639000196941197],[0.350517500017304],112.14394739997806,112.34639379999135,1000,112.34639379999135,1000,1000,1000,1000,1,num_2,0.8301871999865398,,24,15,2026-03-04_16h30.04.221,2026A_exp2,2022.2.4,59.94661154599595,
1,0,0.0,0.0,0,0,25,25,32,,,,,113.19489289994817,113.84568049997324,113.84568049997324,114.3302084999741,45,45,114.3302084999741,114.3302084999741,114.3302084999741,114.3302084999741,114.3302084999741,114.3302084999741,114.3302084999741,114.3302084999741,114.3302084999741,114.69646479998482,114.69646479998482,114.69646479998482,114.69646479998482,114.69646479998482,114.69646479998482,114.69646479998482,114.69646479998482,114.69646479998482,0,1,[0.0012005000025965273],[0.3673228000407107],114.69646479998482,114.89675469999202,0.0,114.89675469999202,0,0.0,0,1,1000,num_1,1.4319381000241265,,24,15,2026-03-04_16h30.04.221,2026A_exp2,2022.2.4,59.94661154599595,
0,0,0.0,6.1,1,0,26,26,46,,,,,116.3480781999533,116.99862489994848,116.99862489994848,117.48327379999682,315,315,117.48327379999682,117.48327379999682,117.48327379999682,117.48327379999682,117.48327379999682,117.48327379999682,117.48327379999682,117.48327379999682,117.48327379999682,117.8497195999953,117.8497195999953,117.8497195999953,117.8497195999953,117.8497195999953,117.8497195999953,117.8497195999953,117.8497195999953,117.8497195999953,22,1,[0.3670225999667309],[0.3670274000032805],117.8497195999953,118.04982259997632,0.0,118.04982259997632,0,0.0,0,1,1000,num_1,1.0222077000071295,,24,15,2026-03-04_16h30.04.221,2026A_exp2,2022.2.4,59.94661154599595,
1,0,4.9,4.9,0,0,27,27,28,,,,,119.10079789999872,119.75158169999486,119.75158169999486,120.23612509999657,45,315,120.23612509999657,120.23612509999657,120.23612509999657,120.23612509999657,120.23612509999657,120.23612509999657,120.23612509999657,120.23612509999657,120.23612509999657,120.60240119998343,120.60240119998343,120.60240119998343,120.60240119998343,120.60240119998343,120.60240119998343,120.60240119998343,120.60240119998343,120.60240119998343,6,5,"[0.001228499982971698, 0.05019350000657141, 0.11689240002306178, 0.23367839999264106, 0.283560200012289]","[0.01749200001358986, 0.08346669998718426, 0.21693160000722855, 0.2503194999881089, 0.3671877000015229]",120.60240119998343,120.80260299996007,4.9,120.80260299996007,1,4.9,1,1,1000,num_4,0.7015079999691807,,24,15,2026-03-04_16h30.04.221,2026A_exp2,2022.2.4,59.94661154599595,
1,0,6.1,0.0,0,0,28,28,77,,,,,121.51995950000128,122.17056749999756,122.17056749999756,122.65502639999613,315,315,122.65502639999613,122.65502639999613,122.65502639999613,122.65502639999613,122.65502639999613,122.65502639999613,122.65502639999613,122.65502639999613,122.65502639999613,123.02156539994758,123.02156539994758,123.02156539994758,123.02156539994758,123.02156539994758,123.02156539994758,123.02156539994758,123.02156539994758,123.02156539994758,0,1,[0.0007468999829143286],[0.3675270999665372],123.02156539994758,123.22164189995965,6.1,123.22164189995965,1,6.1,1,1,1000,num_4,0.5862972000031732,,24,15,2026-03-04_16h30.04.221,2026A_exp2,2022.2.4,59.94661154599595,
1,0,0.0,0.0,0,0,29,29,6,,,,,123.83872329996666,124.48975849995622,124.48975849995622,124.974075599981,315,315,124.974075599981,124.974075599981,124.974075599981,124.974075599981,124.974075599981,124.974075599981,124.974075599981,124.974075599981,124.974075599981,125.34059669997077,125.34059669997077,125.34059669997077,125.34059669997077,125.34059669997077,125.34059669997077,125.34059669997077,125.34059669997077,125.34059669997077,10,4,"[0.03314550005597994, 0.15025460004108027, 0.26722760003758594, 0.31734880001749843]","[0.06679000001167879, 0.23378280003089458, 0.3006547000259161, 0.36718000000109896]",125.34059669997077,125.5407027999754,0.0,125.5407027999754,0,0.0,0,1,1000,num_1,0.716186799982097,,24,15,2026-03-04_16h30.04.221,2026A_exp2,2022.2.4,59.94661154599595,
0,0,0.0,0.0,1,0,30,30,14,,,,,126.27465929999016,126.92542779998621,126.92542779998621,127.42650889995275,45,315,127.42650889995275,127.42650889995275,127.42650889995275,127.42650889995275,127.42650889995275,127.42650889995275,127.42650889995275,127.42650889995275,127.42650889995275,127.77619179995963,127.77619179995963,127.77619179995963,127.77619179995963,127.77619179995963,127.77619179995963,127.77619179995963,127.77619179995963,127.77619179995963,2,3,"[0.0012125999783165753, 0.1502860999898985, 0.18362460000207648]","[0.1335759999928996, 0.16706139995949343, 0.3501575000118464]",127.77619179995963,127.9763875999488,0.0,127.9763875999488,0,0.0,0,1,1000,num_1,1.8484450000105426,,24,15,2026-03-04_16h30.04.221,2026A_exp2,2022.2.4,59.94661154599595,
1000,1,0.0,3.7,0,0,31,31,50,,,,,129.84525039995788,130.49564759997884,130.49564759997884,130.9953335999744,315,45,130.9953335999744,130.9953335999744,130.9953335999744,130.9953335999744,130.9953335999744,130.9953335999744,130.9953335999744,130.9953335999744,130.9953335999744,131.3464647999499,131.3464647999499,131.3464647999499,131.3464647999499,131.3464647999499,131.3464647999499,131.3464647999499,131.3464647999499,131.3464647999499,23,0,,,131.3464647999499,131.54878999997163,1000,131.54878999997163,1000,1000,1000,1000,1,num_2,1.060145499999635,,24,15,2026-03-04_16h30.04.221,2026A_exp2,2022.2.4,59.94661154599595,
1,0,0.0,0.0,0,0,32,32,11,,,,,132.63105099997483,133.28187549998984,133.28187549998984,133.7826320999884,45,45,133.7826320999884,133.7826320999884,133.7826320999884,133.7826320999884,133.7826320999884,133.7826320999884,133.7826320999884,133.7826320999884,133.7826320999884,134.1493618999957,134.1493618999957,134.1493618999957,134.1493618999957,134.1493618999957,134.1493618999957,134.1493618999957,134.1493618999957,134.1493618999957,23,0,,,134.1493618999957,134.34952429996338,0.0,134.34952429996338,0,0.0,0,1,1000,num_1,1.4188129999674857,,24,15,2026-03-04_16h30.04.221,2026A_exp2,2022.2.4,59.94661154599595,
1,0,6.1,3.7,1,0,33,33,16,,,,,135.78420939994976,136.43498199997703,136.43498199997703,136.91947490000166,315,315,136.91947490000166,136.91947490000166,136.91947490000166,136.91947490000166,136.91947490000166,136.91947490000166,136.91947490000166,136.91947490000166,136.91947490000166,137.28578479995485,137.28578479995485,137.28578479995485,137.28578479995485,137.28578479995485,137.28578479995485,137.28578479995485,137.28578479995485,137.28578479995485,0,1,[0.001381699985358864],[0.36735650000628084],137.28578479995485,137.48606539994944,3.7,137.48606539994944,1,3.7,1,1,1000,num_4,1.2828157999902032,,24,15,2026-03-04_16h30.04.221,2026A_exp2,2022.2.4,59.94661154599595,
1,0,3.7,3.7,0,0,34,34,60,,,,,138.78721369995037,139.43789929995546,139.43789929995546,139.9224555999972,45,315,139.9224555999972,139.9224555999972,139.9224555999972,139.9224555999972,139.9224555999972,139.9224555999972,139.9224555999972,139.9224555999972,139.9224555999972,140.28885739995167,140.28885739995167,140.28885739995167,140.28885739995167,140.28885739995167,140.28885739995167,140.28885739995167,140.28885739995167,140.28885739995167,2,2,"[0.001206900051329285, 0.1333263000124134]","[0.10001090000150725, 0.36723640002310276]",140.28885739995167,140.48905699996976,3.7,140.48905699996976,1,3.7,1,1,1000,num_4,0.6555370999849401,,24,15,2026-03-04_16h30.04.221,2026A_exp2,2022.2.4,59.94661154599595,
1000,1,6.1,4.9,1,0,35,35,86,,,,,141.17289089999394,141.82375389995286,141.82375389995286,142.30806549999397,45,315,142.30806549999397,142.30806549999397,142.30806549999397,142.30806549999397,142.30806549999397,142.30806549999397,142.30806549999397,142.30806549999397,142.30806549999397,142.67457459995057,142.67457459995057,142.67457459995057,142.67457459995057,142.67457459995057,142.67457459995057,142.67457459995057,142.67457459995057,142.67457459995057,0,1,[0.0012725999695248902],[0.3671131000155583],142.67457459995057,142.87640129995998,1000,142.87640129995998,1000,1000,1000,1000,0,num_3,1.1646860999753699,,24,15,2026-03-04_16h30.04.221,2026A_exp2,2022.2.4,59.94661154599595,
1000,1,0.0,0.0,1,0,36,36,88,,,,,144.05918579996796,144.70993329997873,144.70993329997873,145.21108199999435,45,315,145.21108199999435,145.21108199999435,145.21108199999435,145.21108199999435,145.21108199999435,145.21108199999435,145.21108199999435,145.21108199999435,145.21108199999435,145.57742789998883,145.57742789998883,145.57742789998883,145.57742789998883,145.57742789998883,145.57742789998883,145.57742789998883,145.57742789998883,145.57742789998883,11,3,"[0.03348179999738932, 0.06677920004585758, 0.23365650000050664]","[0.05012430000351742, 0.21690920001128688, 0.266966900031548]",145.57742789998883,145.77929679997033,1000,145.77929679997033,1000,1000,1000,1000,1,num_2,1.5330660999752581,,24,15,2026-03-04_16h30.04.221,2026A_exp2,2022.2.4,59.94661154599595,
1,0,0.0,3.7,1,0,37,37,30,,,,,147.32909689994995,147.98001229995862,147.98001229995862,148.48084370000288,315,45,148.48084370000288,148.48084370000288,148.48084370000288,148.48084370000288,148.48084370000288,148.48084370000288,148.48084370000288,148.48084370000288,148.48084370000288,148.84729710000101,148.84729710000101,148.84729710000101,148.84729710000101,148.84729710000101,148.84729710000101,148.84729710000101,148.84729710000101,148.84729710000101,22,1,[0.30011920002289116],[0.31693540001288056],148.84729710000101,149.0476318000001,3.7,149.0476318000001,1,3.7,1,1,1000,num_4,0.7285327999852598,,24,15,2026-03-04_16h30.04.221,2026A_exp2,2022.2.4,59.94661154599595,
1000,1,6.1,0.0,0,0,38,38,69,,,,,149.79817449999973,150.44903519999934,150.44903519999934,150.94993649999378,45,315,150.94993649999378,150.94993649999378,150.94993649999378,150.94993649999378,150.94993649999378,150.94993649999378,150.94993649999378,150.94993649999378,150.94993649999378,151.31648989999667,151.31648989999667,151.31648989999667,151.31648989999667,151.31648989999667,151.31648989999667,151.31648989999667,151.31648989999667,151.31648989999667,0,1,[0.001256599964108318],[0.366753600013908],151.31648989999667,151.51849279995076,1000,151.51849279995076,1000,1000,1000,1000,0,num_3,0.6904276999994181,,24,15,2026-03-04_16h30.04.221,2026A_exp2,2022.2.4,59.94661154599595,
1000,1,0.0,3.7,1,0,39,39,82,,,,,152.2339824999799,152.8846726999618,152.8846726999618,153.38589659996796,315,45,153.38589659996796,153.38589659996796,153.38589659996796,153.38589659996796,153.38589659996796,153.38589659996796,153.38589659996796,153.38589659996796,153.38589659996796,153.75229169998784,153.75229169998784,153.75229169998784,153.75229169998784,153.75229169998784,153.75229169998784,153.75229169998784,153.75229169998784,153.75229169998784,19,2,"[0.13348599994787946, 0.26704529998824]","[0.16702979995170608, 0.30042210000101477]",153.75229169998784,153.95475969999097,1000,153.95475969999097,1000,1000,1000,1000,1,num_2,0.7733343999716453,,24,15,2026-03-04_16h30.04.221,2026A_exp2,2022.2.4,59.94661154599595,
1,0,0.0,4.9,1,0,40,40,41,,,,,154.75327200000174,155.40389749995666,155.40389749995666,155.90518349997,315,45,155.90518349997,155.90518349997,155.90518349997,155.90518349997,155.90518349997,155.90518349997,155.90518349997,155.90518349997,155.90518349997,156.271462899982,156.271462899982,156.271462899982,156.271462899982,156.271462899982,156.271462899982,156.271462899982,156.271462899982,156.271462899982,7,1,[0.11706339998636395],[0.3673135999706574],156.271462899982,156.47176970000146,4.9,156.47176970000146,1,4.9,1,1,1000,num_4,0.7050630000303499,,24,15,2026-03-04_16h30.04.221,2026A_exp2,2022.2.4,59.94661154599595,
1,0,0.0,4.9,1,0,41,41,73,,,,,157.20563469995977,157.85635389998788,157.85635389998788,158.34087879996514,45,315,158.34087879996514,158.34087879996514,158.34087879996514,158.34087879996514,158.34087879996514,158.34087879996514,158.34087879996514,158.34087879996514,158.34087879996514,158.70692069997313,158.70692069997313,158.70692069997313,158.70692069997313,158.70692069997313,158.70692069997313,158.70692069997313,158.70692069997313,158.70692069997313,14,1,[0.017367799999192357],[0.16687509999610484],158.70692069997313,158.90738639998017,4.9,158.90738639998017,1,4.9,1,1,1000,num_4,0.8850972999935038,,24,15,2026-03-04_16h30.04.221,2026A_exp2,2022.2.4,59.94661154599595,
1000,1,0.0,4.9,0,0,42,42,23,,,,,159.80822189996252,160.45892659999663,160.45892659999663,160.94349229999352,45,315,160.94349229999352,160.94349229999352,160.94349229999352,160.94349229999352,160.94349229999352,160.94349229999352,160.94349229999352,160.94349229999352,160.94349229999352,161.30988279997837,161.30988279997837,161.30988279997837,161.30988279997837,161.30988279997837,161.30988279997837,161.30988279997837,161.30988279997837,161.30988279997837,0,1,[0.0013013000134378672],[0.3670989000238478],161.30988279997837,161.5100995999528,1000,161.5100995999528,1000,1000,1000,1000,1,num_2,1.6825944999582134,,24,15,2026-03-04_16h30.04.221,2026A_exp2,2022.2.4,59.94661154599595,
1000,1,0.0,4.9,1,0,43,43,72,,,,,163.211832699948,163.86243280000053,163.86243280000053,164.3633166999789,45,315,164.3633166999789,164.3633166999789,164.3633166999789,164.3633166999789,164.3633166999789,164.3633166999789,164.3633166999789,164.3633166999789,164.3633166999789,164.73004059999948,164.73004059999948,164.73004059999948,164.73004059999948,164.73004059999948,164.73004059999948,164.73004059999948,164.73004059999948,164.73004059999948,1,2,"[0.0012332000187598169, 0.30088510003406554]","[0.28408770001260564, 0.36758160003228113]",164.73004059999948,164.93176769994898,1000,164.93176769994898,1000,1000,1000,1000,1,num_2,0.9970979000208899,,24,15,2026-03-04_16h30.04.221,2026A_exp2,2022.2.4,59.94661154599595,
1,0,0.0,0.0,1,0,44,44,66,,,,,165.9476461999584,166.59850429999642,166.59850429999642,167.09950259997277,315,315,167.09950259997277,167.09950259997277,167.09950259997277,167.09950259997277,167.09950259997277,167.09950259997277,167.09950259997277,167.09950259997277,167.09950259997277,167.46602499997243,167.46602499997243,167.46602499997243,167.46602499997243,167.46602499997243,167.46602499997243,167.46602499997243,167.46602499997243,167.46602499997243,8,1,[0.001213400042615831],[0.25051510002231225],167.46602499997243,167.66646179999225,0.0,167.66646179999225,0,0.0,0,1,1000,num_1,1.070488800003659,,24,15,2026-03-04_16h30.04.221,2026A_exp2,2022.2.4,59.94661154599595,
1,0,0.0,0.0,0,0,45,45,22,,,,,168.76740519999294,169.41800619999412,169.41800619999412,169.90229519997956,315,45,169.90229519997956,169.90229519997956,169.90229519997956,169.90229519997956,169.90229519997956,169.90229519997956,169.90229519997956,169.90229519997956,169.90229519997956,170.2688359999447,170.2688359999447,170.2688359999447,170.2688359999447,170.2688359999447,170.2688359999447,170.2688359999447,170.2688359999447,170.2688359999447,23,0,,,170.2688359999447,170.46889389998978,0.0,170.46889389998978,0,0.0,0,1,1000,num_1,1.2596501999651082,,24,15,2026-03-04_16h30.04.221,2026A_exp2,2022.2.4,59.94661154599595,
1,0,0.0,0.0,1,0,46,46,4,,,,,171.7536456999951,172.40430519997608,172.40430519997608,172.8887807999854,315,45,172.8887807999854,172.8887807999854,172.8887807999854,172.8887807999854,172.8887807999854,172.8887807999854,172.8887807999854,172.8887807999854,172.8887807999854,173.25529959995765,173.25529959995765,173.25529959995765,173.25529959995765,173.25529959995765,173.25529959995765,173.25529959995765,173.25529959995765,173.25529959995765,12,3,"[0.11691169999539852, 0.1671794000430964, 0.24974280002061278]","[0.13368490000721067, 0.19973590003792197, 0.36656640004366636]",173.25529959995765,173.4554374999716,0.0,173.4554374999716,0,0.0,0,1,1000,num_1,1.5446042999974452,,24,15,2026-03-04_16h30.04.221,2026A_exp2,2022.2.4,59.94661154599595,
1,0,3.7,6.1,1,0,47,47,75,,,,,175.0234027999686,175.67423730000155,175.67423730000155,176.158705299953,315,315,176.158705299953,176.158705299953,176.158705299953,176.158705299953,176.158705299953,176.158705299953,176.158705299953,176.158705299953,176.158705299953,176.52510089997668,176.52510089997668,176.52510089997668,176.52510089997668,176.52510089997668,176.52510089997668,176.52510089997668,176.52510089997668,176.52510089997668,10,2,"[0.0012229999992996454, 0.15024549997178838]","[0.13371089997235686, 0.23368769994704053]",176.52510089997668,176.72531479998725,6.1,176.72531479998725,1,6.1,1,1,1000,num_4,0.8191213000100106,,24,15,2026-03-04_16h30.04.221,2026A_exp2,2022.2.4,59.94661154599595,
1,0,4.9,4.9,1,0,48,48,18,,,,,177.57595189998392,178.22686689998955,178.22686689998955,178.711141399981,45,45,178.711141399981,178.711141399981,178.711141399981,178.711141399981,178.711141399981,178.711141399981,178.711141399981,178.711141399981,178.711141399981,179.07756489998428,179.07756489998428,179.07756489998428,179.07756489998428,179.07756489998428,179.07756489998428,179.07756489998428,179.07756489998428,179.07756489998428,2,3,"[0.0012385000009089708, 0.06693249999079853, 0.3003486999659799]","[0.05028289998881519, 0.283528900006786, 0.3671918999752961]",179.07756489998428,179.27770969999256,4.9,179.27770969999256,1,4.9,1,1,1000,num_4,0.6825619000010192,,24,15,2026-03-04_16h30.04.221,2026A_exp2,2022.2.4,59.94661154599595,
1000,1,0.0,0.0,1,0,49,49,44,,,,,179.97840199997881,180.62902669998584,180.62902669998584,181.11360659997445,315,315,181.11360659997445,181.11360659997445,181.11360659997445,181.11360659997445,181.11360659997445,181.11360659997445,181.11360659997445,181.11360659997445,181.11360659997445,181.47980159998406,181.47980159998406,181.47980159998406,181.47980159998406,181.47980159998406,181.47980159998406,181.47980159998406,181.47980159998406,181.47980159998406,23,0,,,181.47980159998406,181.68023499997798,1000,181.69682919996558,1000,1000,1000,1000,1,num_2,1.3357147000497207,,24,15,2026-03-04_16h30.04.221,2026A_exp2,2022.2.4,59.94661154599595,
1,0,4.9,0.0,0,0,50,50,47,,,,,183.0482886999962,183.69875529996352,183.69875529996352,184.2000546999625,315,315,184.2000546999625,184.2000546999625,184.2000546999625,184.2000546999625,184.2000546999625,184.2000546999625,184.2000546999625,184.2000546999625,184.2000546999625,184.5664690999547,184.5664690999547,184.5664690999547,184.5664690999547,184.5664690999547,184.5664690999547,184.5664690999547,184.5664690999547,184.5664690999547,23,0,,,184.5664690999547,184.7664661000017,4.9,184.7664661000017,0,4.9,1,0,1000,num_1,1.4895691000274383,,24,15,2026-03-04_16h30.04.221,2026A_exp2,2022.2.4,59.94661154599595,
1000,1,0.0,0.0,1,0,51,51,68,,,,,186.28461279999465,186.93547349999426,186.93547349999426,187.41994579997845,45,45,187.41994579997845,187.41994579997845,187.41994579997845,187.41994579997845,187.41994579997845,187.41994579997845,187.41994579997845,187.41994579997845,187.41994579997845,187.78638899995713,187.78638899995713,187.78638899995713,187.78638899995713,187.78638899995713,187.78638899995713,187.78638899995713,187.78638899995713,187.78638899995713,9,5,"[0.03347199998097494, 0.21707710000919178, 0.2503073000116274, 0.3166677000117488, 0.3668306000181474]","[0.16692569997394457, 0.2338228999869898, 0.2837729000020772, 0.3501916999812238, 0.3668345999903977]",187.78638899995713,187.98848809994524,1000,187.98848809994524,1000,1000,1000,1000,1,num_2,0.7637917999527417,,24,15,2026-03-04_16h30.04.221,2026A_exp2,2022.2.4,59.94661154599595,
1000,1,0.0,0.0,1,0,52,52,35,,,,,188.77056319999974,189.42119049996836,189.42119049996836,189.90551399998367,315,315,189.90551399998367,189.90551399998367,189.90551399998367,189.90551399998367,189.90551399998367,189.90551399998367,189.90551399998367,189.90551399998367,189.90551399998367,190.27200279996032,190.27200279996032,190.27200279996032,190.27200279996032,190.27200279996032,190.27200279996032,190.27200279996032,190.27200279996032,190.27200279996032,9,3,"[0.08349649998126552, 0.20018739998340607, 0.28358409996144474]","[0.16697569994721562, 0.2501483999658376, 0.3675321000046097]",190.27200279996032,190.47414720000234,1000,190.47414720000234,1000,1000,1000,1000,0,num_3,0.7101428000023589,,24,15,2026-03-04_16h30.04.221,2026A_exp2,2022.2.4,59.94661154599595,
1000,1,4.9,0.0,0,0,53,53,37,,,,,191.20630739995977,191.85693939996418,191.85693939996418,192.35822219995316,45,315,192.35822219995316,192.35822219995316,192.35822219995316,192.35822219995316,192.35822219995316,192.35822219995316,192.35822219995316,192.35822219995316,192.35822219995316,192.72461459995247,192.72461459995247,192.72461459995247,192.72461459995247,192.72461459995247,192.72461459995247,192.72461459995247,192.72461459995247,192.72461459995247,1,2,"[0.0012467000051401556, 0.16700030001811683]","[0.15028880001045763, 0.36718180001480505]",192.72461459995247,192.92662539996672,1000,192.92662539996672,1000,1000,1000,1000,0,num_3,0.44268099998589605,,24,15,2026-03-04_16h30.04.221,2026A_exp2,2022.2.4,59.94661154599595,
1,0,0.0,0.0,0,0,54,54,85,,,,,193.39184299996123,194.04249389999313,194.04249389999313,194.54371709999396,315,315,194.54371709999396,194.54371709999396,194.54371709999396,194.54371709999396,194.54371709999396,194.54371709999396,194.54371709999396,194.54371709999396,194.54371709999396,194.91016639996087,194.91016639996087,194.91016639996087,194.91016639996087,194.91016639996087,194.91016639996087,194.91016639996087,194.91016639996087,194.91016639996087,21,2,"[0.31726809998508543, 0.3505733000347391]","[0.33388779999222606, 0.36704959999769926]",194.91016639996087,195.1102292999858,0.0,195.1102292999858,0,0.0,0,1,1000,num_1,0.938990399998147,,24,15,2026-03-04_16h30.04.221,2026A_exp2,2022.2.4,59.94661154599595,
1000,1,3.7,6.1,1,0,55,55,43,,,,,196.07785559998592,196.72856099996716,196.72856099996716,197.212953499984,315,45,197.212953499984,197.212953499984,197.212953499984,197.212953499984,197.212953499984,197.212953499984,197.212953499984,197.212953499984,197.212953499984,197.57946319994517,197.57946319994517,197.57946319994517,197.57946319994517,197.57946319994517,197.57946319994517,197.57946319994517,197.57946319994517,197.57946319994517,0,1,[0.0012424999731592834],[0.3672602999722585],197.57946319994517,197.78144499997143,1000,197.78144499997143,1000,1000,1000,1000,1,num_2,0.7628566999919713,,24,15,2026-03-04_16h30.04.221,2026A_exp2,2022.2.4,59.94661154599595,
1000,1,0.0,0.0,0,0,56,56,13,,,,,198.56362729996908,199.21440359996632,199.21440359996632,199.71558209997602,315,315,199.71558209997602,199.71558209997602,199.71558209997602,199.71558209997602,199.71558209997602,199.71558209997602,199.71558209997602,199.71558209997602,199.71558209997602,200.0819887999678,200.0819887999678,200.0819887999678,200.0819887999678,200.0819887999678,200.0819887999678,200.0819887999678,200.0819887999678,200.0819887999678,5,1,[0.0012984999921172857],[0.3003585999831557],200.0819887999678,200.28426809998928,1000,200.28426809998928,1000,1000,1000,1000,1,num_2,1.0363446999690495,,24,15,2026-03-04_16h30.04.221,2026A_exp2,2022.2.4,59.94661154599595,
1,0,6.1,6.1,0,0,57,57,89,,,,,201.34972249995917,202.00055589998374,202.00055589998374,202.5016617999645,315,45,202.5016617999645,202.5016617999645,202.5016617999645,202.5016617999645,202.5016617999645,202.5016617999645,202.5016617999645,202.5016617999645,202.5016617999645,202.86814459995367,202.86814459995367,202.86814459995367,202.86814459995367,202.86814459995367,202.86814459995367,202.86814459995367,202.86814459995367,202.86814459995367,7,5,"[0.001279400021303445, 0.11675589997321367, 0.20025200000964105, 0.28365820000180975, 0.36710249999305233]","[0.1001850999891758, 0.1836421000189148, 0.2336725000059232, 0.3337704000296071, 0.3671075999736786]",202.86814459995367,203.06845979997888,6.1,203.06845979997888,1,6.1,1,1,1000,num_4,0.8193243999849074,,24,15,2026-03-04_16h30.04.221,2026A_exp2,2022.2.4,59.94661154599595,
1,0,6.1,0.0,0,0,58,58,51,,,,,203.91951529996004,204.5530160999624,204.5530160999624,205.05383079999592,315,45,205.05383079999592,205.05383079999592,205.05383079999592,205.05383079999592,205.05383079999592,205.05383079999592,205.05383079999592,205.05383079999592,205.05383079999592,205.4206146999495,205.4206146999495,205.4206146999495,205.4206146999495,205.4206146999495,205.4206146999495,205.4206146999495,205.4206146999495,205.4206146999495,23,0,,,205.4206146999495,205.62074799998663,6.1,205.62074799998663,1,6.1,1,1,1000,num_4,0.6038399999961257,,24,15,2026-03-04_16h30.04.221,2026A_exp2,2022.2.4,59.94661154599595,
1,0,0.0,3.7,0,0,59,59,31,,,,,206.25477989995852,206.90529129997594,206.90529129997594,207.38988209998934,45,315,207.38988209998934,207.38988209998934,207.38988209998934,207.38988209998934,207.38988209998934,207.38988209998934,207.38988209998934,207.38988209998934,207.38988209998934,207.75625879998552,207.75625879998552,207.75625879998552,207.75625879998552,207.75625879998552,207.75625879998552,207.75625879998552,207.75625879998552,207.75625879998552,0,1,[0.0012617999454960227],[0.36710589996073395],207.75625879998552,207.95636159996502,0.0,207.95636159996502,0,0.0,0,1,1000,num_1,0.7886332999914885,,24,15,2026-03-04_16h30.04.221,2026A_exp2,2022.2.4,59.94661154599595,
1000,1,6.1,6.1,0,0,60,60,87,,,,,208.77383009996265,209.42467399995076,209.42467399995076,209.90901339997072,45,315,209.90901339997072,209.90901339997072,209.90901339997072,209.90901339997072,209.90901339997072,209.90901339997072,209.90901339997072,209.90901339997072,209.90901339997072,210.27551019995008,210.27551019995008,210.27551019995008,210.27551019995008,210.27551019995008,210.27551019995008,210.27551019995008,210.27551019995008,210.27551019995008,0,1,[0.0012415999663062394],[0.3670494999969378],210.27551019995008,210.47741439996753,1000,210.47741439996753,1000,1000,1000,1000,0,num_3,0.6832077999715693,,24,15,2026-03-04_16h30.04.221,2026A_exp2,2022.2.4,59.94661154599595,
1,0,0.0,0.0,1,0,61,61,58,,,,,211.17602269997587,211.8269438999705,211.8269438999705,212.32492619997356,45,315,212.32492619997356,212.32492619997356,212.32492619997356,212.32492619997356,212.32492619997356,212.32492619997356,212.32492619997356,212.32492619997356,212.32492619997356,212.6778494999744,212.6778494999744,212.6778494999744,212.6778494999744,212.6778494999744,212.6778494999744,212.6778494999744,212.6778494999744,212.6778494999744,0,1,[0.004193599976133555],[0.3643859999720007],212.6778494999744,212.8780609999667,0.0,212.8780609999667,0,0.0,0,1,1000,num_1,0.8191915999632329,,24,15,2026-03-04_16h30.04.221,2026A_exp2,2022.2.4,59.94661154599595,
1000,1,3.7,0.0,1,0,62,62,52,,,,,213.72875899996143,214.37948419997701,214.37948419997701,214.86391829996137,315,315,214.86391829996137,214.86391829996137,214.86391829996137,214.86391829996137,214.86391829996137,214.86391829996137,214.86391829996137,214.86391829996137,214.86391829996137,215.2303835999919,215.2303835999919,215.2303835999919,215.2303835999919,215.2303835999919,215.2303835999919,215.2303835999919,215.2303835999919,215.2303835999919,0,1,[0.0012846000026911497],[0.3668734000530094],215.2303835999919,215.43285309994826,1000,215.43285309994826,1000,1000,1000,1000,0,num_3,0.5354855000041425,,24,15,2026-03-04_16h30.04.221,2026A_exp2,2022.2.4,59.94661154599595,
1000,1,3.7,0.0,0,0,63,63,55,,,,,215.99781019997317,216.64849159994628,216.64849159994628,217.14968749997206,315,45,217.14968749997206,217.14968749997206,217.14968749997206,217.14968749997206,217.14968749997206,217.14968749997206,217.14968749997206,217.14968749997206,217.14968749997206,217.51608979998855,217.51608979998855,217.51608979998855,217.51608979998855,217.51608979998855,217.51608979998855,217.51608979998855,217.51608979998855,217.51608979998855,1,2,"[0.0012224999954923987, 0.08351559995207936]","[0.06688189995475113, 0.36721050000051036]",217.51608979998855,217.71877389994916,1000,217.71877389994916,1000,1000,1000,1000,0,num_3,0.4503300000214949,,24,15,2026-03-04_16h30.04.221,2026A_exp2,2022.2.4,59.94661154599595,
1,0,4.9,6.1,1,0,64,64,36,,,,,218.19987109996146,218.85078999999678,218.85078999999678,219.35186609998345,45,315,219.35186609998345,219.35186609998345,219.35186609998345,219.35186609998345,219.35186609998345,219.35186609998345,219.35186609998345,219.35186609998345,219.35186609998345,219.71822899999097,219.71822899999097,219.71822899999097,219.71822899999097,219.71822899999097,219.71822899999097,219.71822899999097,219.71822899999097,219.71822899999097,4,2,"[0.033524799975566566, 0.0670422000112012]","[0.0502808999735862, 0.3673945000045933]",219.71822899999097,219.9185042999452,6.1,219.9185042999452,1,6.1,1,1,1000,num_4,0.8012924999929965,,24,15,2026-03-04_16h30.04.221,2026A_exp2,2022.2.4,59.94661154599595,
1000,1,6.1,6.1,1,0,65,65,53,,,,,220.73578930000076,221.38674190000165,221.38674190000165,221.87103719997685,315,45,221.87103719997685,221.87103719997685,221.87103719997685,221.87103719997685,221.87103719997685,221.87103719997685,221.87103719997685,221.87103719997685,221.87103719997685,222.23744679999072,222.23744679999072,222.23744679999072,222.23744679999072,222.23744679999072,222.23744679999072,222.23744679999072,222.23744679999072,222.23744679999072,0,1,[0.0012327000149525702],[0.3670303000253625],222.23744679999072,222.43942019995302,1000,222.43942019995302,1000,1000,1000,1000,1,num_2,0.9843801000388339,,24,15,2026-03-04_16h30.04.221,2026A_exp2,2022.2.4,59.94661154599595,
1,0,0.0,0.0,1,0,66,66,20,,,,,223.45544559997506,224.10599650000222,224.10599650000222,224.6069400999695,45,45,224.6069400999695,224.6069400999695,224.6069400999695,224.6069400999695,224.6069400999695,224.6069400999695,224.6069400999695,224.6069400999695,224.6069400999695,224.95686999999452,224.95686999999452,224.95686999999452,224.95686999999452,224.95686999999452,224.95686999999452,224.95686999999452,224.95686999999452,224.95686999999452,0,1,[0.0012301999959163368],[0.35043160000350326],224.95686999999452,225.15703229996143,0.0,225.15703229996143,0,0.0,0,1,1000,num_1,1.0277212000219151,,24,15,2026-03-04_16h30.04.221,2026A_exp2,2022.2.4,59.94661154599595,
1000,1,4.9,0.0,0,0,67,67,12,,,,,226.2079147999757,226.85881629999494,226.85881629999494,227.34305179998046,45,315,227.34305179998046,227.34305179998046,227.34305179998046,227.34305179998046,227.34305179998046,227.34305179998046,227.34305179998046,227.34305179998046,227.34305179998046,227.70961559994612,227.70961559994612,227.70961559994612,227.70961559994612,227.70961559994612,227.70961559994612,227.70961559994612,227.70961559994612,227.70961559994612,0,1,[0.0011989999911747873],[0.3680993000161834],227.70961559994612,227.91160859999945,1000,227.91160859999945,1000,1000,1000,1000,0,num_3,0.5849797000410035,,24,15,2026-03-04_16h30.04.221,2026A_exp2,2022.2.4,59.94661154599595,
1000,1,0.0,0.0,0,0,68,68,79,,,,,228.52687269996386,229.1783733999473,229.1783733999473,229.6787604999845,315,45,229.6787604999845,229.6787604999845,229.6787604999845,229.6787604999845,229.6787604999845,229.6787604999845,229.6787604999845,229.6787604999845,229.6787604999845,230.04526269994676,230.04526269994676,230.04526269994676,230.04526269994676,230.04526269994676,230.04526269994676,230.04526269994676,230.04526269994676,230.04526269994676,14,6,"[0.0012576000299304724, 0.03362980001838878, 0.15038820001063868, 0.21711800002958626, 0.28402840002672747, 0.31716219999361783]","[0.01734960003523156, 0.10033320001093671, 0.1669988000066951, 0.23380049999104813, 0.3004726000363007, 0.3339422999997623]",230.04526269994676,230.24707009998383,1000,230.24707009998383,1000,1000,1000,1000,1,num_2,0.7288675999734551,,24,15,2026-03-04_16h30.04.221,2026A_exp2,2022.2.4,59.94661154599595,
1000,1,4.9,0.0,0,0,69,69,45,,,,,230.99616509996122,231.64689499995438,231.64689499995438,232.14787049998995,315,315,232.14787049998995,232.14787049998995,232.14787049998995,232.14787049998995,232.14787049998995,232.14787049998995,232.14787049998995,232.14787049998995,232.14787049998995,232.51440759998513,232.51440759998513,232.51440759998513,232.51440759998513,232.51440759998513,232.51440759998513,232.51440759998513,232.51440759998513,232.51440759998513,0,1,[0.0012754000490531325],[0.3671370000229217],232.51440759998513,232.7165052999626,1000,232.7165052999626,1000,1000,1000,1000,0,num_3,0.44401490001473576,,24,15,2026-03-04_16h30.04.221,2026A_exp2,2022.2.4,59.94661154599595,
1000,1,6.1,4.9,1,0,70,70,15,,,,,233.1814374999958,233.83223919995362,233.83223919995362,234.31684859999223,315,45,234.31684859999223,234.31684859999223,234.31684859999223,234.31684859999223,234.31684859999223,234.31684859999223,234.31684859999223,234.31684859999223,234.31684859999223,234.68320599995786,234.68320599995786,234.68320599995786,234.68320599995786,234.68320599995786,234.68320599995786,234.68320599995786,234.68320599995786,234.68320599995786,0,1,[0.0012430999777279794],[0.3669725999934599],234.68320599995786,234.88499669998419,1000,234.88499669998419,1000,1000,1000,1000,0,num_3,0.4600958999944851,,24,15,2026-03-04_16h30.04.221,2026A_exp2,2022.2.4,59.94661154599595,
0,0,0.0,0.0,1,0,71,71,80,,,,,235.3670014999807,236.01787209999748,236.01787209999748,236.51905529998476,45,45,236.51905529998476,236.51905529998476,236.51905529998476,236.51905529998476,236.51905529998476,236.51905529998476,236.51905529998476,236.51905529998476,236.51905529998476,236.885403399996,236.885403399996,236.885403399996,236.885403399996,236.885403399996,236.885403399996,236.885403399996,236.885403399996,236.885403399996,2,1,[0.03344979998655617],[0.3672173999948427],236.885403399996,237.08546469995053,0.0,237.08546469995053,0,0.0,0,1,1000,num_1,0.9958505000104196,,24,15,2026-03-04_16h30.04.221,2026A_exp2,2022.2.4,59.94661154599595,
1000,1,0.0,0.0,1,0,72,72,63,,,,,238.10308390000137,238.7538200999843,238.7538200999843,239.23815969994757,315,45,239.23815969994757,239.23815969994757,239.23815969994757,239.23815969994757,239.23815969994757,239.23815969994757,239.23815969994757,239.23815969994757,239.23815969994757,239.6046746999491,239.6046746999491,239.6046746999491,239.6046746999491,239.6046746999491,239.6046746999491,239.6046746999491,239.6046746999491,239.6046746999491,0,1,[0.0012502000317908823],[0.36659340001642704],239.6046746999491,239.80714119999902,1000,239.80714119999902,1000,1000,1000,1000,1,num_2,1.0897387999575585,,24,15,2026-03-04_16h30.04.221,2026A_exp2,2022.2.4,59.94661154599595,
1000,1,3.7,0.0,1,0,73,73,38,,,,,240.92272689996753,241.57343599997694,241.57343599997694,242.0744554999983,45,315,242.0744554999983,242.0744554999983,242.0744554999983,242.0744554999983,242.0744554999983,242.0744554999983,242.0744554999983,242.0744554999983,242.0744554999983,242.42423599999165,242.42423599999165,242.42423599999165,242.42423599999165,242.42423599999165,242.42423599999165,242.42423599999165,242.42423599999165,242.42423599999165,21,1,[0.35048029996687546],[0.3504856000072323],242.42423599999165,242.62636929994915,1000,242.64118219999364,1000,1000,1000,1000,0,num_3,0.5194003999931738,,24,15,2026-03-04_16h30.04.221,2026A_exp2,2022.2.4,59.94661154599595,
1,0,6.1,0.0,1,0,74,74,17,,,,,243.19160319998628,243.84233610000229,243.84233610000229,244.34349780000048,45,45,244.34349780000048,244.34349780000048,244.34349780000048,244.34349780000048,244.34349780000048,244.34349780000048,244.34349780000048,244.34349780000048,244.34349780000048,244.7099969999981,244.7099969999981,244.7099969999981,244.7099969999981,244.7099969999981,244.7099969999981,244.7099969999981,244.7099969999981,244.7099969999981,0,1,[0.0012450999929569662],[0.3672649000072852],244.7099969999981,244.9101833999739,0.0,244.9101833999739,0,0.0,0,1,1000,num_1,1.514205800020136,,24,15,2026-03-04_16h30.04.221,2026A_exp2,2022.2.4,59.94661154599595,
1,0,0.0,0.0,0,0,75,75,39,,,,,246.44479909999063,247.09563139994862,247.09563139994862,247.58010149997426,315,45,247.58010149997426,247.58010149997426,247.58010149997426,247.58010149997426,247.58010149997426,247.58010149997426,247.58010149997426,247.58010149997426,247.58010149997426,247.94628099998226,247.94628099998226,247.94628099998226,247.94628099998226,247.94628099998226,247.94628099998226,247.94628099998226,247.94628099998226,247.94628099998226,0,1,[0.0012962000328116119],[0.36696469999151304],247.94628099998226,248.146741799952,0.0,248.146741799952,0,0.0,0,1,1000,num_1,0.8370635000173934,,24,15,2026-03-04_16h30.04.221,2026A_exp2,2022.2.4,59.94661154599595,
1000,1,0.0,0.0,1,0,76,76,34,,,,,249.01395559997763,249.66489729995374,249.66489729995374,250.14945569995325,315,45,250.14945569995325,250.14945569995325,250.14945569995325,250.14945569995325,250.14945569995325,250.14945569995325,250.14945569995325,250.14945569995325,250.14945569995325,250.51570689998334,250.51570689998334,250.51570689998334,250.51570689998334,250.51570689998334,250.51570689998334,250.51570689998334,250.51570689998334,250.51570689998334,0,1,[0.0012537000002339482],[0.3670401000417769],250.51570689998334,250.71780089999083,1000,250.71780089999083,1000,1000,1000,1000,0,num_3,0.794737099960912,,24,15,2026-03-04_16h30.04.221,2026A_exp2,2022.2.4,59.94661154599595,
1000,1,0.0,4.9,1,0,77,77,57,,,,,251.53319579997333,252.18408829998225,252.18408829998225,252.6852144000004,315,315,252.6852144000004,252.6852144000004,252.6852144000004,252.6852144000004,252.6852144000004,252.6852144000004,252.6852144000004,252.6852144000004,252.6852144000004,253.05149049998727,253.05149049998727,253.05149049998727,253.05149049998727,253.05149049998727,253.05149049998727,253.05149049998727,253.05149049998727,253.05149049998727,11,2,"[0.0017325999797321856, 0.3172306999913417]","[0.183715499995742, 0.33380490000126883]",253.05149049998727,253.25342470000032,1000,253.25342470000032,1000,1000,1000,1000,1,num_2,1.0990528000402264,,24,15,2026-03-04_16h30.04.221,2026A_exp2,2022.2.4,59.94661154599595,
1,0,3.7,0.0,0,0,78,78,7,,,,,254.3696647999459,255.02013089996763,255.02013089996763,255.5212017999729,45,45,255.5212017999729,255.5212017999729,255.5212017999729,255.5212017999729,255.5212017999729,255.5212017999729,255.5212017999729,255.5212017999729,255.5212017999729,255.88772409997182,255.88772409997182,255.88772409997182,255.88772409997182,255.88772409997182,255.88772409997182,255.88772409997182,255.88772409997182,255.88772409997182,5,1,[0.08352649997686967],[0.36714789998950437],255.88772409997182,256.0877247999888,3.7,256.0877247999888,1,3.7,1,1,1000,num_4,0.7448907000361942,,24,15,2026-03-04_16h30.04.221,2026A_exp2,2022.2.4,59.94661154599595,
1,0,4.9,3.7,1,0,79,79,71,,,,,256.8552159999963,257.50600719999056,257.50600719999056,257.99052890000166,45,315,257.99052890000166,257.99052890000166,257.99052890000166,257.99052890000166,257.99052890000166,257.99052890000166,257.99052890000166,257.99052890000166,257.99052890000166,258.35689159994945,258.35689159994945,258.35689159994945,258.35689159994945,258.35689159994945,258.35689159994945,258.35689159994945,258.35689159994945,258.35689159994945,0,1,[0.0007783999899402261],[0.3673647999530658],258.35689159994945,258.5570336999954,3.7,258.5570336999954,1,3.7,1,1,1000,num_4,1.2037601000047289,,24,15,2026-03-04_16h30.04.221,2026A_exp2,2022.2.4,59.94661154599595,
0,0,6.1,6.1,1,0,80,80,48,,,,,259.79150959994877,260.4425935999607,260.4425935999607,260.9266383999493,315,315,260.9266383999493,260.9266383999493,260.9266383999493,260.9266383999493,260.9266383999493,260.9266383999493,260.9266383999493,260.9266383999493,260.9266383999493,261.29320819996065,261.29320819996065,261.29320819996065,261.29320819996065,261.29320819996065,261.29320819996065,261.29320819996065,261.29320819996065,261.29320819996065,23,0,,,261.29320819996065,261.4933173999889,6.1,261.4933173999889,1,6.1,1,1,1000,num_4,0.8347266000346281,,24,15,2026-03-04_16h30.04.221,2026A_exp2,2022.2.4,59.94661154599595,
1000,1,4.9,0.0,1,0,81,81,56,,,,,262.3440780999954,262.9946174999932,262.9946174999932,263.4791991999955,315,45,263.4791991999955,263.4791991999955,263.4791991999955,263.4791991999955,263.4791991999955,263.4791991999955,263.4791991999955,263.4791991999955,263.4791991999955,263.8456955999718,263.8456955999718,263.8456955999718,263.8456955999718,263.8456955999718,263.8456955999718,263.8456955999718,263.8456955999718,263.8456955999718,0,1,[0.0012080000014975667],[0.3672130000195466],263.8456955999718,264.0478501999751,1000,264.0478501999751,1000,1000,1000,1000,0,num_3,0.7847468000254594,,24,15,2026-03-04_16h30.04.221,2026A_exp2,2022.2.4,59.94661154599595,
1000,1,6.1,0.0,0,0,82,82,21,,,,,264.86328239995055,265.514014699962,265.514014699962,266.01512759999605,45,45,266.01512759999605,266.01512759999605,266.01512759999605,266.01512759999605,266.01512759999605,266.01512759999605,266.01512759999605,266.01512759999605,266.01512759999605,266.3815811999957,266.3815811999957,266.3815811999957,266.3815811999957,266.3815811999957,266.3815811999957,266.3815811999957,266.3815811999957,266.3815811999957,0,1,[0.0012929999502375722],[0.3671735999523662],266.3815811999957,266.58697539998684,1000,266.58697539998684,1000,1000,1000,1000,0,num_3,0.5171750000445172,,24,15,2026-03-04_16h30.04.221,2026A_exp2,2022.2.4,59.94661154599595,
0,0,0.0,4.9,0,0,83,83,65,,,,,267.13235049997456,267.7829280999722,267.7829280999722,268.2839828999713,45,315,268.2839828999713,268.2839828999713,268.2839828999713,268.2839828999713,268.2839828999713,268.2839828999713,268.2839828999713,268.2839828999713,268.2839828999713,268.65044869994745,268.65044869994745,268.65044869994745,268.65044869994745,268.65044869994745,268.65044869994745,268.65044869994745,268.65044869994745,268.65044869994745,0,1,[0.0012771999463438988],[0.36650369997369125],268.65044869994745,268.85068009997485,4.9,268.85068009997485,1,4.9,1,1,1000,num_4,0.9104978999821469,,24,15,2026-03-04_16h30.04.221,2026A_exp2,2022.2.4,59.94661154599595,
1,0,0.0,3.7,0,0,84,84,64,,,,,269.784801199974,270.43562539998675,270.43562539998675,270.9201171999448,45,315,270.9201171999448,270.9201171999448,270.9201171999448,270.9201171999448,270.9201171999448,270.9201171999448,270.9201171999448,270.9201171999448,270.9201171999448,271.2866382999928,271.2866382999928,271.2866382999928,271.2866382999928,271.2866382999928,271.2866382999928,271.2866382999928,271.2866382999928,271.2866382999928,8,2,"[0.09996500000124797, 0.166822700004559]","[0.1334097000071779, 0.3670574999996461]",271.2866382999928,271.4866228000028,0.0,271.4866228000028,0,0.0,0,1,1000,num_1,0.9136413999949582,,24,15,2026-03-04_16h30.04.221,2026A_exp2,2022.2.4,59.94661154599595,
1000,1,3.7,0.0,1,0,85,85,19,,,,,272.4210346999462,273.07151879998855,273.07151879998855,273.55608469998697,315,315,273.55608469998697,273.55608469998697,273.55608469998697,273.55608469998697,273.55608469998697,273.55608469998697,273.55608469998697,273.55608469998697,273.55608469998697,273.9224350999575,273.9224350999575,273.9224350999575,273.9224350999575,273.9224350999575,273.9224350999575,273.9224350999575,273.9224350999575,273.9224350999575,0,1,[0.0011975999805144966],[0.3671971000148915],273.9224350999575,274.1242201999994,1000,274.1242201999994,1000,1000,1000,1000,0,num_3,0.7157310000038706,,24,15,2026-03-04_16h30.04.221,2026A_exp2,2022.2.4,59.94661154599595,
1,0,6.1,6.1,1,0,86,86,49,,,,,274.8568305999506,275.50728019996313,275.50728019996313,275.9918389999657,315,315,275.9918389999657,275.9918389999657,275.9918389999657,275.9918389999657,275.9918389999657,275.9918389999657,275.9918389999657,275.9918389999657,275.9918389999657,276.3582808999927,276.3582808999927,276.3582808999927,276.3582808999927,276.3582808999927,276.3582808999927,276.3582808999927,276.3582808999927,276.3582808999927,0,1,[0.0012066999915987253],[0.3665352999814786],276.3582808999927,276.55825389997335,6.1,276.55825389997335,1,6.1,1,1,1000,num_4,0.8745364000205882,,24,15,2026-03-04_16h30.04.221,2026A_exp2,2022.2.4,59.94661154599595,
1000,1,4.9,0.0,1,0,87,87,74,,,,,277.45914099999936,278.1097664999543,278.1097664999543,278.59442829998443,315,315,278.59442829998443,278.59442829998443,278.59442829998443,278.59442829998443,278.59442829998443,278.59442829998443,278.59442829998443,278.59442829998443,278.59442829998443,278.9613490999909,278.9613490999909,278.9613490999909,278.9613490999909,278.9613490999909,278.9613490999909,278.9613490999909,278.9613490999909,278.9613490999909,4,3,"[0.03357510000932962, 0.1169462000252679, 0.2672209999873303]","[0.10028790001524612, 0.25045130000216886, 0.36662310000974685]",278.9613490999909,279.1873988999869,1000,279.1873988999869,1000,1000,1000,1000,0,num_3,0.5012392000062391,,24,15,2026-03-04_16h30.04.221,2026A_exp2,2022.2.4,59.94661154599595,
1,0,3.7,0.0,0,0,88,88,10,,,,,279.711428599956,280.36282779998146,280.36282779998146,280.8632860999787,315,45,280.8632860999787,280.8632860999787,280.8632860999787,280.8632860999787,280.8632860999787,280.8632860999787,280.8632860999787,280.8632860999787,280.8632860999787,281.22988829994574,281.22988829994574,281.22988829994574,281.22988829994574,281.22988829994574,281.22988829994574,281.22988829994574,281.22988829994574,281.22988829994574,23,0,,,281.22988829994574,281.42985159996897,3.7,281.42985159996897,0,3.7,1,0,1000,num_1,0.9871532999677584,,24,15,2026-03-04_16h30.04.221,2026A_exp2,2022.2.4,59.94661154599595,
1000,1,3.7,0.0,1,0,89,89,78,,,,,282.44757959997514,283.08145909995073,283.08145909995073,283.582473699993,45,315,283.582473699993,283.582473699993,283.582473699993,283.582473699993,283.582473699993,283.582473699993,283.582473699993,283.582473699993,283.582473699993,283.94915209995816,283.94915209995816,283.94915209995816,283.94915209995816,283.94915209995816,283.94915209995816,283.94915209995816,283.94915209995816,283.94915209995816,2,2,"[0.0012163000064902008, 0.05030240002088249]","[0.03348860004916787, 0.36719450005330145]",283.94915209995816,284.151617800002,1000,284.151617800002,1000,1000,1000,1000,0,num_3,0.6249857999500819,,24,15,2026-03-04_16h30.04.221,2026A_exp2,2022.2.4,59.94661154599595,
,,,,,,,,,,,,,,,,,,,,,,,,,,,,,,,,,,,,,,,,,,,,,,,,,,,,284.80901999998605,,,,,,,
