validity,detectorcomp,contrastCW,contrastCCW,precueCWorCCW,block_80trials.thisRepN,block_80trials.thisTrialN,block_80trials.thisN,block_80trials.thisIndex,etRecord.started,etRecord.stopped,text.started,text.stopped,text_4.started,text_4.stopped,text_6.started,text_6.stopped,oriCW,oriCCW,roi_2.started,grating_UR.started,grating_UL.started,grating_LR.started,grating_LL.started,noise_UR.started,noise_UL.started,noise_LR.started,noise_LL.started,roi_2.stopped,grating_UR.stopped,grating_UL.stopped,grating_LR.stopped,grating_LL.stopped,noise_UR.stopped,noise_UL.stopped,noise_LR.stopped,noise_LL.stopped,outframe,roi_2.numLooks,roi_2.timesOn,roi_2.timesOff,text_2.started,text_2.stopped,probedcontrast,key_resp.started,respdetect,relevantContrast,correctDetect,TorFdetect,respCWorCCW,key_resp.keys,key_resp.rt,feedback_display_.started,participantNo,blockNo,date,expName,psychopyVersion,frameRate,
0,0,4.9,0.0,1,0,0,0,67,3.3999967854470015e-05,3.3999967854470015e-05,64.42128259997116,66.44098929996835,66.44098929996835,67.06841879995773,67.06841879995773,67.57579199998872,315,45,67.57579199998872,67.57579199998872,67.57579199998872,67.57579199998872,67.57579199998872,67.57579199998872,67.57579199998872,67.57579199998872,67.57579199998872,67.9254065999994,67.9254065999994,67.9254065999994,67.9254065999994,67.9254065999994,67.9254065999994,67.9254065999994,67.9254065999994,67.9254065999994,1,2,"[0.00109779997728765, 0.2508846999844536]","[0.21747430000687018, 0.3682171999826096]",67.9254065999994,68.12967669998761,4.9,68.12967669998761,0,4.9,1,0,1000,num_1,0.7337774999905378,,23,13,2026-03-04_14h29.15.198,2026A_exp2,2022.2.4,59.82700424057105,
1000,1,6.1,0.0,1,0,1,1,83,,,,,68.89300129999174,69.543827699963,69.543827699963,70.0282034999691,315,45,70.0282034999691,70.0282034999691,70.0282034999691,70.0282034999691,70.0282034999691,70.0282034999691,70.0282034999691,70.0282034999691,70.0282034999691,70.39478019997478,70.39478019997478,70.39478019997478,70.39478019997478,70.39478019997478,70.39478019997478,70.39478019997478,70.39478019997478,70.39478019997478,23,0,,,70.39478019997478,70.59982649999438,1000,70.59982649999438,1000,1000,1000,1000,0,num_3,0.7442436999990605,,23,13,2026-03-04_14h29.15.198,2026A_exp2,2022.2.4,59.82700424057105,
1,0,0.0,6.1,0,0,2,2,0,,,,,71.36225909995846,72.01278629997978,72.01278629997978,72.51390589994844,45,45,72.51390589994844,72.51390589994844,72.51390589994844,72.51390589994844,72.51390589994844,72.51390589994844,72.51390589994844,72.51390589994844,72.51390589994844,72.88045739999507,72.88045739999507,72.88045739999507,72.88045739999507,72.88045739999507,72.88045739999507,72.88045739999507,72.88045739999507,72.88045739999507,0,1,[0.001278200012166053],[0.3669604000169784],72.88045739999507,73.08068600000115,0.0,73.08068600000115,0,0.0,0,1,1000,num_1,0.6631394000141881,,23,13,2026-03-04_14h29.15.198,2026A_exp2,2022.2.4,59.82700424057105,
1000,1,3.7,0.0,1,0,3,3,19,,,,,73.76469669997459,74.41532390000066,74.41532390000066,74.89974059996894,45,315,74.89974059996894,74.89974059996894,74.89974059996894,74.89974059996894,74.89974059996894,74.89974059996894,74.89974059996894,74.89974059996894,74.89974059996894,75.26609960000496,75.26609960000496,75.26609960000496,75.26609960000496,75.26609960000496,75.26609960000496,75.26609960000496,75.26609960000496,75.26609960000496,0,1,[0.0012227999977767467],[0.3672929999884218],75.26609960000496,75.46830529998988,1000,75.46830529998988,1000,1000,1000,1000,0,num_3,0.39493700000457466,,23,13,2026-03-04_14h29.15.198,2026A_exp2,2022.2.4,59.82700424057105,
1000,1,0.0,4.9,1,0,4,4,66,,,,,75.88345379999373,76.53405839996412,76.53405839996412,77.03523639997002,45,45,77.03523639997002,77.03523639997002,77.03523639997002,77.03523639997002,77.03523639997002,77.03523639997002,77.03523639997002,77.03523639997002,77.03523639997002,77.40162009996129,77.40162009996129,77.40162009996129,77.40162009996129,77.40162009996129,77.40162009996129,77.40162009996129,77.40162009996129,77.40162009996129,0,1,[0.001244200044311583],[0.36732520000077784],77.40162009996129,77.60388829995645,1000,77.60388829995645,1000,1000,1000,1000,1,num_2,0.37109550001332536,,23,13,2026-03-04_14h29.15.198,2026A_exp2,2022.2.4,59.82700424057105,
1,0,0.0,6.1,1,0,5,5,33,,,,,78.00218149996363,78.65277669997886,78.65277669997886,79.13719079998555,45,45,79.13719079998555,79.13719079998555,79.13719079998555,79.13719079998555,79.13719079998555,79.13719079998555,79.13719079998555,79.13719079998555,79.13719079998555,79.50365869997768,79.50365869997768,79.50365869997768,79.50365869997768,79.50365869997768,79.50365869997768,79.50365869997768,79.50365869997768,79.50365869997768,23,0,,,79.50365869997768,79.70379850000609,6.1,79.70379850000609,1,6.1,1,1,1000,num_4,0.5356858000159264,,23,13,2026-03-04_14h29.15.198,2026A_exp2,2022.2.4,59.82700424057105,
1,0,3.7,0.0,0,0,6,6,87,,,,,80.27105559996562,80.92172739998205,80.92172739998205,81.40609559998848,315,45,81.40609559998848,81.40609559998848,81.40609559998848,81.40609559998848,81.40609559998848,81.40609559998848,81.40609559998848,81.40609559998848,81.40609559998848,81.77271069999551,81.77271069999551,81.77271069999551,81.77271069999551,81.77271069999551,81.77271069999551,81.77271069999551,81.77271069999551,81.77271069999551,23,0,,,81.77271069999551,81.97292669996386,3.7,81.97292669996386,1,3.7,1,1,1000,num_4,0.7230191000271589,,23,13,2026-03-04_14h29.15.198,2026A_exp2,2022.2.4,59.82700424057105,
1000,1,0.0,3.7,1,0,7,7,13,,,,,82.72344589995919,83.37427450000541,83.37427450000541,83.85873829998309,315,45,83.85873829998309,83.85873829998309,83.85873829998309,83.85873829998309,83.85873829998309,83.85873829998309,83.85873829998309,83.85873829998309,83.85873829998309,84.2251355999615,84.2251355999615,84.2251355999615,84.2251355999615,84.2251355999615,84.2251355999615,84.2251355999615,84.2251355999615,84.2251355999615,10,1,[0.16714959999080747],[0.3672886000131257],84.2251355999615,84.42752709996421,1000,84.42752709996421,1000,1000,1000,1000,1,num_2,0.4929627000237815,,23,13,2026-03-04_14h29.15.198,2026A_exp2,2022.2.4,59.82700424057105,
1,0,4.9,0.0,1,0,8,8,65,,,,,84.94241789996158,85.59321500000078,85.59321500000078,86.09429109998746,315,315,86.09429109998746,86.09429109998746,86.09429109998746,86.09429109998746,86.09429109998746,86.09429109998746,86.09429109998746,86.09429109998746,86.09429109998746,86.46045039995806,86.46045039995806,86.46045039995806,86.46045039995806,86.46045039995806,86.46045039995806,86.46045039995806,86.46045039995806,86.46045039995806,14,2,"[0.03335799998603761, 0.30023110000183806]","[0.1001477999961935, 0.36710769997444004]",86.46045039995806,86.6608376999502,0.0,86.6608376999502,0,0.0,0,1,1000,num_1,0.6272918999893591,,23,13,2026-03-04_14h29.15.198,2026A_exp2,2022.2.4,59.82700424057105,
1,0,0.0,0.0,0,0,9,9,79,,,,,87.31150549999438,87.9620922000031,87.9620922000031,88.4465499999933,45,45,88.4465499999933,88.4465499999933,88.4465499999933,88.4465499999933,88.4465499999933,88.4465499999933,88.4465499999933,88.4465499999933,88.4465499999933,88.81413779995637,88.81413779995637,88.81413779995637,88.81413779995637,88.81413779995637,88.81413779995637,88.81413779995637,88.81413779995637,88.81413779995637,0,1,[0.0012092000106349587],[0.3664703000104055],88.81413779995637,89.0130573999486,0.0,89.0130573999486,0,0.0,0,1,1000,num_1,1.4826785000041127,,23,13,2026-03-04_14h29.15.198,2026A_exp2,2022.2.4,59.82700424057105,
1000,1,0.0,4.9,0,0,10,10,60,,,,,90.51462959998753,91.16527769999811,91.16527769999811,91.64985929999966,315,45,91.64985929999966,91.64985929999966,91.64985929999966,91.64985929999966,91.64985929999966,91.64985929999966,91.64985929999966,91.64985929999966,91.64985929999966,92.0162449000054,92.0162449000054,92.0162449000054,92.0162449000054,92.0162449000054,92.0162449000054,92.0162449000054,92.0162449000054,92.0162449000054,1,2,"[0.0011367000406607985, 0.200432300043758]","[0.1837276000296697, 0.3672878000070341]",92.0162449000054,92.21841769997263,1000,92.21841769997263,1000,1000,1000,1000,0,num_3,0.8374316999688745,,23,13,2026-03-04_14h29.15.198,2026A_exp2,2022.2.4,59.82700424057105,
1,0,4.9,0.0,0,0,11,11,53,,,,,93.083879599988,93.74252869997872,93.74252869997872,94.235795399989,45,315,94.235795399989,94.235795399989,94.235795399989,94.235795399989,94.235795399989,94.235795399989,94.235795399989,94.235795399989,94.235795399989,94.5854560000007,94.5854560000007,94.5854560000007,94.5854560000007,94.5854560000007,94.5854560000007,94.5854560000007,94.5854560000007,94.5854560000007,22,0,,,94.5854560000007,94.78569920000155,4.9,94.80243819998577,1,4.9,1,1,1000,num_4,0.604733899992425,,23,13,2026-03-04_14h29.15.198,2026A_exp2,2022.2.4,59.82700424057105,
1,0,0.0,4.9,0,0,12,12,73,,,,,95.43619409995154,96.08700639999006,96.08700639999006,96.57143049995648,315,45,96.57143049995648,96.57143049995648,96.57143049995648,96.57143049995648,96.57143049995648,96.57143049995648,96.57143049995648,96.57143049995648,96.57143049995648,96.9379035999882,96.9379035999882,96.9379035999882,96.9379035999882,96.9379035999882,96.9379035999882,96.9379035999882,96.9379035999882,96.9379035999882,21,1,[0.2834302999544889],[0.317104899964761],96.9379035999882,97.13802739995299,0.0,97.13802739995299,0,0.0,0,1,1000,num_1,0.6611013999790885,,23,13,2026-03-04_14h29.15.198,2026A_exp2,2022.2.4,59.82700424057105,
1,0,6.1,0.0,1,0,13,13,89,,,,,97.82198579999385,98.4727692999877,98.4727692999877,98.97385209996719,45,315,98.97385209996719,98.97385209996719,98.97385209996719,98.97385209996719,98.97385209996719,98.97385209996719,98.97385209996719,98.97385209996719,98.97385209996719,99.34023380000144,99.34023380000144,99.34023380000144,99.34023380000144,99.34023380000144,99.34023380000144,99.34023380000144,99.34023380000144,99.34023380000144,23,0,,,99.34023380000144,99.54036509996513,0.0,99.54036509996513,0,0.0,0,1,1000,num_1,0.5716714999871328,,23,13,2026-03-04_14h29.15.198,2026A_exp2,2022.2.4,59.82700424057105,
1,0,0.0,0.0,1,0,14,14,49,,,,,100.14083639997989,100.79168049996952,100.79168049996952,101.27608129999135,45,315,101.27608129999135,101.27608129999135,101.27608129999135,101.27608129999135,101.27608129999135,101.27608129999135,101.27608129999135,101.27608129999135,101.27608129999135,101.642463999975,101.642463999975,101.642463999975,101.642463999975,101.642463999975,101.642463999975,101.642463999975,101.642463999975,101.642463999975,0,1,[0.001218999968841672],[0.3672010999871418],101.642463999975,101.84267300000647,0.0,101.84267300000647,1,0.0,0,0,1000,num_4,0.6930068000219762,,23,13,2026-03-04_14h29.15.198,2026A_exp2,2022.2.4,59.82700424057105,
1,0,0.0,4.9,0,0,15,15,3,,,,,102.56016649998492,103.2107369999867,103.2107369999867,103.69536709995009,45,45,103.69536709995009,103.69536709995009,103.69536709995009,103.69536709995009,103.69536709995009,103.69536709995009,103.69536709995009,103.69536709995009,103.69536709995009,104.06152449996443,104.06152449996443,104.06152449996443,104.06152449996443,104.06152449996443,104.06152449996443,104.06152449996443,104.06152449996443,104.06152449996443,9,2,"[0.0012278000358492136, 0.36726210004417226]","[0.21609690005425364, 0.36726630001794547]",104.06152449996443,104.2617665999569,0.0,104.2617665999569,0,0.0,0,1,1000,num_1,0.7852424999582581,,23,13,2026-03-04_14h29.15.198,2026A_exp2,2022.2.4,59.82700424057105,
1,0,0.0,3.7,1,0,16,16,14,,,,,105.06256339995889,105.71318609995069,105.71318609995069,106.21454869996523,315,45,106.21454869996523,106.21454869996523,106.21454869996523,106.21454869996523,106.21454869996523,106.21454869996523,106.21454869996523,106.21454869996523,106.21454869996523,106.56401159998495,106.56401159998495,106.56401159998495,106.56401159998495,106.56401159998495,106.56401159998495,106.56401159998495,106.56401159998495,106.56401159998495,22,0,,,106.56401159998495,106.7643548999913,3.7,106.7808143000002,1,3.7,1,1,1000,num_4,0.5865291999652982,,23,13,2026-03-04_14h29.15.198,2026A_exp2,2022.2.4,59.82700424057105,
1000,1,3.7,0.0,0,0,17,17,56,,,,,107.39817299996503,108.04891369998222,108.04891369998222,108.53342619998148,315,315,108.53342619998148,108.53342619998148,108.53342619998148,108.53342619998148,108.53342619998148,108.53342619998148,108.53342619998148,108.53342619998148,108.53342619998148,108.89967939996859,108.89967939996859,108.89967939996859,108.89967939996859,108.89967939996859,108.89967939996859,108.89967939996859,108.89967939996859,108.89967939996859,7,2,"[0.00121929997112602, 0.33370259997900575]","[0.2169690000009723, 0.367140099988319]",108.89967939996859,109.10018159996253,1000,109.10018159996253,1000,1000,1000,1000,1,num_2,0.5556249000364915,,23,13,2026-03-04_14h29.15.198,2026A_exp2,2022.2.4,59.82700424057105,
1000,1,4.9,0.0,1,0,18,18,10,,,,,109.683796599973,110.33442839997588,110.33442839997588,110.83569969999371,315,315,110.83569969999371,110.83569969999371,110.83569969999371,110.83569969999371,110.83569969999371,110.83569969999371,110.83569969999371,110.83569969999371,110.83569969999371,111.20209909998812,111.20209909998812,111.20209909998812,111.20209909998812,111.20209909998812,111.20209909998812,111.20209909998812,111.20209909998812,111.20209909998812,2,2,"[0.017584699962753803, 0.06696909997845069]","[0.050265499972738326, 0.3672243999899365]",111.20209909998812,111.40438609995181,1000,111.40438609995181,1000,1000,1000,1000,1,num_2,0.6195415999973193,,23,13,2026-03-04_14h29.15.198,2026A_exp2,2022.2.4,59.82700424057105,
1000,1,6.1,6.1,1,0,19,19,8,,,,,112.05286409996916,112.70354139996925,112.70354139996925,113.20466869999655,315,45,113.20466869999655,113.20466869999655,113.20466869999655,113.20466869999655,113.20466869999655,113.20466869999655,113.20466869999655,113.20466869999655,113.20466869999655,113.57115139998496,113.57115139998496,113.57115139998496,113.57115139998496,113.57115139998496,113.57115139998496,113.57115139998496,113.57115139998496,113.57115139998496,0,1,[0.0009323000558651984],[0.36884970002574846],113.57115139998496,113.77661499998067,1000,113.77661499998067,1000,1000,1000,1000,1,num_2,0.4788931999937631,,23,13,2026-03-04_14h29.15.198,2026A_exp2,2022.2.4,59.82700424057105,
1,0,0.0,4.9,1,0,20,20,37,,,,,114.27185829996597,114.92243519995827,114.92243519995827,115.42370210000081,45,45,115.42370210000081,115.42370210000081,115.42370210000081,115.42370210000081,115.42370210000081,115.42370210000081,115.42370210000081,115.42370210000081,115.42370210000081,115.79009809996933,115.79009809996933,115.79009809996933,115.79009809996933,115.79009809996933,115.79009809996933,115.79009809996933,115.79009809996933,115.79009809996933,23,0,,,115.79009809996933,115.99016589997336,4.9,115.99016589997336,1,4.9,1,1,1000,num_4,0.9775066999718547,,23,13,2026-03-04_14h29.15.198,2026A_exp2,2022.2.4,59.82700424057105,
1000,1,4.9,0.0,0,0,21,21,54,,,,,116.99125279998407,117.64161259995308,117.64161259995308,118.12618269998347,315,315,118.12618269998347,118.12618269998347,118.12618269998347,118.12618269998347,118.12618269998347,118.12618269998347,118.12618269998347,118.12618269998347,118.12618269998347,118.49275469995337,118.49275469995337,118.49275469995337,118.49275469995337,118.49275469995337,118.49275469995337,118.49275469995337,118.49275469995337,118.49275469995337,1,1,[0.0012358000385574996],[0.3670045000035316],118.49275469995337,118.69465849996777,1000,118.69465849996777,1000,1000,1000,1000,1,num_2,0.5846694000065327,,23,13,2026-03-04_14h29.15.198,2026A_exp2,2022.2.4,59.82700424057105,
1000,1,0.0,0.0,0,0,22,22,17,,,,,119.31021119997604,119.96077159995912,119.96077159995912,120.46198769996408,45,315,120.46198769996408,120.46198769996408,120.46198769996408,120.46198769996408,120.46198769996408,120.46198769996408,120.46198769996408,120.46198769996408,120.46198769996408,120.82856759999413,120.82856759999413,120.82856759999413,120.82856759999413,120.82856759999413,120.82856759999413,120.82856759999413,120.82856759999413,120.82856759999413,23,0,,,120.82856759999413,121.03084289998515,1000,121.03084289998515,1000,1000,1000,1000,1,num_2,0.5123296999954619,,23,13,2026-03-04_14h29.15.198,2026A_exp2,2022.2.4,59.82700424057105,
1,0,6.1,6.1,1,0,23,23,23,,,,,121.56236149999313,122.21311419998528,122.21311419998528,122.69741099997191,315,315,122.69741099997191,122.69741099997191,122.69741099997191,122.69741099997191,122.69741099997191,122.69741099997191,122.69741099997191,122.69741099997191,122.69741099997191,123.06384839996463,123.06384839996463,123.06384839996463,123.06384839996463,123.06384839996463,123.06384839996463,123.06384839996463,123.06384839996463,123.06384839996463,4,2,"[0.0012665000394918025, 0.3671388000366278]","[0.3003844000049867, 0.3671440000180155]",123.06384839996463,123.26420059998054,6.1,123.26420059998054,0,6.1,1,0,1000,num_1,0.5753428000025451,,23,13,2026-03-04_14h29.15.198,2026A_exp2,2022.2.4,59.82700424057105,
1,0,3.7,0.0,1,0,24,24,12,,,,,123.86464599997271,124.51548429997638,124.51548429997638,124.99971359997289,315,45,124.99971359997289,124.99971359997289,124.99971359997289,124.99971359997289,124.99971359997289,124.99971359997289,124.99971359997289,124.99971359997289,124.99971359997289,125.36624629999278,125.36624629999278,125.36624629999278,125.36624629999278,125.36624629999278,125.36624629999278,125.36624629999278,125.36624629999278,125.36624629999278,23,0,,,125.36624629999278,125.56632609997177,0.0,125.56632609997177,0,0.0,0,1,1000,num_1,0.5929164999979548,,23,13,2026-03-04_14h29.15.198,2026A_exp2,2022.2.4,59.82700424057105,
1,0,6.1,4.9,1,0,25,25,11,,,,,126.18365629995242,126.83440940000582,126.83440940000582,127.31875809998019,45,45,127.31875809998019,127.31875809998019,127.31875809998019,127.31875809998019,127.31875809998019,127.31875809998019,127.31875809998019,127.31875809998019,127.31875809998019,127.68509270000504,127.68509270000504,127.68509270000504,127.68509270000504,127.68509270000504,127.68509270000504,127.68509270000504,127.68509270000504,127.68509270000504,11,3,"[0.0012839999981224537, 0.18350579997058958, 0.3669079000246711]","[0.16673980001360178, 0.200313700013794, 0.36691280000377446]",127.68509270000504,127.88551309995819,4.9,127.88551309995819,0,4.9,1,0,1000,num_1,0.5383548000245355,,23,13,2026-03-04_14h29.15.198,2026A_exp2,2022.2.4,59.82700424057105,
0,0,0.0,3.7,0,0,26,26,34,,,,,128.45258159999503,129.10330829996383,129.10330829996383,129.58779449999565,45,45,129.58779449999565,129.58779449999565,129.58779449999565,129.58779449999565,129.58779449999565,129.58779449999565,129.58779449999565,129.58779449999565,129.58779449999565,129.95419829996536,129.95419829996536,129.95419829996536,129.95419829996536,129.95419829996536,129.95419829996536,129.95419829996536,129.95419829996536,129.95419829996536,23,0,,,129.95419829996536,130.15431699994951,3.7,130.15431699994951,1,3.7,1,1,1000,num_4,0.7011246000183746,,23,13,2026-03-04_14h29.15.198,2026A_exp2,2022.2.4,59.82700424057105,
0,0,3.7,0.0,0,0,27,27,62,,,,,130.87159939995036,131.52227879996644,131.52227879996644,132.0234916000045,45,45,132.0234916000045,132.0234916000045,132.0234916000045,132.0234916000045,132.0234916000045,132.0234916000045,132.0234916000045,132.0234916000045,132.0234916000045,132.3732822999591,132.3732822999591,132.3732822999591,132.3732822999591,132.3732822999591,132.3732822999591,132.3732822999591,132.3732822999591,132.3732822999591,16,2,"[0.15021569997770712, 0.18369259999599308]","[0.166898499999661, 0.2670251000090502]",132.3732822999591,132.57353669998702,0.0,132.57353669998702,0,0.0,0,1,1000,num_1,0.6822662999620661,,23,13,2026-03-04_14h29.15.198,2026A_exp2,2022.2.4,59.82700424057105,
1,0,6.1,0.0,0,0,28,28,82,,,,,133.27432949998183,133.92489089997252,133.92489089997252,134.42574649996823,315,45,134.42574649996823,134.42574649996823,134.42574649996823,134.42574649996823,134.42574649996823,134.42574649996823,134.42574649996823,134.42574649996823,134.42574649996823,134.7755680999835,134.7755680999835,134.7755680999835,134.7755680999835,134.7755680999835,134.7755680999835,134.7755680999835,134.7755680999835,134.7755680999835,22,0,,,134.7755680999835,134.97570129996166,6.1,134.97570129996166,1,6.1,1,1,1000,num_4,0.6873246000031941,,23,13,2026-03-04_14h29.15.198,2026A_exp2,2022.2.4,59.82700424057105,
1000,1,0.0,3.7,1,0,29,29,84,,,,,135.69292689999565,136.34381140000187,136.34381140000187,136.82827769999858,45,45,136.82827769999858,136.82827769999858,136.82827769999858,136.82827769999858,136.82827769999858,136.82827769999858,136.82827769999858,136.82827769999858,136.82827769999858,137.19470329995966,137.19470329995966,137.19470329995966,137.19470329995966,137.19470329995966,137.19470329995966,137.19470329995966,137.19470329995966,137.19470329995966,23,0,,,137.19470329995966,137.39748749998398,1000,137.39748749998398,1000,1000,1000,1000,1,num_2,0.7384565999964252,,23,13,2026-03-04_14h29.15.198,2026A_exp2,2022.2.4,59.82700424057105,
1000,1,3.7,6.1,1,0,30,30,58,,,,,138.1624839999713,138.81306289997883,138.81306289997883,139.3141182999825,45,45,139.3141182999825,139.3141182999825,139.3141182999825,139.3141182999825,139.3141182999825,139.3141182999825,139.3141182999825,139.3141182999825,139.3141182999825,139.6637390999822,139.6637390999822,139.6637390999822,139.6637390999822,139.6637390999822,139.6637390999822,139.6637390999822,139.6637390999822,139.6637390999822,22,0,,,139.6637390999822,139.86574039998231,1000,139.88079819997074,1000,1000,1000,1000,1,num_2,0.511600699974224,,23,13,2026-03-04_14h29.15.198,2026A_exp2,2022.2.4,59.82700424057105,
1000,1,0.0,3.7,0,0,31,31,46,,,,,140.41450640000403,141.06527239998104,141.06527239998104,141.56634979997762,315,45,141.56634979997762,141.56634979997762,141.56634979997762,141.56634979997762,141.56634979997762,141.56634979997762,141.56634979997762,141.56634979997762,141.56634979997762,141.91612449998502,141.91612449998502,141.91612449998502,141.91612449998502,141.91612449998502,141.91612449998502,141.91612449998502,141.91612449998502,141.91612449998502,0,1,[0.0012347999727353454],[0.3504935000091791],141.91612449998502,142.11844219994964,1000,142.13313549995655,1000,1000,1000,1000,1,num_2,0.47407890000613406,,23,13,2026-03-04_14h29.15.198,2026A_exp2,2022.2.4,59.82700424057105,
1,0,0.0,3.7,1,0,32,32,35,,,,,142.63347760000033,143.28405039996142,143.28405039996142,143.78535589994863,45,315,143.78535589994863,143.78535589994863,143.78535589994863,143.78535589994863,143.78535589994863,143.78535589994863,143.78535589994863,143.78535589994863,143.78535589994863,144.15132679999806,144.15132679999806,144.15132679999806,144.15132679999806,144.15132679999806,144.15132679999806,144.15132679999806,144.15132679999806,144.15132679999806,0,1,[0.0012205999810248613],[0.36667419999139383],144.15132679999806,144.35194959997898,3.7,144.35194959997898,1,3.7,1,1,1000,num_4,0.5514887000317685,,23,13,2026-03-04_14h29.15.198,2026A_exp2,2022.2.4,59.82700424057105,
1,0,3.7,6.1,0,0,33,33,52,,,,,144.91904639999848,145.56984319997719,145.56984319997719,146.05425599997398,45,45,146.05425599997398,146.05425599997398,146.05425599997398,146.05425599997398,146.05425599997398,146.05425599997398,146.05425599997398,146.05425599997398,146.05425599997398,146.42046499997377,146.42046499997377,146.42046499997377,146.42046499997377,146.42046499997377,146.42046499997377,146.42046499997377,146.42046499997377,146.42046499997377,23,0,,,146.42046499997377,146.62085619999561,3.7,146.62085619999561,0,3.7,1,0,1000,num_1,0.70735290000448,,23,13,2026-03-04_14h29.15.198,2026A_exp2,2022.2.4,59.82700424057105,
1,0,6.1,4.9,1,0,34,34,64,,,,,147.35482690000208,148.00550999998813,148.00550999998813,148.50665639998624,45,315,148.50665639998624,148.50665639998624,148.50665639998624,148.50665639998624,148.50665639998624,148.50665639998624,148.50665639998624,148.50665639998624,148.50665639998624,148.85639609995997,148.85639609995997,148.85639609995997,148.85639609995997,148.85639609995997,148.85639609995997,148.85639609995997,148.85639609995997,148.85639609995997,15,2,"[0.0007610000320710242, 0.050498399999924004]","[0.03370510000968352, 0.13423989998409525]",148.85639609995997,149.05665469996165,4.9,149.05665469996165,0,4.9,1,0,1000,num_1,0.6154474999639206,,23,13,2026-03-04_14h29.15.198,2026A_exp2,2022.2.4,59.82700424057105,
1,0,6.1,3.7,1,0,35,35,51,,,,,149.69066799996654,150.34118149999995,150.34118149999995,150.82566410000436,45,45,150.82566410000436,150.82566410000436,150.82566410000436,150.82566410000436,150.82566410000436,150.82566410000436,150.82566410000436,150.82566410000436,150.82566410000436,151.19193179998547,151.19193179998547,151.19193179998547,151.19193179998547,151.19193179998547,151.19193179998547,151.19193179998547,151.19193179998547,151.19193179998547,23,0,,,151.19193179998547,151.39225259999512,3.7,151.39225259999512,0,3.7,1,0,1000,num_1,0.6081814999924973,,23,13,2026-03-04_14h29.15.198,2026A_exp2,2022.2.4,59.82700424057105,
1000,1,6.1,0.0,1,0,36,36,29,,,,,152.0263545999769,152.67683489999035,152.67683489999035,153.16144279995933,45,45,153.16144279995933,153.16144279995933,153.16144279995933,153.16144279995933,153.16144279995933,153.16144279995933,153.16144279995933,153.16144279995933,153.16144279995933,153.52776019996963,153.52776019996963,153.52776019996963,153.52776019996963,153.52776019996963,153.52776019996963,153.52776019996963,153.52776019996963,153.52776019996963,19,1,[0.017336900054942816],[0.08347150002373382],153.52776019996963,153.7303137999843,1000,153.7303137999843,1000,1000,1000,1000,0,num_3,0.7096896999864839,,23,13,2026-03-04_14h29.15.198,2026A_exp2,2022.2.4,59.82700424057105,
1,0,6.1,0.0,0,0,37,37,21,,,,,154.46198500000173,155.09604819997912,155.09604819997912,155.59698519995436,45,315,155.59698519995436,155.59698519995436,155.59698519995436,155.59698519995436,155.59698519995436,155.59698519995436,155.59698519995436,155.59698519995436,155.59698519995436,155.96346459997585,155.96346459997585,155.96346459997585,155.96346459997585,155.96346459997585,155.96346459997585,155.96346459997585,155.96346459997585,155.96346459997585,0,1,[0.001279400021303445],[0.3670879999990575],155.96346459997585,156.16372129996307,6.1,156.16372129996307,1,6.1,1,1,1000,num_4,0.6039528999826871,,23,13,2026-03-04_14h29.15.198,2026A_exp2,2022.2.4,59.82700424057105,
1,0,0.0,3.7,1,0,38,38,32,,,,,156.79784189997008,157.43163219996495,157.43163219996495,157.93276639998658,315,45,157.93276639998658,157.93276639998658,157.93276639998658,157.93276639998658,157.93276639998658,157.93276639998658,157.93276639998658,157.93276639998658,157.93276639998658,158.2991822999902,158.2991822999902,158.2991822999902,158.2991822999902,158.2991822999902,158.2991822999902,158.2991822999902,158.2991822999902,158.2991822999902,9,1,[0.0012117000296711922],[0.23385790002066642],158.2991822999902,158.49934639997082,3.7,158.49934639997082,1,3.7,1,1,1000,num_4,1.3877287999494001,,23,13,2026-03-04_14h29.15.198,2026A_exp2,2022.2.4,59.82700424057105,
1000,1,0.0,6.1,1,0,39,39,71,,,,,159.91718339995714,160.56808739999542,160.56808739999542,161.05257649999112,315,45,161.05257649999112,161.05257649999112,161.05257649999112,161.05257649999112,161.05257649999112,161.05257649999112,161.05257649999112,161.05257649999112,161.05257649999112,161.41893439996056,161.41893439996056,161.41893439996056,161.41893439996056,161.41893439996056,161.41893439996056,161.41893439996056,161.41893439996056,161.41893439996056,23,0,,,161.41893439996056,161.62085720000323,1000,161.62085720000323,1000,1000,1000,1000,1,num_2,0.6027362000313587,,23,13,2026-03-04_14h29.15.198,2026A_exp2,2022.2.4,59.82700424057105,
1000,1,6.1,3.7,0,0,40,40,75,,,,,162.25286129995948,162.8871347999666,162.8871347999666,163.38815489999251,45,45,163.38815489999251,163.38815489999251,163.38815489999251,163.38815489999251,163.38815489999251,163.38815489999251,163.38815489999251,163.38815489999251,163.38815489999251,163.7544421000057,163.7544421000057,163.7544421000057,163.7544421000057,163.7544421000057,163.7544421000057,163.7544421000057,163.7544421000057,163.7544421000057,2,1,[0.03345649997936562],[0.3670568999950774],163.7544421000057,163.95690900000045,1000,163.95690900000045,1000,1000,1000,1000,0,num_3,0.6185802000109106,,23,13,2026-03-04_14h29.15.198,2026A_exp2,2022.2.4,59.82700424057105,
1000,1,0.0,0.0,1,0,41,41,78,,,,,164.60540539998328,165.25600599998143,165.25600599998143,165.75729359994875,315,315,165.75729359994875,165.75729359994875,165.75729359994875,165.75729359994875,165.75729359994875,165.75729359994875,165.75729359994875,165.75729359994875,165.75729359994875,166.1236597999814,166.1236597999814,166.1236597999814,166.1236597999814,166.1236597999814,166.1236597999814,166.1236597999814,166.1236597999814,166.1236597999814,0,1,[0.0013146999990567565],[0.3670945999911055],166.1236597999814,166.32605659996625,1000,166.32605659996625,1000,1000,1000,1000,1,num_2,0.41712390002794564,,23,13,2026-03-04_14h29.15.198,2026A_exp2,2022.2.4,59.82700424057105,
1,0,0.0,0.0,1,0,42,42,39,,,,,166.77429529995425,167.42501069995342,167.42501069995342,167.90953549998812,45,45,167.90953549998812,167.90953549998812,167.90953549998812,167.90953549998812,167.90953549998812,167.90953549998812,167.90953549998812,167.90953549998812,167.90953549998812,168.27565309999045,168.27565309999045,168.27565309999045,168.27565309999045,168.27565309999045,168.27565309999045,168.27565309999045,168.27565309999045,168.27565309999045,6,3,"[0.03326659998856485, 0.31715000001713634, 0.3504293999867514]","[0.2669744999730028, 0.33374640002148226, 0.3671330999932252]",168.27565309999045,168.47592429997167,0.0,168.47592429997167,1,0.0,0,0,1000,num_4,0.8445022999658249,,23,13,2026-03-04_14h29.15.198,2026A_exp2,2022.2.4,59.82700424057105,
1,0,6.1,0.0,1,0,43,43,80,,,,,169.34342150000157,169.99438309995458,169.99438309995458,170.47853849997045,315,315,170.47853849997045,170.47853849997045,170.47853849997045,170.47853849997045,170.47853849997045,170.47853849997045,170.47853849997045,170.47853849997045,170.47853849997045,170.84500259999186,170.84500259999186,170.84500259999186,170.84500259999186,170.84500259999186,170.84500259999186,170.84500259999186,170.84500259999186,170.84500259999186,11,2,"[0.0012529999949038029, 0.26701090001733974]","[0.09970820002490655, 0.3671817000140436]",170.84500259999186,171.04527949995827,0.0,171.04527949995827,0,0.0,0,1,1000,num_1,0.6105053999926895,,23,13,2026-03-04_14h29.15.198,2026A_exp2,2022.2.4,59.82700424057105,
1000,1,4.9,4.9,1,0,44,44,68,,,,,171.67913309996948,172.3298622999573,172.3298622999573,172.83088179997867,45,45,172.83088179997867,172.83088179997867,172.83088179997867,172.83088179997867,172.83088179997867,172.83088179997867,172.83088179997867,172.83088179997867,172.83088179997867,173.18075969995698,173.18075969995698,173.18075969995698,173.18075969995698,173.18075969995698,173.18075969995698,173.18075969995698,173.18075969995698,173.18075969995698,0,1,[0.0012075999984517694],[0.3504536999971606],173.18075969995698,173.38229019998107,1000,173.38229019998107,1000,1000,1000,1000,0,num_3,0.584620299981907,,23,13,2026-03-04_14h29.15.198,2026A_exp2,2022.2.4,59.82700424057105,
1000,1,6.1,0.0,1,0,45,45,25,,,,,173.99832719995175,174.6488731999998,174.6488731999998,175.15008459996898,315,315,175.15008459996898,175.15008459996898,175.15008459996898,175.15008459996898,175.15008459996898,175.15008459996898,175.15008459996898,175.15008459996898,175.15008459996898,175.49964069999987,175.49964069999987,175.49964069999987,175.49964069999987,175.49964069999987,175.49964069999987,175.49964069999987,175.49964069999987,175.49964069999987,0,1,[0.0012369999894872308],[0.3501910999766551],175.49964069999987,175.70196859998396,1000,175.71660379995592,1000,1000,1000,1000,0,num_3,0.5066626000334509,,23,13,2026-03-04_14h29.15.198,2026A_exp2,2022.2.4,59.82700424057105,
1000,1,0.0,0.0,1,0,46,46,9,,,,,176.25042989995563,176.9010102999746,176.9010102999746,177.4021711999667,45,315,177.4021711999667,177.4021711999667,177.4021711999667,177.4021711999667,177.4021711999667,177.4021711999667,177.4021711999667,177.4021711999667,177.4021711999667,177.7686789999716,177.7686789999716,177.7686789999716,177.7686789999716,177.7686789999716,177.7686789999716,177.7686789999716,177.7686789999716,177.7686789999716,0,1,[0.0012771000037901103],[0.3673410000046715],177.7686789999716,177.97094279999146,1000,177.97094279999146,1000,1000,1000,1000,0,num_3,0.9800117999548092,,23,13,2026-03-04_14h29.15.198,2026A_exp2,2022.2.4,59.82700424057105,
1000,1,0.0,4.9,0,0,47,47,6,,,,,178.9698669000063,179.6205134000047,179.6205134000047,180.12164109997684,315,315,180.12164109997684,180.12164109997684,180.12164109997684,180.12164109997684,180.12164109997684,180.12164109997684,180.12164109997684,180.12164109997684,180.12164109997684,180.47131150000496,180.47131150000496,180.47131150000496,180.47131150000496,180.47131150000496,180.47131150000496,180.47131150000496,180.47131150000496,180.47131150000496,7,1,[0.11689110001316294],[0.3504889000323601],180.47131150000496,180.6841776999645,1000,180.6841776999645,1000,1000,1000,1000,1,num_2,0.500189800048247,,23,13,2026-03-04_14h29.15.198,2026A_exp2,2022.2.4,59.82700424057105,
1,0,0.0,6.1,1,0,48,48,36,,,,,181.20562839997,181.85597929998767,181.85597929998767,182.35731099999975,315,315,182.35731099999975,182.35731099999975,182.35731099999975,182.35731099999975,182.35731099999975,182.35731099999975,182.35731099999975,182.35731099999975,182.35731099999975,182.72354399994947,182.72354399994947,182.72354399994947,182.72354399994947,182.72354399994947,182.72354399994947,182.72354399994947,182.72354399994947,182.72354399994947,8,2,"[0.0012538000009953976, 0.15028860000893474]","[0.10011900000972673, 0.3003448999952525]",182.72354399994947,182.92379909998272,6.1,182.92379909998272,1,6.1,1,1,1000,num_4,0.5800368000054732,,23,13,2026-03-04_14h29.15.198,2026A_exp2,2022.2.4,59.82700424057105,
1000,1,3.7,3.7,0,0,49,49,63,,,,,183.524253999989,184.1750254999497,184.1750254999497,184.65928299998632,315,315,184.65928299998632,184.65928299998632,184.65928299998632,184.65928299998632,184.65928299998632,184.65928299998632,184.65928299998632,184.65928299998632,184.65928299998632,185.0258915000013,185.0258915000013,185.0258915000013,185.0258915000013,185.0258915000013,185.0258915000013,185.0258915000013,185.0258915000013,185.0258915000013,4,1,[0.06672010000329465],[0.3666818999918178],185.0258915000013,185.22855089994846,1000,185.22855089994846,1000,1000,1000,1000,0,num_3,1.2029407999943942,,23,13,2026-03-04_14h29.15.198,2026A_exp2,2022.2.4,59.82700424057105,
1000,1,3.7,6.1,1,0,50,50,48,,,,,186.460637399985,187.1113245000015,187.1113245000015,187.61245659994893,45,45,187.61245659994893,187.61245659994893,187.61245659994893,187.61245659994893,187.61245659994893,187.61245659994893,187.61245659994893,187.61245659994893,187.61245659994893,187.97882279998157,187.97882279998157,187.97882279998157,187.97882279998157,187.97882279998157,187.97882279998157,187.97882279998157,187.97882279998157,187.97882279998157,23,0,,,187.97882279998157,188.18114639999112,1000,188.18114639999112,1000,1000,1000,1000,1,num_2,0.5138487999793142,,23,13,2026-03-04_14h29.15.198,2026A_exp2,2022.2.4,59.82700424057105,
1,0,3.7,4.9,1,0,51,51,20,,,,,188.71300779999,189.3636172999977,189.3636172999977,189.86472539999522,45,45,189.86472539999522,189.86472539999522,189.86472539999522,189.86472539999522,189.86472539999522,189.86472539999522,189.86472539999522,189.86472539999522,189.86472539999522,190.23115369997686,190.23115369997686,190.23115369997686,190.23115369997686,190.23115369997686,190.23115369997686,190.23115369997686,190.23115369997686,190.23115369997686,13,3,"[0.16661720001138747, 0.21701150003354996, 0.25034600001526996]","[0.18336399999679998, 0.23368950001895428, 0.3671436000149697]",190.23115369997686,190.43115829996532,4.9,190.43115829996532,1,4.9,1,1,1000,num_4,0.671879599976819,,23,13,2026-03-04_14h29.15.198,2026A_exp2,2022.2.4,59.82700424057105,
1,0,0.0,0.0,0,0,52,52,88,,,,,191.13193239999237,191.782699399977,191.782699399977,192.26703759998782,45,315,192.26703759998782,192.26703759998782,192.26703759998782,192.26703759998782,192.26703759998782,192.26703759998782,192.26703759998782,192.26703759998782,192.26703759998782,192.63346779998392,192.63346779998392,192.63346779998392,192.63346779998392,192.63346779998392,192.63346779998392,192.63346779998392,192.63346779998392,192.63346779998392,23,0,,,192.63346779998392,192.83363829995506,0.0,192.83363829995506,1,0.0,0,0,1000,num_4,0.6220441000186838,,23,13,2026-03-04_14h29.15.198,2026A_exp2,2022.2.4,59.82700424057105,
1,0,0.0,0.0,1,0,53,53,42,,,,,193.4843586999923,194.1347821999807,194.1347821999807,194.6193917999626,315,45,194.6193917999626,194.6193917999626,194.6193917999626,194.6193917999626,194.6193917999626,194.6193917999626,194.6193917999626,194.6193917999626,194.6193917999626,194.98586389998673,194.98586389998673,194.98586389998673,194.98586389998673,194.98586389998673,194.98586389998673,194.98586389998673,194.98586389998673,194.98586389998673,0,1,[0.0008215000270865858],[0.3670666000107303],194.98586389998673,195.18615919997683,0.0,195.18615919997683,1,0.0,0,0,1000,num_4,1.4377281999913976,,23,13,2026-03-04_14h29.15.198,2026A_exp2,2022.2.4,59.82700424057105,
1000,1,6.1,6.1,1,0,54,54,4,,,,,196.65409859997453,197.30478929996025,197.30478929996025,197.78912169998512,45,45,197.78912169998512,197.78912169998512,197.78912169998512,197.78912169998512,197.78912169998512,197.78912169998512,197.78912169998512,197.78912169998512,197.78912169998512,198.15571059996728,198.15571059996728,198.15571059996728,198.15571059996728,198.15571059996728,198.15571059996728,198.15571059996728,198.15571059996728,198.15571059996728,16,3,"[0.2337072000373155, 0.26704160001827404, 0.3504959000274539]","[0.2503768000169657, 0.3337473000283353, 0.3671211000182666]",198.15571059996728,198.35807449999265,1000,198.35807449999265,1000,1000,1000,1000,1,num_2,0.48119650001171976,,23,13,2026-03-04_14h29.15.198,2026A_exp2,2022.2.4,59.82700424057105,
1,0,3.7,4.9,1,0,55,55,18,,,,,198.85645799996564,199.5071208999725,199.5071208999725,200.00791299995035,315,45,200.00791299995035,200.00791299995035,200.00791299995035,200.00791299995035,200.00791299995035,200.00791299995035,200.00791299995035,200.00791299995035,200.00791299995035,200.3746489000041,200.3746489000041,200.3746489000041,200.3746489000041,200.3746489000041,200.3746489000041,200.3746489000041,200.3746489000041,200.3746489000041,21,1,[0.017055800009984523],[0.049826900009065866],200.3746489000041,200.57471739995526,4.9,200.57471739995526,1,4.9,1,1,1000,num_4,0.6972447999869473,,23,13,2026-03-04_14h29.15.198,2026A_exp2,2022.2.4,59.82700424057105,
1000,1,4.9,3.7,0,0,56,56,40,,,,,201.29206469998462,201.94277189997956,201.94277189997956,202.42698009999003,315,45,202.42698009999003,202.42698009999003,202.42698009999003,202.42698009999003,202.42698009999003,202.42698009999003,202.42698009999003,202.42698009999003,202.42698009999003,202.79367569996975,202.79367569996975,202.79367569996975,202.79367569996975,202.79367569996975,202.79367569996975,202.79367569996975,202.79367569996975,202.79367569996975,7,3,"[0.0012640999630093575, 0.15047759999288246, 0.2838419999461621]","[0.13364509999519214, 0.25045669998507947, 0.3338225999614224]",202.79367569996975,202.99574529996607,1000,202.99574529996607,1000,1000,1000,1000,0,num_3,0.563839900016319,,23,13,2026-03-04_14h29.15.198,2026A_exp2,2022.2.4,59.82700424057105,
1000,1,3.7,0.0,0,0,57,57,76,,,,,203.5776659999974,204.22853490000125,204.22853490000125,204.72936589998426,45,315,204.72936589998426,204.72936589998426,204.72936589998426,204.72936589998426,204.72936589998426,204.72936589998426,204.72936589998426,204.72936589998426,204.72936589998426,205.09566609998,205.09566609998,205.09566609998,205.09566609998,205.09566609998,205.09566609998,205.09566609998,205.09566609998,205.09566609998,15,1,[0.0012009999481961131],[0.13361589994747192],205.09566609998,205.2982565999846,1000,205.2982565999846,1000,1000,1000,1000,0,num_3,0.4458536999882199,,23,13,2026-03-04_14h29.15.198,2026A_exp2,2022.2.4,59.82700424057105,
1000,1,3.7,3.7,0,0,58,58,72,,,,,205.76330459996825,206.41381989995716,206.41381989995716,206.91493899998022,45,315,206.91493899998022,206.91493899998022,206.91493899998022,206.91493899998022,206.91493899998022,206.91493899998022,206.91493899998022,206.91493899998022,206.91493899998022,207.2815042999573,207.2815042999573,207.2815042999573,207.2815042999573,207.2815042999573,207.2815042999573,207.2815042999573,207.2815042999573,207.2815042999573,23,0,,,207.2815042999573,207.4837480999995,1000,207.4837480999995,1000,1000,1000,1000,0,num_3,0.4195707000326365,,23,13,2026-03-04_14h29.15.198,2026A_exp2,2022.2.4,59.82700424057105,
0,0,4.9,3.7,0,0,59,59,28,,,,,207.9320462999749,208.58266339998227,208.58266339998227,209.083989799954,45,45,209.083989799954,209.083989799954,209.083989799954,209.083989799954,209.083989799954,209.083989799954,209.083989799954,209.083989799954,209.083989799954,209.45038110000314,209.45038110000314,209.45038110000314,209.45038110000314,209.45038110000314,209.45038110000314,209.45038110000314,209.45038110000314,209.45038110000314,11,7,"[0.017703199991956353, 0.11726319999434054, 0.18390939995879307, 0.23400619998574257, 0.28398639999795705, 0.31733119999989867, 0.3675103000132367]","[0.06710970000131056, 0.13357830001041293, 0.2172046999912709, 0.2673752999980934, 0.30073600000469014, 0.3508017999702133, 0.3675148999900557]",209.45038110000314,209.65058729995508,3.7,209.65058729995508,0,3.7,1,0,1000,num_1,0.5888105999911204,,23,13,2026-03-04_14h29.15.198,2026A_exp2,2022.2.4,59.82700424057105,
1000,1,0.0,0.0,0,0,60,60,86,,,,,210.26774979999755,210.91841209999984,210.91841209999984,211.41856469999766,45,315,211.41856469999766,211.41856469999766,211.41856469999766,211.41856469999766,211.41856469999766,211.41856469999766,211.41856469999766,211.41856469999766,211.41856469999766,211.76945649995469,211.76945649995469,211.76945649995469,211.76945649995469,211.76945649995469,211.76945649995469,211.76945649995469,211.76945649995469,211.76945649995469,1,2,"[0.004474800021853298, 0.2501174000208266]","[0.23208250000607222, 0.3654902000562288]",211.76945649995469,211.98590649996186,1000,211.98590649996186,1000,1000,1000,1000,1,num_2,0.6778797999722883,,23,13,2026-03-04_14h29.15.198,2026A_exp2,2022.2.4,59.82700424057105,
0,0,6.1,4.9,0,0,61,61,22,,,,,212.6870127999573,213.33742999995593,213.33742999995593,213.8387622999726,315,45,213.8387622999726,213.8387622999726,213.8387622999726,213.8387622999726,213.8387622999726,213.8387622999726,213.8387622999726,213.8387622999726,213.8387622999726,214.20503709994955,214.20503709994955,214.20503709994955,214.20503709994955,214.20503709994955,214.20503709994955,214.20503709994955,214.20503709994955,214.20503709994955,23,0,,,214.20503709994955,214.40531639999244,4.9,214.40531639999244,1,4.9,1,1,1000,num_4,0.7543203000095673,,23,13,2026-03-04_14h29.15.198,2026A_exp2,2022.2.4,59.82700424057105,
1000,1,0.0,0.0,0,0,62,62,5,,,,,215.18921969999792,215.84016139997402,215.84016139997402,216.32442669995362,45,45,216.32442669995362,216.32442669995362,216.32442669995362,216.32442669995362,216.32442669995362,216.32442669995362,216.32442669995362,216.32442669995362,216.32442669995362,216.6909161999938,216.6909161999938,216.6909161999938,216.6909161999938,216.6909161999938,216.6909161999938,216.6909161999938,216.6909161999938,216.6909161999938,23,0,,,216.6909161999938,216.89275319996523,1000,216.89275319996523,1000,1000,1000,1000,0,num_3,0.7708740999805741,,23,13,2026-03-04_14h29.15.198,2026A_exp2,2022.2.4,59.82700424057105,
0,0,0.0,0.0,0,0,63,63,59,,,,,217.6918416999979,218.34246169996914,218.34246169996914,218.84364149998873,315,45,218.84364149998873,218.84364149998873,218.84364149998873,218.84364149998873,218.84364149998873,218.84364149998873,218.84364149998873,218.84364149998873,218.84364149998873,219.2100286000059,219.2100286000059,219.2100286000059,219.2100286000059,219.2100286000059,219.2100286000059,219.2100286000059,219.2100286000059,219.2100286000059,23,0,,,219.2100286000059,219.41030150000006,0.0,219.41030150000006,0,0.0,0,1,1000,num_1,0.6609833000111394,,23,13,2026-03-04_14h29.15.198,2026A_exp2,2022.2.4,59.82700424057105,
1000,1,0.0,4.9,0,0,64,64,26,,,,,220.09427479997976,220.74483569996664,220.74483569996664,221.22933119995287,45,45,221.22933119995287,221.22933119995287,221.22933119995287,221.22933119995287,221.22933119995287,221.22933119995287,221.22933119995287,221.22933119995287,221.22933119995287,221.59582409996074,221.59582409996074,221.59582409996074,221.59582409996074,221.59582409996074,221.59582409996074,221.59582409996074,221.59582409996074,221.59582409996074,23,0,,,221.59582409996074,221.7977626999491,1000,221.7977626999491,1000,1000,1000,1000,1,num_2,0.39394460001494735,,23,13,2026-03-04_14h29.15.198,2026A_exp2,2022.2.4,59.82700424057105,
1,0,6.1,0.0,1,0,65,65,70,,,,,222.21285479998915,222.85792989999754,222.85792989999754,223.34819170000264,45,45,223.34819170000264,223.34819170000264,223.34819170000264,223.34819170000264,223.34819170000264,223.34819170000264,223.34819170000264,223.34819170000264,223.34819170000264,223.7144561999594,223.7144561999594,223.7144561999594,223.7144561999594,223.7144561999594,223.7144561999594,223.7144561999594,223.7144561999594,223.7144561999594,14,4,"[0.03338749997783452, 0.15017969999462366, 0.23374260001583025, 0.28368809999665245]","[0.05009939998853952, 0.20036780001828447, 0.2503938000299968, 0.33385789999738336]",223.7144561999594,223.91482579999138,0.0,223.91482579999138,0,0.0,0,1,1000,num_1,0.4764745000284165,,23,13,2026-03-04_14h29.15.198,2026A_exp2,2022.2.4,59.82700424057105,
1000,1,4.9,0.0,1,0,66,66,77,,,,,224.4152197999647,225.06599999999162,225.06599999999162,225.5503972999868,315,45,225.5503972999868,225.5503972999868,225.5503972999868,225.5503972999868,225.5503972999868,225.5503972999868,225.5503972999868,225.5503972999868,225.5503972999868,225.91679869999643,225.91679869999643,225.91679869999643,225.91679869999643,225.91679869999643,225.91679869999643,225.91679869999643,225.91679869999643,225.91679869999643,23,0,,,225.91679869999643,226.11919769999804,1000,226.11919769999804,1000,1000,1000,1000,0,num_3,0.473124599957373,,23,13,2026-03-04_14h29.15.198,2026A_exp2,2022.2.4,59.82700424057105,
1000,1,6.1,0.0,0,0,67,67,81,,,,,226.6173801999539,227.2681270999601,227.2681270999601,227.76922789996024,45,315,227.76922789996024,227.76922789996024,227.76922789996024,227.76922789996024,227.76922789996024,227.76922789996024,227.76922789996024,227.76922789996024,227.76922789996024,228.13567109999713,228.13567109999713,228.13567109999713,228.13567109999713,228.13567109999713,228.13567109999713,228.13567109999713,228.13567109999713,228.13567109999713,23,0,,,228.13567109999713,228.33784759999253,1000,228.33784759999253,1000,1000,1000,1000,0,num_3,0.40619650000007823,,23,13,2026-03-04_14h29.15.198,2026A_exp2,2022.2.4,59.82700424057105,
1,0,0.0,6.1,1,0,68,68,31,,,,,228.76958769996418,229.42038309999043,229.42038309999043,229.92136489995755,315,45,229.92136489995755,229.92136489995755,229.92136489995755,229.92136489995755,229.92136489995755,229.92136489995755,229.92136489995755,229.92136489995755,229.92136489995755,230.287702600006,230.287702600006,230.287702600006,230.287702600006,230.287702600006,230.287702600006,230.287702600006,230.287702600006,230.287702600006,9,4,"[0.0012058999855071306, 0.08327289996668696, 0.11660089995712042, 0.21686159999808297]","[0.04995929996948689, 0.09993419999955222, 0.20019329997012392, 0.30023549997713417]",230.287702600006,230.48805529996753,6.1,230.48805529996753,1,6.1,1,1,1000,num_4,0.5519646999891847,,23,13,2026-03-04_14h29.15.198,2026A_exp2,2022.2.4,59.82700424057105,
1000,1,3.7,4.9,0,0,69,69,45,,,,,231.07206169998972,231.7226127999602,231.7226127999602,232.207079899963,45,45,232.207079899963,232.207079899963,232.207079899963,232.207079899963,232.207079899963,232.207079899963,232.207079899963,232.207079899963,232.207079899963,232.57340509997448,232.57340509997448,232.57340509997448,232.57340509997448,232.57340509997448,232.57340509997448,232.57340509997448,232.57340509997448,232.57340509997448,21,1,[0.3005202999920584],[0.3339999999734573],232.57340509997448,232.77553649997571,1000,232.77553649997571,1000,1000,1000,1000,1,num_2,0.7920838000136428,,23,13,2026-03-04_14h29.15.198,2026A_exp2,2022.2.4,59.82700424057105,
1,0,0.0,0.0,0,0,70,70,55,,,,,233.59109319996787,234.2416532000061,234.2416532000061,234.72622829995817,315,315,234.72622829995817,234.72622829995817,234.72622829995817,234.72622829995817,234.72622829995817,234.72622829995817,234.72622829995817,234.72622829995817,234.72622829995817,235.09259620000375,235.09259620000375,235.09259620000375,235.09259620000375,235.09259620000375,235.09259620000375,235.09259620000375,235.09259620000375,235.09259620000375,23,0,,,235.09259620000375,235.29289250000147,0.0,235.29289250000147,0,0.0,0,1,1000,num_1,0.6186076999874786,,23,13,2026-03-04_14h29.15.198,2026A_exp2,2022.2.4,59.82700424057105,
1000,1,4.9,0.0,0,0,71,71,41,,,,,235.94371969997883,236.59410009998828,236.59410009998828,237.07852149999235,315,45,237.07852149999235,237.07852149999235,237.07852149999235,237.07852149999235,237.07852149999235,237.07852149999235,237.07852149999235,237.07852149999235,237.07852149999235,237.4449962999788,237.4449962999788,237.4449962999788,237.4449962999788,237.4449962999788,237.4449962999788,237.4449962999788,237.4449962999788,237.4449962999788,23,0,,,237.4449962999788,237.6468501999625,1000,237.6468501999625,1000,1000,1000,1000,0,num_3,0.385332899983041,,23,13,2026-03-04_14h29.15.198,2026A_exp2,2022.2.4,59.82700424057105,
1000,1,6.1,0.0,1,0,72,72,57,,,,,238.06205149996094,238.71289099997375,238.71289099997375,239.21398389997194,45,45,239.21398389997194,239.21398389997194,239.21398389997194,239.21398389997194,239.21398389997194,239.21398389997194,239.21398389997194,239.21398389997194,239.21398389997194,239.58047099999385,239.58047099999385,239.58047099999385,239.58047099999385,239.58047099999385,239.58047099999385,239.58047099999385,239.58047099999385,239.58047099999385,23,0,,,239.58047099999385,239.78101409994997,1000,239.78101409994997,1000,1000,1000,1000,0,num_3,0.418879599950742,,23,13,2026-03-04_14h29.15.198,2026A_exp2,2022.2.4,59.82700424057105,
1,0,0.0,6.1,1,0,73,73,50,,,,,240.231413099973,240.88172549998853,240.88172549998853,241.38278079999145,315,45,241.38278079999145,241.38278079999145,241.38278079999145,241.38278079999145,241.38278079999145,241.38278079999145,241.38278079999145,241.38278079999145,241.38278079999145,241.7493026999873,241.7493026999873,241.7493026999873,241.7493026999873,241.7493026999873,241.7493026999873,241.7493026999873,241.7493026999873,241.7493026999873,23,0,,,241.7493026999873,241.94936689996393,6.1,241.94936689996393,1,6.1,1,1,1000,num_4,0.5864672999596223,,23,13,2026-03-04_14h29.15.198,2026A_exp2,2022.2.4,59.82700424057105,
1000,1,0.0,0.0,0,0,74,74,15,,,,,242.55155449995073,243.2007485999493,243.2007485999493,243.70160699996632,315,315,243.70160699996632,243.70160699996632,243.70160699996632,243.70160699996632,243.70160699996632,243.70160699996632,243.70160699996632,243.70160699996632,243.70160699996632,244.06824469997082,244.06824469997082,244.06824469997082,244.06824469997082,244.06824469997082,244.06824469997082,244.06824469997082,244.06824469997082,244.06824469997082,23,0,,,244.06824469997082,244.27043400000548,1000,244.27043400000548,1000,1000,1000,1000,1,num_2,0.49754350003786385,,23,13,2026-03-04_14h29.15.198,2026A_exp2,2022.2.4,59.82700424057105,
1000,1,0.0,0.0,1,0,75,75,1,,,,,244.78548489999957,245.43625039997278,245.43625039997278,245.93734259996563,45,315,245.93734259996563,245.93734259996563,245.93734259996563,245.93734259996563,245.93734259996563,245.93734259996563,245.93734259996563,245.93734259996563,245.93734259996563,246.3038424999686,246.3038424999686,246.3038424999686,246.3038424999686,246.3038424999686,246.3038424999686,246.3038424999686,246.3038424999686,246.3038424999686,23,0,,,246.3038424999686,246.50592490000417,1000,246.50592490000417,1000,1000,1000,1000,0,num_3,0.6301228000083938,,23,13,2026-03-04_14h29.15.198,2026A_exp2,2022.2.4,59.82700424057105,
1,0,6.1,0.0,0,0,76,76,47,,,,,247.15467039996292,247.80536040000152,247.80536040000152,248.30630799999926,45,45,248.30630799999926,248.30630799999926,248.30630799999926,248.30630799999926,248.30630799999926,248.30630799999926,248.30630799999926,248.30630799999926,248.30630799999926,248.67280709999613,248.67280709999613,248.67280709999613,248.67280709999613,248.67280709999613,248.67280709999613,248.67280709999613,248.67280709999613,248.67280709999613,23,0,,,248.67280709999613,248.87300229998073,6.1,248.87300229998073,1,6.1,1,1,1000,num_4,0.5434155000257306,,23,13,2026-03-04_14h29.15.198,2026A_exp2,2022.2.4,59.82700424057105,
1000,1,0.0,6.1,1,0,77,77,43,,,,,249.44043590000365,250.0908449999988,250.0908449999988,250.592012899986,315,45,250.592012899986,250.592012899986,250.592012899986,250.592012899986,250.592012899986,250.592012899986,250.592012899986,250.592012899986,250.592012899986,250.94185599999037,250.94185599999037,250.94185599999037,250.94185599999037,250.94185599999037,250.94185599999037,250.94185599999037,250.94185599999037,250.94185599999037,22,0,,,250.94185599999037,251.14401279995218,1000,251.14401279995218,1000,1000,1000,1000,1,num_2,0.4242801000364125,,23,13,2026-03-04_14h29.15.198,2026A_exp2,2022.2.4,59.82700424057105,
0,0,6.1,0.0,0,0,78,78,74,,,,,251.59247219999088,252.24316709995037,252.24316709995037,252.74424009997165,315,45,252.74424009997165,252.74424009997165,252.74424009997165,252.74424009997165,252.74424009997165,252.74424009997165,252.74424009997165,252.74424009997165,252.74424009997165,253.11058069998398,253.11058069998398,253.11058069998398,253.11058069998398,253.11058069998398,253.11058069998398,253.11058069998398,253.11058069998398,253.11058069998398,23,0,,,253.11058069998398,253.31083360000048,0.0,253.31083360000048,0,0.0,0,1,1000,num_1,0.6328027000417933,,23,13,2026-03-04_14h29.15.198,2026A_exp2,2022.2.4,59.82700424057105,
1000,1,0.0,0.0,1,0,79,79,85,,,,,253.96130689996062,254.62198050000006,254.62198050000006,255.0965602999786,45,315,255.0965602999786,255.0965602999786,255.0965602999786,255.0965602999786,255.0965602999786,255.0965602999786,255.0965602999786,255.0965602999786,255.0965602999786,255.4630882999627,255.4630882999627,255.4630882999627,255.4630882999627,255.4630882999627,255.4630882999627,255.4630882999627,255.4630882999627,255.4630882999627,23,0,,,255.4630882999627,255.66519109997898,1000,255.66519109997898,1000,1000,1000,1000,0,num_3,0.7188983999658376,,23,13,2026-03-04_14h29.15.198,2026A_exp2,2022.2.4,59.82700424057105,
1000,1,0.0,0.0,0,0,80,80,7,,,,,256.4141263999627,257.06459679995896,257.06459679995896,257.54908799997065,315,315,257.54908799997065,257.54908799997065,257.54908799997065,257.54908799997065,257.54908799997065,257.54908799997065,257.54908799997065,257.54908799997065,257.54908799997065,257.9155126999831,257.9155126999831,257.9155126999831,257.9155126999831,257.9155126999831,257.9155126999831,257.9155126999831,257.9155126999831,257.9155126999831,23,0,,,257.9155126999831,258.11578559997724,1000,258.11578559997724,1000,1000,1000,1000,0,num_3,0.47664790000999346,,23,13,2026-03-04_14h29.15.198,2026A_exp2,2022.2.4,59.82700424057105,
1,0,0.0,0.0,1,0,81,81,69,,,,,258.6161261999514,259.26687269995455,259.26687269995455,259.76779579999857,315,315,259.76779579999857,259.76779579999857,259.76779579999857,259.76779579999857,259.76779579999857,259.76779579999857,259.76779579999857,259.76779579999857,259.76779579999857,260.1342123999493,260.1342123999493,260.1342123999493,260.1342123999493,260.1342123999493,260.1342123999493,260.1342123999493,260.1342123999493,260.1342123999493,23,0,,,260.1342123999493,260.3345852000057,0.0,260.3345852000057,1,0.0,0,0,1000,num_4,0.6489299000240862,,23,13,2026-03-04_14h29.15.198,2026A_exp2,2022.2.4,59.82700424057105,
1,0,0.0,0.0,0,0,82,82,24,,,,,261.0016627999721,261.652434299991,261.652434299991,262.13685939996503,45,45,262.13685939996503,262.13685939996503,262.13685939996503,262.13685939996503,262.13685939996503,262.13685939996503,262.13685939996503,262.13685939996503,262.13685939996503,262.5034107999527,262.5034107999527,262.5034107999527,262.5034107999527,262.5034107999527,262.5034107999527,262.5034107999527,262.5034107999527,262.5034107999527,23,0,,,262.5034107999527,262.70364459999837,0.0,262.70364459999837,1,0.0,0,0,1000,num_4,0.8725449999910779,,23,13,2026-03-04_14h29.15.198,2026A_exp2,2022.2.4,59.82700424057105,
0,0,0.0,0.0,1,0,83,83,2,,,,,263.60439100000076,264.25516070000594,264.25516070000594,264.7396325999871,315,45,264.7396325999871,264.7396325999871,264.7396325999871,264.7396325999871,264.7396325999871,264.7396325999871,264.7396325999871,264.7396325999871,264.7396325999871,265.10611359996255,265.10611359996255,265.10611359996255,265.10611359996255,265.10611359996255,265.10611359996255,265.10611359996255,265.10611359996255,265.10611359996255,23,0,,,265.10611359996255,265.3062543999986,0.0,265.3062543999986,1,0.0,0,0,1000,num_4,0.5736433999845758,,23,13,2026-03-04_14h29.15.198,2026A_exp2,2022.2.4,59.82700424057105,
1,0,4.9,3.7,1,0,84,84,27,,,,,265.9067736999714,266.55745419999585,266.55745419999585,267.04189150000457,315,315,267.04189150000457,267.04189150000457,267.04189150000457,267.04189150000457,267.04189150000457,267.04189150000457,267.04189150000457,267.04189150000457,267.04189150000457,267.4081864999607,267.4081864999607,267.4081864999607,267.4081864999607,267.4081864999607,267.4081864999607,267.4081864999607,267.4081864999607,267.4081864999607,23,0,,,267.4081864999607,267.6084273000015,3.7,267.6084273000015,0,3.7,1,0,1000,num_1,0.9030900000361726,,23,13,2026-03-04_14h29.15.198,2026A_exp2,2022.2.4,59.82700424057105,
1,0,3.7,3.7,1,0,85,85,30,,,,,268.54262429999653,269.1932442999678,269.1932442999678,269.6777247999562,45,45,269.6777247999562,269.6777247999562,269.6777247999562,269.6777247999562,269.6777247999562,269.6777247999562,269.6777247999562,269.6777247999562,269.6777247999562,270.0442547999555,270.0442547999555,270.0442547999555,270.0442547999555,270.0442547999555,270.0442547999555,270.0442547999555,270.0442547999555,270.0442547999555,21,1,[0.0669427000102587],[0.10058139998000115],270.0442547999555,270.2444574999972,3.7,270.2444574999972,0,3.7,1,0,1000,num_1,0.7228829000378028,,23,13,2026-03-04_14h29.15.198,2026A_exp2,2022.2.4,59.82700424057105,
1000,1,0.0,4.9,0,0,86,86,61,,,,,270.99509979999857,271.645933999971,271.645933999971,272.13033889996586,315,315,272.13033889996586,272.13033889996586,272.13033889996586,272.13033889996586,272.13033889996586,272.13033889996586,272.13033889996586,272.13033889996586,272.13033889996586,272.4962786999531,272.4962786999531,272.4962786999531,272.4962786999531,272.4962786999531,272.4962786999531,272.4962786999531,272.4962786999531,272.4962786999531,23,0,,,272.4962786999531,272.6990921999677,1000,272.6990921999677,1000,1000,1000,1000,1,num_2,0.5484027999918908,,23,13,2026-03-04_14h29.15.198,2026A_exp2,2022.2.4,59.82700424057105,
1000,1,3.7,0.0,1,0,87,87,38,,,,,273.26402279996546,273.91473869996844,273.91473869996844,274.41597929998534,45,45,274.41597929998534,274.41597929998534,274.41597929998534,274.41597929998534,274.41597929998534,274.41597929998534,274.41597929998534,274.41597929998534,274.41597929998534,274.78218849998666,274.78218849998666,274.78218849998666,274.78218849998666,274.78218849998666,274.78218849998666,274.78218849998666,274.78218849998666,274.78218849998666,23,0,,,274.78218849998666,274.98417849995894,1000,274.98417849995894,1000,1000,1000,1000,0,num_3,0.39883000002009794,,23,13,2026-03-04_14h29.15.198,2026A_exp2,2022.2.4,59.82700424057105,
1000,1,6.1,6.1,0,0,88,88,16,,,,,275.3995551999542,276.0502085000044,276.0502085000044,276.55140409996966,45,45,276.55140409996966,276.55140409996966,276.55140409996966,276.55140409996966,276.55140409996966,276.55140409996966,276.55140409996966,276.55140409996966,276.55140409996966,276.9176189999562,276.9176189999562,276.9176189999562,276.9176189999562,276.9176189999562,276.9176189999562,276.9176189999562,276.9176189999562,276.9176189999562,23,0,,,276.9176189999562,277.11954639997566,1000,277.11954639997566,1000,1000,1000,1000,1,num_2,1.1839173000189476,,23,13,2026-03-04_14h29.15.198,2026A_exp2,2022.2.4,59.82700424057105,
1,0,4.9,3.7,0,0,89,89,44,,,,,278.31919929996366,278.96988649998093,278.96988649998093,279.4872322999872,315,45,279.4872322999872,279.4872322999872,279.4872322999872,279.4872322999872,279.4872322999872,279.4872322999872,279.4872322999872,279.4872322999872,279.4872322999872,279.8373739999952,279.8373739999952,279.8373739999952,279.8373739999952,279.8373739999952,279.8373739999952,279.8373739999952,279.8373739999952,279.8373739999952,17,3,"[0.057574299979023635, 0.2476234000059776, 0.29726369999116287]","[0.0812654999899678, 0.2806127999792807, 0.3310537000070326]",279.8373739999952,280.0376619999879,4.9,280.0376619999879,1,4.9,1,1,1000,num_4,0.6824071999872103,,23,13,2026-03-04_14h29.15.198,2026A_exp2,2022.2.4,59.82700424057105,
,,,,,,,,,,,,,,,,,,,,,,,,,,,,,,,,,,,,,,,,,,,,,,,,,,,,280.7474305999931,,,,,,,
