validity,detectorcomp,contrastCW,contrastCCW,precueCWorCCW,block_80trials.thisRepN,block_80trials.thisTrialN,block_80trials.thisN,block_80trials.thisIndex,etRecord.started,etRecord.stopped,text.started,text.stopped,text_4.started,text_4.stopped,text_6.started,text_6.stopped,oriCW,oriCCW,roi_2.started,grating_UR.started,grating_UL.started,grating_LR.started,grating_LL.started,noise_UR.started,noise_UL.started,noise_LR.started,noise_LL.started,roi_2.stopped,grating_UR.stopped,grating_UL.stopped,grating_LR.stopped,grating_LL.stopped,noise_UR.stopped,noise_UL.stopped,noise_LR.stopped,noise_LL.stopped,outframe,roi_2.numLooks,roi_2.timesOn,roi_2.timesOff,text_2.started,text_2.stopped,probedcontrast,key_resp.started,respdetect,relevantContrast,correctDetect,TorFdetect,respCWorCCW,key_resp.keys,key_resp.rt,feedback_display_.started,participantNo,blockNo,date,expName,psychopyVersion,frameRate,
1,0,6.1,0.0,0,0,0,0,21,5.230004899203777e-05,5.230004899203777e-05,47.433549700072035,49.44433859991841,49.44433859991841,50.070775399915874,50.070775399915874,50.603060099994764,315,315,50.603060099994764,50.603060099994764,50.603060099994764,50.603060099994764,50.603060099994764,50.603060099994764,50.603060099994764,50.603060099994764,50.603060099994764,50.938208299921826,50.938208299921826,50.938208299921826,50.938208299921826,50.938208299921826,50.938208299921826,50.938208299921826,50.938208299921826,50.938208299921826,22,0,,,50.938208299921826,51.13829950010404,6.1,51.13829950010404,1,6.1,1,1,1000,num_4,0.9022052998188883,,31,4,2026-03-12_13h35.31.720,2026A_exp2,2022.2.4,59.94176058854945,
1000,1,6.1,6.1,1,0,1,1,8,,,,,52.056058400077745,52.70668269996531,52.70668269996531,53.207709500100464,45,45,53.207709500100464,53.207709500100464,53.207709500100464,53.207709500100464,53.207709500100464,53.207709500100464,53.207709500100464,53.207709500100464,53.207709500100464,53.57428409997374,53.57428409997374,53.57428409997374,53.57428409997374,53.57428409997374,53.57428409997374,53.57428409997374,53.57428409997374,53.57428409997374,23,0,,,53.57428409997374,53.779040900059044,1000,53.779040900059044,1000,1000,1000,1000,1,num_2,0.9504490999970585,,31,4,2026-03-12_13h35.31.720,2026A_exp2,2022.2.4,59.94176058854945,
1000,1,4.9,0.0,0,0,2,2,41,,,,,54.75881709996611,55.40936159994453,55.40936159994453,55.910435599973425,315,45,55.910435599973425,55.910435599973425,55.910435599973425,55.910435599973425,55.910435599973425,55.910435599973425,55.910435599973425,55.910435599973425,55.910435599973425,56.27691989997402,56.27691989997402,56.27691989997402,56.27691989997402,56.27691989997402,56.27691989997402,56.27691989997402,56.27691989997402,56.27691989997402,23,0,,,56.27691989997402,56.478912400081754,1000,56.478912400081754,1000,1000,1000,1000,0,num_3,0.6586730000562966,,31,4,2026-03-12_13h35.31.720,2026A_exp2,2022.2.4,59.94176058854945,
1,0,3.7,0.0,1,0,3,3,12,,,,,57.16122499993071,57.8214720999822,57.8214720999822,58.32814020011574,315,315,58.32814020011574,58.32814020011574,58.32814020011574,58.32814020011574,58.32814020011574,58.32814020011574,58.32814020011574,58.32814020011574,58.32814020011574,58.679340000031516,58.679340000031516,58.679340000031516,58.679340000031516,58.679340000031516,58.679340000031516,58.679340000031516,58.679340000031516,58.679340000031516,23,0,,,58.679340000031516,58.87983800005168,0.0,58.87983800005168,1,0.0,0,0,1000,num_4,1.4332225997932255,,31,4,2026-03-12_13h35.31.720,2026A_exp2,2022.2.4,59.94176058854945,
1000,1,0.0,0.0,0,0,4,4,15,,,,,60.33101309998892,60.98143810010515,60.98143810010515,61.465941899921745,45,45,61.465941899921745,61.465941899921745,61.465941899921745,61.465941899921745,61.465941899921745,61.465941899921745,61.465941899921745,61.465941899921745,61.465941899921745,61.83248300012201,61.83248300012201,61.83248300012201,61.83248300012201,61.83248300012201,61.83248300012201,61.83248300012201,61.83248300012201,61.83248300012201,23,0,,,61.83248300012201,62.03425669996068,1000,62.03425669996068,1000,1000,1000,1000,0,num_3,0.614422099897638,,31,4,2026-03-12_13h35.31.720,2026A_exp2,2022.2.4,59.94176058854945,
1000,1,0.0,0.0,1,0,5,5,1,,,,,62.66670259996317,63.31707979994826,63.31707979994826,63.818294500000775,45,45,63.818294500000775,63.818294500000775,63.818294500000775,63.818294500000775,63.818294500000775,63.818294500000775,63.818294500000775,63.818294500000775,63.818294500000775,64.1847896000836,64.1847896000836,64.1847896000836,64.1847896000836,64.1847896000836,64.1847896000836,64.1847896000836,64.1847896000836,64.1847896000836,23,0,,,64.1847896000836,64.38683339999989,1000,64.38683339999989,1000,1000,1000,1000,0,num_3,0.5106238997541368,,31,4,2026-03-12_13h35.31.720,2026A_exp2,2022.2.4,59.94176058854945,
1,0,0.0,0.0,0,0,6,6,55,,,,,64.9186641999986,65.569611400133,65.569611400133,66.07049870002083,315,315,66.07049870002083,66.07049870002083,66.07049870002083,66.07049870002083,66.07049870002083,66.07049870002083,66.07049870002083,66.07049870002083,66.07049870002083,66.43688779999502,66.43688779999502,66.43688779999502,66.43688779999502,66.43688779999502,66.43688779999502,66.43688779999502,66.43688779999502,66.43688779999502,23,0,,,66.43688779999502,66.63727049995214,0.0,66.63727049995214,0,0.0,0,1,1000,num_1,1.0840584998950362,,31,4,2026-03-12_13h35.31.720,2026A_exp2,2022.2.4,59.94176058854945,
1,0,0.0,6.1,1,0,7,7,36,,,,,67.73822679999284,68.38907629996538,68.38907629996538,68.8734963000752,45,45,68.8734963000752,68.8734963000752,68.8734963000752,68.8734963000752,68.8734963000752,68.8734963000752,68.8734963000752,68.8734963000752,68.8734963000752,69.23952900012955,69.23952900012955,69.23952900012955,69.23952900012955,69.23952900012955,69.23952900012955,69.23952900012955,69.23952900012955,69.23952900012955,23,0,,,69.23952900012955,69.44014880014583,6.1,69.44014880014583,1,6.1,1,1,1000,num_4,0.7204181998968124,,31,4,2026-03-12_13h35.31.720,2026A_exp2,2022.2.4,59.94176058854945,
1000,1,6.1,0.0,1,0,8,8,29,,,,,70.19064310006797,70.83253829996102,70.83253829996102,71.3399434001185,45,315,71.3399434001185,71.3399434001185,71.3399434001185,71.3399434001185,71.3399434001185,71.3399434001185,71.3399434001185,71.3399434001185,71.3399434001185,71.69241810007952,71.69241810007952,71.69241810007952,71.69241810007952,71.69241810007952,71.69241810007952,71.69241810007952,71.69241810007952,71.69241810007952,23,0,,,71.69241810007952,71.9063345999457,1000,71.9063345999457,1000,1000,1000,1000,0,num_3,0.5672958998475224,,31,4,2026-03-12_13h35.31.720,2026A_exp2,2022.2.4,59.94176058854945,
1000,1,3.7,0.0,0,0,9,9,56,,,,,72.49296690011397,73.14375760010444,73.14375760010444,73.64485400007106,45,315,73.64485400007106,73.64485400007106,73.64485400007106,73.64485400007106,73.64485400007106,73.64485400007106,73.64485400007106,73.64485400007106,73.64485400007106,74.01148710004054,74.01148710004054,74.01148710004054,74.01148710004054,74.01148710004054,74.01148710004054,74.01148710004054,74.01148710004054,74.01148710004054,23,0,,,74.01148710004054,74.21312780003063,1000,74.21312780003063,1000,1000,1000,1000,0,num_3,0.4441747998353094,,31,4,2026-03-12_13h35.31.720,2026A_exp2,2022.2.4,59.94176058854945,
1,0,4.9,3.7,1,0,10,10,27,,,,,74.67849160009064,75.32927330001257,75.32927330001257,75.83036800008267,45,45,75.83036800008267,75.83036800008267,75.83036800008267,75.83036800008267,75.83036800008267,75.83036800008267,75.83036800008267,75.83036800008267,75.83036800008267,76.19685710011981,76.19685710011981,76.19685710011981,76.19685710011981,76.19685710011981,76.19685710011981,76.19685710011981,76.19685710011981,76.19685710011981,23,0,,,76.19685710011981,76.39701910014264,3.7,76.39701910014264,1,3.7,1,1,1000,num_4,0.8596705999225378,,31,4,2026-03-12_13h35.31.720,2026A_exp2,2022.2.4,59.94176058854945,
1,0,4.9,3.7,0,0,11,11,44,,,,,77.28098889999092,77.93190780002624,77.93190780002624,78.41624699998647,315,45,78.41624699998647,78.41624699998647,78.41624699998647,78.41624699998647,78.41624699998647,78.41624699998647,78.41624699998647,78.41624699998647,78.41624699998647,78.78277119994164,78.78277119994164,78.78277119994164,78.78277119994164,78.78277119994164,78.78277119994164,78.78277119994164,78.78277119994164,78.78277119994164,23,0,,,78.78277119994164,78.98296119994484,4.9,78.98296119994484,1,4.9,1,1,1000,num_4,0.8503551997710019,,31,4,2026-03-12_13h35.31.720,2026A_exp2,2022.2.4,59.94176058854945,
1000,1,0.0,0.0,0,0,12,12,86,,,,,79.8503042999655,80.50096500013024,80.50096500013024,80.98567490000278,315,45,80.98567490000278,80.98567490000278,80.98567490000278,80.98567490000278,80.98567490000278,80.98567490000278,80.98567490000278,80.98567490000278,80.98567490000278,81.3519409999717,81.3519409999717,81.3519409999717,81.3519409999717,81.3519409999717,81.3519409999717,81.3519409999717,81.3519409999717,81.3519409999717,23,0,,,81.3519409999717,81.5541098001413,1000,81.5541098001413,1000,1000,1000,1000,0,num_3,0.7269737999886274,,31,4,2026-03-12_13h35.31.720,2026A_exp2,2022.2.4,59.94176058854945,
1,0,0.0,0.0,1,0,13,13,49,,,,,82.30273559992202,82.9534593001008,82.9534593001008,83.45473320013843,315,315,83.45473320013843,83.45473320013843,83.45473320013843,83.45473320013843,83.45473320013843,83.45473320013843,83.45473320013843,83.45473320013843,83.45473320013843,83.8042548999656,83.8042548999656,83.8042548999656,83.8042548999656,83.8042548999656,83.8042548999656,83.8042548999656,83.8042548999656,83.8042548999656,22,0,,,83.8042548999656,84.00469540013,0.0,84.00469540013,0,0.0,0,1,1000,num_1,0.5156289997976273,,31,4,2026-03-12_13h35.31.720,2026A_exp2,2022.2.4,59.94176058854945,
1000,1,3.7,0.0,1,0,14,14,19,,,,,84.53830870008096,85.18876689998433,85.18876689998433,85.67344929999672,45,315,85.67344929999672,85.67344929999672,85.67344929999672,85.67344929999672,85.67344929999672,85.67344929999672,85.67344929999672,85.67344929999672,85.67344929999672,86.03997700009495,86.03997700009495,86.03997700009495,86.03997700009495,86.03997700009495,86.03997700009495,86.03997700009495,86.03997700009495,86.03997700009495,23,0,,,86.03997700009495,86.24222470005043,1000,86.24222470005043,1000,1000,1000,1000,0,num_3,0.7913756999187171,,31,4,2026-03-12_13h35.31.720,2026A_exp2,2022.2.4,59.94176058854945,
1000,1,4.9,0.0,1,0,15,15,77,,,,,87.05733090010472,87.70828939997591,87.70828939997591,88.20946649997495,315,45,88.20946649997495,88.20946649997495,88.20946649997495,88.20946649997495,88.20946649997495,88.20946649997495,88.20946649997495,88.20946649997495,88.20946649997495,88.5759181000758,88.5759181000758,88.5759181000758,88.5759181000758,88.5759181000758,88.5759181000758,88.5759181000758,88.5759181000758,88.5759181000758,23,0,,,88.5759181000758,88.77785479999147,1000,88.77785479999147,1000,1000,1000,1000,0,num_3,0.3907563998363912,,31,4,2026-03-12_13h35.31.720,2026A_exp2,2022.2.4,59.94176058854945,
1000,1,6.1,0.0,1,0,16,16,25,,,,,89.19309930014424,89.84371230006218,89.84371230006218,90.34492810000665,315,45,90.34492810000665,90.34492810000665,90.34492810000665,90.34492810000665,90.34492810000665,90.34492810000665,90.34492810000665,90.34492810000665,90.34492810000665,90.71117769996636,90.71117769996636,90.71117769996636,90.71117769996636,90.71117769996636,90.71117769996636,90.71117769996636,90.71117769996636,90.71117769996636,23,0,,,90.71117769996636,90.9133566999808,1000,90.9133566999808,1000,1000,1000,1000,0,num_3,0.44798149983398616,,31,4,2026-03-12_13h35.31.720,2026A_exp2,2022.2.4,59.94176058854945,
1,0,3.7,0.0,0,0,17,17,87,,,,,91.37867349991575,92.02928419993259,92.02928419993259,92.53036480001174,315,315,92.53036480001174,92.53036480001174,92.53036480001174,92.53036480001174,92.53036480001174,92.53036480001174,92.53036480001174,92.53036480001174,92.53036480001174,92.89680210012011,92.89680210012011,92.89680210012011,92.89680210012011,92.89680210012011,92.89680210012011,92.89680210012011,92.89680210012011,92.89680210012011,23,0,,,92.89680210012011,93.0971031000372,3.7,93.0971031000372,0,3.7,1,0,1000,num_1,0.6637223998550326,,31,4,2026-03-12_13h35.31.720,2026A_exp2,2022.2.4,59.94176058854945,
0,0,6.1,4.9,0,0,18,18,22,,,,,93.78092589997686,94.43156750011258,94.43156750011258,94.91606810013764,315,45,94.91606810013764,94.91606810013764,94.91606810013764,94.91606810013764,94.91606810013764,94.91606810013764,94.91606810013764,94.91606810013764,94.91606810013764,95.28240070003085,95.28240070003085,95.28240070003085,95.28240070003085,95.28240070003085,95.28240070003085,95.28240070003085,95.28240070003085,95.28240070003085,23,0,,,95.28240070003085,95.48257180000655,4.9,95.48257180000655,1,4.9,1,1,1000,num_4,1.0303115998394787,,31,4,2026-03-12_13h35.31.720,2026A_exp2,2022.2.4,59.94176058854945,
1000,1,3.7,0.0,0,0,19,19,76,,,,,96.53363270009868,97.18449790007435,97.18449790007435,97.66877799993381,315,45,97.66877799993381,97.66877799993381,97.66877799993381,97.66877799993381,97.66877799993381,97.66877799993381,97.66877799993381,97.66877799993381,97.66877799993381,98.03525210008956,98.03525210008956,98.03525210008956,98.03525210008956,98.03525210008956,98.03525210008956,98.03525210008956,98.03525210008956,98.03525210008956,23,0,,,98.03525210008956,98.237393300049,1000,98.237393300049,1000,1000,1000,1000,0,num_3,0.7069943998940289,,31,4,2026-03-12_13h35.31.720,2026A_exp2,2022.2.4,59.94176058854945,
1000,1,0.0,4.9,1,0,20,20,66,,,,,98.96955749997869,99.62004610011354,99.62004610011354,100.12118469993584,315,315,100.12118469993584,100.12118469993584,100.12118469993584,100.12118469993584,100.12118469993584,100.12118469993584,100.12118469993584,100.12118469993584,100.12118469993584,100.48776519997045,100.48776519997045,100.48776519997045,100.48776519997045,100.48776519997045,100.48776519997045,100.48776519997045,100.48776519997045,100.48776519997045,23,0,,,100.48776519997045,100.68981610005721,1000,100.68981610005721,1000,1000,1000,1000,1,num_2,0.855706499889493,,31,4,2026-03-12_13h35.31.720,2026A_exp2,2022.2.4,59.94176058854945,
0,0,4.9,3.7,0,0,21,21,28,,,,,101.57204660004936,102.22279560007155,102.22279560007155,102.72383900010027,45,315,102.72383900010027,102.72383900010027,102.72383900010027,102.72383900010027,102.72383900010027,102.72383900010027,102.72383900010027,102.72383900010027,102.72383900010027,103.07380699994974,103.07380699994974,103.07380699994974,103.07380699994974,103.07380699994974,103.07380699994974,103.07380699994974,103.07380699994974,103.07380699994974,22,0,,,103.07380699994974,103.27369719999842,3.7,103.27369719999842,1,3.7,1,1,1000,num_4,0.8797294998075813,,31,4,2026-03-12_13h35.31.720,2026A_exp2,2022.2.4,59.94176058854945,
1,0,0.0,6.1,0,0,22,22,0,,,,,104.17457920010202,104.82539670006372,104.82539670006372,105.30998199991882,315,45,105.30998199991882,105.30998199991882,105.30998199991882,105.30998199991882,105.30998199991882,105.30998199991882,105.30998199991882,105.30998199991882,105.30998199991882,105.67632420011796,105.67632420011796,105.67632420011796,105.67632420011796,105.67632420011796,105.67632420011796,105.67632420011796,105.67632420011796,105.67632420011796,23,0,,,105.67632420011796,105.8765392000787,0.0,105.8765392000787,0,0.0,0,1,1000,num_1,0.9001962000038475,,31,4,2026-03-12_13h35.31.720,2026A_exp2,2022.2.4,59.94176058854945,
1000,1,3.7,3.7,0,0,23,23,72,,,,,106.79400760005228,107.44454860012047,107.44454860012047,107.9290579999797,315,315,107.9290579999797,107.9290579999797,107.9290579999797,107.9290579999797,107.9290579999797,107.9290579999797,107.9290579999797,107.9290579999797,107.9290579999797,108.29551069997251,108.29551069997251,108.29551069997251,108.29551069997251,108.29551069997251,108.29551069997251,108.29551069997251,108.29551069997251,108.29551069997251,23,0,,,108.29551069997251,108.49716089991853,1000,108.49716089991853,1000,1000,1000,1000,1,num_2,1.1430171998217702,,31,4,2026-03-12_13h35.31.720,2026A_exp2,2022.2.4,59.94176058854945,
1000,1,0.0,4.9,0,0,24,24,26,,,,,109.66375189996324,110.31418949994259,110.31418949994259,110.79862269992009,45,315,110.79862269992009,110.79862269992009,110.79862269992009,110.79862269992009,110.79862269992009,110.79862269992009,110.79862269992009,110.79862269992009,110.79862269992009,111.16513209999539,111.16513209999539,111.16513209999539,111.16513209999539,111.16513209999539,111.16513209999539,111.16513209999539,111.16513209999539,111.16513209999539,23,0,,,111.16513209999539,111.36704330006614,1000,111.36704330006614,1000,1000,1000,1000,1,num_2,1.5614989998284727,,31,4,2026-03-12_13h35.31.720,2026A_exp2,2022.2.4,59.94176058854945,
1,0,6.1,0.0,1,0,25,25,80,,,,,112.95016389992088,113.60089750005864,113.60089750005864,114.10163039993495,315,45,114.10163039993495,114.10163039993495,114.10163039993495,114.10163039993495,114.10163039993495,114.10163039993495,114.10163039993495,114.10163039993495,114.10163039993495,114.46835800004192,114.46835800004192,114.46835800004192,114.46835800004192,114.46835800004192,114.46835800004192,114.46835800004192,114.46835800004192,114.46835800004192,23,0,,,114.46835800004192,114.66863379999995,0.0,114.66863379999995,1,0.0,0,0,1000,num_4,0.788699199911207,,31,4,2026-03-12_13h35.31.720,2026A_exp2,2022.2.4,59.94176058854945,
1000,1,3.7,6.1,1,0,26,26,58,,,,,115.48588329995982,116.12013630010188,116.12013630010188,116.62123719998635,315,315,116.62123719998635,116.62123719998635,116.62123719998635,116.62123719998635,116.62123719998635,116.62123719998635,116.62123719998635,116.62123719998635,116.62123719998635,116.98763719992712,116.98763719992712,116.98763719992712,116.98763719992712,116.98763719992712,116.98763719992712,116.98763719992712,116.98763719992712,116.98763719992712,23,0,,,116.98763719992712,117.1899763001129,1000,117.1899763001129,1000,1000,1000,1000,1,num_2,0.7389691998250782,,31,4,2026-03-12_13h35.31.720,2026A_exp2,2022.2.4,59.94176058854945,
1,0,0.0,6.1,1,0,27,27,31,,,,,117.95515800011344,118.6057482000906,118.6057482000906,119.10694510000758,315,315,119.10694510000758,119.10694510000758,119.10694510000758,119.10694510000758,119.10694510000758,119.10694510000758,119.10694510000758,119.10694510000758,119.10694510000758,119.47345610009506,119.47345610009506,119.47345610009506,119.47345610009506,119.47345610009506,119.47345610009506,119.47345610009506,119.47345610009506,119.47345610009506,23,0,,,119.47345610009506,119.67434719996527,6.1,119.67434719996527,1,6.1,1,1,1000,num_4,0.5504640999715775,,31,4,2026-03-12_13h35.31.720,2026A_exp2,2022.2.4,59.94176058854945,
1,0,0.0,0.0,1,0,28,28,42,,,,,120.2406564000994,120.89173120004125,120.89173120004125,121.3759683999233,315,45,121.3759683999233,121.3759683999233,121.3759683999233,121.3759683999233,121.3759683999233,121.3759683999233,121.3759683999233,121.3759683999233,121.3759683999233,121.7423632000573,121.7423632000573,121.7423632000573,121.7423632000573,121.7423632000573,121.7423632000573,121.7423632000573,121.7423632000573,121.7423632000573,23,0,,,121.7423632000573,121.94255089992657,0.0,121.94255089992657,0,0.0,0,1,1000,num_1,0.634566999739036,,31,4,2026-03-12_13h35.31.720,2026A_exp2,2022.2.4,59.94176058854945,
1,0,3.7,3.7,1,0,29,29,30,,,,,122.59310850012116,123.24390970007516,123.24390970007516,123.72831219993532,315,315,123.72831219993532,123.72831219993532,123.72831219993532,123.72831219993532,123.72831219993532,123.72831219993532,123.72831219993532,123.72831219993532,123.72831219993532,124.09461200004444,124.09461200004444,124.09461200004444,124.09461200004444,124.09461200004444,124.09461200004444,124.09461200004444,124.09461200004444,124.09461200004444,23,0,,,124.09461200004444,124.29478130000643,3.7,124.29478130000643,0,3.7,1,0,1000,num_1,1.0269559998996556,,31,4,2026-03-12_13h35.31.720,2026A_exp2,2022.2.4,59.94176058854945,
1,0,0.0,0.0,1,0,30,30,69,,,,,125.34572790004313,125.99661009991542,125.99661009991542,126.48099269997329,45,315,126.48099269997329,126.48099269997329,126.48099269997329,126.48099269997329,126.48099269997329,126.48099269997329,126.48099269997329,126.48099269997329,126.48099269997329,126.84727680007927,126.84727680007927,126.84727680007927,126.84727680007927,126.84727680007927,126.84727680007927,126.84727680007927,126.84727680007927,126.84727680007927,23,0,,,126.84727680007927,127.04766579996794,0.0,127.04766579996794,0,0.0,0,1,1000,num_1,0.8096189997158945,,31,4,2026-03-12_13h35.31.720,2026A_exp2,2022.2.4,59.94176058854945,
0,0,4.9,0.0,1,0,31,31,67,,,,,127.88164969999343,128.5325130999554,128.5325130999554,129.01693670009263,315,315,129.01693670009263,129.01693670009263,129.01693670009263,129.01693670009263,129.01693670009263,129.01693670009263,129.01693670009263,129.01693670009263,129.01693670009263,129.3833671999164,129.3833671999164,129.3833671999164,129.3833671999164,129.3833671999164,129.3833671999164,129.3833671999164,129.3833671999164,129.3833671999164,23,0,,,129.3833671999164,129.58362099993974,4.9,129.58362099993974,1,4.9,1,1,1000,num_4,0.8737723000813276,,31,4,2026-03-12_13h35.31.720,2026A_exp2,2022.2.4,59.94176058854945,
1,0,0.0,3.7,1,0,32,32,14,,,,,130.48418310005218,131.11845920002088,131.11845920002088,131.61942300014198,45,45,131.61942300014198,131.61942300014198,131.61942300014198,131.61942300014198,131.61942300014198,131.61942300014198,131.61942300014198,131.61942300014198,131.61942300014198,131.98578290012665,131.98578290012665,131.98578290012665,131.98578290012665,131.98578290012665,131.98578290012665,131.98578290012665,131.98578290012665,131.98578290012665,23,0,,,131.98578290012665,132.18597010010853,3.7,132.18597010010853,1,3.7,1,1,1000,num_4,0.767029199982062,,31,4,2026-03-12_13h35.31.720,2026A_exp2,2022.2.4,59.94176058854945,
0,0,0.0,3.7,0,0,33,33,34,,,,,132.97012710012496,133.62090500001796,133.62090500001796,134.10523690003902,315,315,134.10523690003902,134.10523690003902,134.10523690003902,134.10523690003902,134.10523690003902,134.10523690003902,134.10523690003902,134.10523690003902,134.10523690003902,134.47155699995346,134.47155699995346,134.47155699995346,134.47155699995346,134.47155699995346,134.47155699995346,134.47155699995346,134.47155699995346,134.47155699995346,23,0,,,134.47155699995346,134.67200400005095,3.7,134.67200400005095,0,3.7,1,0,1000,num_1,0.6256859998684376,,31,4,2026-03-12_13h35.31.720,2026A_exp2,2022.2.4,59.94176058854945,
1,0,0.0,6.1,1,0,34,34,50,,,,,135.32240910013206,135.97313660010695,135.97313660010695,136.45766300009564,315,315,136.45766300009564,136.45766300009564,136.45766300009564,136.45766300009564,136.45766300009564,136.45766300009564,136.45766300009564,136.45766300009564,136.45766300009564,136.82405279995874,136.82405279995874,136.82405279995874,136.82405279995874,136.82405279995874,136.82405279995874,136.82405279995874,136.82405279995874,136.82405279995874,23,0,,,136.82405279995874,137.0241970999632,6.1,137.0241970999632,1,6.1,1,1,1000,num_4,0.5691869000438601,,31,4,2026-03-12_13h35.31.720,2026A_exp2,2022.2.4,59.94176058854945,
1000,1,0.0,0.0,0,0,35,35,5,,,,,137.62470109993592,138.27544709993526,138.27544709993526,138.7600442999974,315,315,138.7600442999974,138.7600442999974,138.7600442999974,138.7600442999974,138.7600442999974,138.7600442999974,138.7600442999974,138.7600442999974,138.7600442999974,139.12604300002567,139.12604300002567,139.12604300002567,139.12604300002567,139.12604300002567,139.12604300002567,139.12604300002567,139.12604300002567,139.12604300002567,23,0,,,139.12604300002567,139.32851090002805,1000,139.32851090002805,1000,1000,1000,1000,1,num_2,0.9438696999568492,,31,4,2026-03-12_13h35.31.720,2026A_exp2,2022.2.4,59.94176058854945,
1,0,0.0,0.0,0,0,36,36,88,,,,,140.29417710006237,140.94484130013734,140.94484130013734,141.4459790000692,315,315,141.4459790000692,141.4459790000692,141.4459790000692,141.4459790000692,141.4459790000692,141.4459790000692,141.4459790000692,141.4459790000692,141.4459790000692,141.81242740014568,141.81242740014568,141.81242740014568,141.81242740014568,141.81242740014568,141.81242740014568,141.81242740014568,141.81242740014568,141.81242740014568,23,0,,,141.81242740014568,142.01257969997823,0.0,142.01257969997823,0,0.0,0,1,1000,num_1,0.9882980999536812,,31,4,2026-03-12_13h35.31.720,2026A_exp2,2022.2.4,59.94176058854945,
1000,1,0.0,0.0,0,0,37,37,7,,,,,143.0301948999986,143.68092250009067,143.68092250009067,144.16540990001522,315,45,144.16540990001522,144.16540990001522,144.16540990001522,144.16540990001522,144.16540990001522,144.16540990001522,144.16540990001522,144.16540990001522,144.16540990001522,144.53162809996866,144.53162809996866,144.53162809996866,144.53162809996866,144.53162809996866,144.53162809996866,144.53162809996866,144.53162809996866,144.53162809996866,23,0,,,144.53162809996866,144.73380100005306,1000,144.73380100005306,1000,1000,1000,1000,1,num_2,0.8352466998621821,,31,4,2026-03-12_13h35.31.720,2026A_exp2,2022.2.4,59.94176058854945,
0,0,6.1,0.0,0,0,38,38,74,,,,,145.59939659992233,146.2502027999144,146.2502027999144,146.75133180012926,45,315,146.75133180012926,146.75133180012926,146.75133180012926,146.75133180012926,146.75133180012926,146.75133180012926,146.75133180012926,146.75133180012926,146.75133180012926,147.11766139999963,147.11766139999963,147.11766139999963,147.11766139999963,147.11766139999963,147.11766139999963,147.11766139999963,147.11766139999963,147.11766139999963,23,0,,,147.11766139999963,147.3177986999508,0.0,147.3177986999508,0,0.0,0,1,1000,num_1,1.419204599922523,,31,4,2026-03-12_13h35.31.720,2026A_exp2,2022.2.4,59.94176058854945,
1000,1,0.0,4.9,0,0,39,39,60,,,,,148.76942800008692,149.4033735000994,149.4033735000994,149.90435399999842,45,315,149.90435399999842,149.90435399999842,149.90435399999842,149.90435399999842,149.90435399999842,149.90435399999842,149.90435399999842,149.90435399999842,149.90435399999842,150.27087750006467,150.27087750006467,150.27087750006467,150.27087750006467,150.27087750006467,150.27087750006467,150.27087750006467,150.27087750006467,150.27087750006467,23,0,,,150.27087750006467,150.4711277000606,1000,150.4711277000606,1000,1000,1000,1000,1,num_2,0.7697673998773098,,31,4,2026-03-12_13h35.31.720,2026A_exp2,2022.2.4,59.94176058854945,
1000,1,0.0,6.1,1,0,40,40,71,,,,,151.27174449991435,151.92260790010914,151.92260790010914,152.42365289991722,45,315,152.42365289991722,152.42365289991722,152.42365289991722,152.42365289991722,152.42365289991722,152.42365289991722,152.42365289991722,152.42365289991722,152.42365289991722,152.7899696000386,152.7899696000386,152.7899696000386,152.7899696000386,152.7899696000386,152.7899696000386,152.7899696000386,152.7899696000386,152.7899696000386,23,0,,,152.7899696000386,153.0209880999755,1000,153.0209880999755,1000,1000,1000,1000,1,num_2,0.4354095999151468,,31,4,2026-03-12_13h35.31.720,2026A_exp2,2022.2.4,59.94176058854945,
1,0,0.0,3.7,1,0,41,41,35,,,,,153.47401909995824,154.12476729997434,154.12476729997434,154.6258722001221,45,315,154.6258722001221,154.6258722001221,154.6258722001221,154.6258722001221,154.6258722001221,154.6258722001221,154.6258722001221,154.6258722001221,154.6258722001221,154.9922738999594,154.9922738999594,154.9922738999594,154.9922738999594,154.9922738999594,154.9922738999594,154.9922738999594,154.9922738999594,154.9922738999594,23,0,,,154.9922738999594,155.19238899997436,3.7,155.19238899997436,1,3.7,1,1,1000,num_4,0.7928385997656733,,31,4,2026-03-12_13h35.31.720,2026A_exp2,2022.2.4,59.94176058854945,
1,0,6.1,0.0,1,0,42,42,89,,,,,156.00989670003764,156.6603586000856,156.6603586000856,157.14508739998564,315,45,157.14508739998564,157.14508739998564,157.14508739998564,157.14508739998564,157.14508739998564,157.14508739998564,157.14508739998564,157.14508739998564,157.14508739998564,157.51134150009602,157.51134150009602,157.51134150009602,157.51134150009602,157.51134150009602,157.51134150009602,157.51134150009602,157.51134150009602,157.51134150009602,23,0,,,157.51134150009602,157.71160409995355,0.0,157.71160409995355,0,0.0,0,1,1000,num_1,1.7367573999799788,,31,4,2026-03-12_13h35.31.720,2026A_exp2,2022.2.4,59.94176058854945,
1,0,6.1,0.0,1,0,43,43,70,,,,,159.48079459997825,160.13073089998215,160.13073089998215,160.6315361999441,315,315,160.6315361999441,160.6315361999441,160.6315361999441,160.6315361999441,160.6315361999441,160.6315361999441,160.6315361999441,160.6315361999441,160.6315361999441,160.9979781000875,160.9979781000875,160.9979781000875,160.9979781000875,160.9979781000875,160.9979781000875,160.9979781000875,160.9979781000875,160.9979781000875,23,0,,,160.9979781000875,161.19802600005642,0.0,161.19802600005642,0,0.0,0,1,1000,num_1,0.9463138999417424,,31,4,2026-03-12_13h35.31.720,2026A_exp2,2022.2.4,59.94176058854945,
1,0,3.7,4.9,1,0,44,44,20,,,,,162.1657740001101,162.79980290005915,162.79980290005915,163.3008805999998,45,315,163.3008805999998,163.3008805999998,163.3008805999998,163.3008805999998,163.3008805999998,163.3008805999998,163.3008805999998,163.3008805999998,163.3008805999998,163.66735749994405,163.66735749994405,163.66735749994405,163.66735749994405,163.66735749994405,163.66735749994405,163.66735749994405,163.66735749994405,163.66735749994405,23,0,,,163.66735749994405,163.8674199001398,4.9,163.8674199001398,0,4.9,1,0,1000,num_1,0.8528906998690218,,31,4,2026-03-12_13h35.31.720,2026A_exp2,2022.2.4,59.94176058854945,
1000,1,6.1,0.0,0,0,45,45,81,,,,,164.75169840012677,165.38582860003226,165.38582860003226,165.88694879994728,45,45,165.88694879994728,165.88694879994728,165.88694879994728,165.88694879994728,165.88694879994728,165.88694879994728,165.88694879994728,165.88694879994728,165.88694879994728,166.25308750011027,166.25308750011027,166.25308750011027,166.25308750011027,166.25308750011027,166.25308750011027,166.25308750011027,166.25308750011027,166.25308750011027,23,0,,,166.25308750011027,166.45391559996642,1000,166.45391559996642,1000,1000,1000,1000,0,num_3,0.850768799893558,,31,4,2026-03-12_13h35.31.720,2026A_exp2,2022.2.4,59.94176058854945,
1,0,4.9,0.0,1,0,46,46,65,,,,,167.32121239998378,167.9714387001004,167.9714387001004,168.45620319992304,45,45,168.45620319992304,168.45620319992304,168.45620319992304,168.45620319992304,168.45620319992304,168.45620319992304,168.45620319992304,168.45620319992304,168.45620319992304,168.82256440003403,168.82256440003403,168.82256440003403,168.82256440003403,168.82256440003403,168.82256440003403,168.82256440003403,168.82256440003403,168.82256440003403,23,0,,,168.82256440003403,169.02260500006378,0.0,169.02260500006378,0,0.0,0,1,1000,num_1,1.1305281999520957,,31,4,2026-03-12_13h35.31.720,2026A_exp2,2022.2.4,59.94176058854945,
1000,1,0.0,0.0,0,0,47,47,17,,,,,170.1740393000655,170.82448579999618,170.82448579999618,171.3090768000111,315,45,171.3090768000111,171.3090768000111,171.3090768000111,171.3090768000111,171.3090768000111,171.3090768000111,171.3090768000111,171.3090768000111,171.3090768000111,171.67559679993428,171.67559679993428,171.67559679993428,171.67559679993428,171.67559679993428,171.67559679993428,171.67559679993428,171.67559679993428,171.67559679993428,23,0,,,171.67559679993428,171.87578530004248,1000,171.87578530004248,1000,1000,1000,1000,1,num_2,0.8846824998036027,,31,4,2026-03-12_13h35.31.720,2026A_exp2,2022.2.4,59.94176058854945,
0,0,0.0,0.0,1,0,48,48,2,,,,,172.7765422000084,173.42793040000834,173.42793040000834,173.92812489997596,315,45,173.92812489997596,173.92812489997596,173.92812489997596,173.92812489997596,173.92812489997596,173.92812489997596,173.92812489997596,173.92812489997596,173.92812489997596,174.27801449992694,174.27801449992694,174.27801449992694,174.27801449992694,174.27801449992694,174.27801449992694,174.27801449992694,174.27801449992694,174.27801449992694,22,0,,,174.27801449992694,174.4783336999826,0.0,174.4783336999826,1,0.0,0,0,1000,num_4,1.33018449973315,,31,4,2026-03-12_13h35.31.720,2026A_exp2,2022.2.4,59.94176058854945,
1,0,6.1,0.0,0,0,49,49,82,,,,,175.8295871000737,176.46352620003745,176.46352620003745,176.96477900003083,45,315,176.96477900003083,176.96477900003083,176.96477900003083,176.96477900003083,176.96477900003083,176.96477900003083,176.96477900003083,176.96477900003083,176.96477900003083,177.3309194999747,177.3309194999747,177.3309194999747,177.3309194999747,177.3309194999747,177.3309194999747,177.3309194999747,177.3309194999747,177.3309194999747,23,0,,,177.3309194999747,177.5318500001449,6.1,177.5318500001449,1,6.1,1,1,1000,num_4,0.6612303997389972,,31,4,2026-03-12_13h35.31.720,2026A_exp2,2022.2.4,59.94176058854945,
1,0,0.0,4.9,0,0,50,50,3,,,,,178.21532439999282,178.84920789999887,178.84920789999887,179.3503028000705,45,315,179.3503028000705,179.3503028000705,179.3503028000705,179.3503028000705,179.3503028000705,179.3503028000705,179.3503028000705,179.3503028000705,179.3503028000705,179.71663150005043,179.71663150005043,179.71663150005043,179.71663150005043,179.71663150005043,179.71663150005043,179.71663150005043,179.71663150005043,179.71663150005043,23,0,,,179.71663150005043,179.91696349997073,0.0,179.91696349997073,0,0.0,0,1,1000,num_1,0.6755697000771761,,31,4,2026-03-12_13h35.31.720,2026A_exp2,2022.2.4,59.94176058854945,
1000,1,0.0,4.9,0,0,51,51,61,,,,,180.61754010012373,181.25144589995034,181.25144589995034,181.75266330013983,315,315,181.75266330013983,181.75266330013983,181.75266330013983,181.75266330013983,181.75266330013983,181.75266330013983,181.75266330013983,181.75266330013983,181.75266330013983,182.1192374001257,182.1192374001257,182.1192374001257,182.1192374001257,182.1192374001257,182.1192374001257,182.1192374001257,182.1192374001257,182.1192374001257,23,0,,,182.1192374001257,182.31932689994574,1000,182.31932689994574,1000,1000,1000,1000,1,num_2,0.7377526997588575,,31,4,2026-03-12_13h35.31.720,2026A_exp2,2022.2.4,59.94176058854945,
1000,1,0.0,0.0,1,0,52,52,78,,,,,183.08682149997912,183.7210166999139,183.7210166999139,184.22173100011423,45,45,184.22173100011423,184.22173100011423,184.22173100011423,184.22173100011423,184.22173100011423,184.22173100011423,184.22173100011423,184.22173100011423,184.22173100011423,184.58824990014546,184.58824990014546,184.58824990014546,184.58824990014546,184.58824990014546,184.58824990014546,184.58824990014546,184.58824990014546,184.58824990014546,23,0,,,184.58824990014546,184.78845460014418,1000,184.78845460014418,1000,1000,1000,1000,0,num_3,0.8609728997107595,,31,4,2026-03-12_13h35.31.720,2026A_exp2,2022.2.4,59.94176058854945,
1,0,3.7,6.1,0,0,53,53,52,,,,,185.67282530013472,186.32345349993557,186.32345349993557,186.80790750007145,315,315,186.80790750007145,186.80790750007145,186.80790750007145,186.80790750007145,186.80790750007145,186.80790750007145,186.80790750007145,186.80790750007145,186.80790750007145,187.174168900121,187.174168900121,187.174168900121,187.174168900121,187.174168900121,187.174168900121,187.174168900121,187.174168900121,187.174168900121,23,0,,,187.174168900121,187.37464720010757,3.7,187.37464720010757,0,3.7,1,0,1000,num_1,0.8583235000260174,,31,4,2026-03-12_13h35.31.720,2026A_exp2,2022.2.4,59.94176058854945,
1,0,6.1,3.7,1,0,54,54,51,,,,,188.2586485000793,188.89286249992438,188.89286249992438,189.3950086000841,45,315,189.3950086000841,189.3950086000841,189.3950086000841,189.3950086000841,189.3950086000841,189.3950086000841,189.3950086000841,189.3950086000841,189.3950086000841,189.76062109996565,189.76062109996565,189.76062109996565,189.76062109996565,189.76062109996565,189.76062109996565,189.76062109996565,189.76062109996565,189.76062109996565,23,0,,,189.76062109996565,189.96041600010358,3.7,189.96041600010358,1,3.7,1,1,1000,num_4,1.0009837998077273,,31,4,2026-03-12_13h35.31.720,2026A_exp2,2022.2.4,59.94176058854945,
1000,1,3.7,6.1,1,0,55,55,48,,,,,190.97817169991322,191.6286045999732,191.6286045999732,192.1129379000049,45,315,192.1129379000049,192.1129379000049,192.1129379000049,192.1129379000049,192.1129379000049,192.1129379000049,192.1129379000049,192.1129379000049,192.1129379000049,192.47938450006768,192.47938450006768,192.47938450006768,192.47938450006768,192.47938450006768,192.47938450006768,192.47938450006768,192.47938450006768,192.47938450006768,23,0,,,192.47938450006768,192.6798117000144,1000,192.6798117000144,1000,1000,1000,1000,1,num_2,0.7447181998286396,,31,4,2026-03-12_13h35.31.720,2026A_exp2,2022.2.4,59.94176058854945,
1,0,6.1,4.9,1,0,56,56,11,,,,,193.4473240999505,194.08115809992887,194.08115809992887,194.5823159001302,315,45,194.5823159001302,194.5823159001302,194.5823159001302,194.5823159001302,194.5823159001302,194.5823159001302,194.5823159001302,194.5823159001302,194.5823159001302,194.9486523999367,194.9486523999367,194.9486523999367,194.9486523999367,194.9486523999367,194.9486523999367,194.9486523999367,194.9486523999367,194.9486523999367,23,0,,,194.9486523999367,195.14990850002505,4.9,195.14990850002505,1,4.9,1,1,1000,num_4,0.6909845997579396,,31,4,2026-03-12_13h35.31.720,2026A_exp2,2022.2.4,59.94176058854945,
1000,1,0.0,0.0,1,0,57,57,9,,,,,195.86619800003245,196.50020150002092,196.50020150002092,197.00109019991942,315,45,197.00109019991942,197.00109019991942,197.00109019991942,197.00109019991942,197.00109019991942,197.00109019991942,197.00109019991942,197.00109019991942,197.00109019991942,197.36763390013948,197.36763390013948,197.36763390013948,197.36763390013948,197.36763390013948,197.36763390013948,197.36763390013948,197.36763390013948,197.36763390013948,23,0,,,197.36763390013948,197.56789950001985,1000,197.56789950001985,1000,1000,1000,1000,0,num_3,0.7926133999135345,,31,4,2026-03-12_13h35.31.720,2026A_exp2,2022.2.4,59.94176058854945,
1000,1,6.1,6.1,0,0,58,58,16,,,,,198.3854906000197,199.03594500012696,199.03594500012696,199.5203664000146,315,315,199.5203664000146,199.5203664000146,199.5203664000146,199.5203664000146,199.5203664000146,199.5203664000146,199.5203664000146,199.5203664000146,199.5203664000146,199.88688419992104,199.88688419992104,199.88688419992104,199.88688419992104,199.88688419992104,199.88688419992104,199.88688419992104,199.88688419992104,199.88688419992104,23,0,,,199.88688419992104,200.0869794001337,1000,200.0869794001337,1000,1000,1000,1000,0,num_3,0.8974772996734828,,31,4,2026-03-12_13h35.31.720,2026A_exp2,2022.2.4,59.94176058854945,
1000,1,4.9,0.0,0,0,59,59,54,,,,,201.00476070004515,201.65524780005217,201.65524780005217,202.13976019993424,45,315,202.13976019993424,202.13976019993424,202.13976019993424,202.13976019993424,202.13976019993424,202.13976019993424,202.13976019993424,202.13976019993424,202.13976019993424,202.50610550004058,202.50610550004058,202.50610550004058,202.50610550004058,202.50610550004058,202.50610550004058,202.50610550004058,202.50610550004058,202.50610550004058,23,0,,,202.50610550004058,202.7066142000258,1000,202.7066142000258,1000,1000,1000,1000,0,num_3,0.533959599910304,,31,4,2026-03-12_13h35.31.720,2026A_exp2,2022.2.4,59.94176058854945,
1000,1,3.7,3.7,0,0,60,60,63,,,,,203.25701600010507,203.9077473001089,203.9077473001089,204.39190419996157,45,315,204.39190419996157,204.39190419996157,204.39190419996157,204.39190419996157,204.39190419996157,204.39190419996157,204.39190419996157,204.39190419996157,204.39190419996157,204.7583975000307,204.7583975000307,204.7583975000307,204.7583975000307,204.7583975000307,204.7583975000307,204.7583975000307,204.7583975000307,204.7583975000307,23,0,,,204.7583975000307,204.95881090010516,1000,204.95881090010516,1000,1000,1000,1000,1,num_2,0.5294481997843832,,31,4,2026-03-12_13h35.31.720,2026A_exp2,2022.2.4,59.94176058854945,
1,0,0.0,6.1,1,0,61,61,33,,,,,205.50978550012223,206.15960060013458,206.15960060013458,206.66076100012287,45,315,206.66076100012287,206.66076100012287,206.66076100012287,206.66076100012287,206.66076100012287,206.66076100012287,206.66076100012287,206.66076100012287,206.66076100012287,207.0107295999769,207.0107295999769,207.0107295999769,207.0107295999769,207.0107295999769,207.0107295999769,207.0107295999769,207.0107295999769,207.0107295999769,22,0,,,207.0107295999769,207.21086130011827,6.1,207.21086130011827,1,6.1,1,1,1000,num_4,0.6143559999763966,,31,4,2026-03-12_13h35.31.720,2026A_exp2,2022.2.4,59.94176058854945,
1,0,4.9,0.0,0,0,62,62,53,,,,,207.84475670009851,208.47874059993774,208.47874059993774,208.97997010010295,45,315,208.97997010010295,208.97997010010295,208.97997010010295,208.97997010010295,208.97997010010295,208.97997010010295,208.97997010010295,208.97997010010295,208.97997010010295,209.346311399946,209.346311399946,209.346311399946,209.346311399946,209.346311399946,209.346311399946,209.346311399946,209.346311399946,209.346311399946,23,0,,,209.346311399946,209.54649249999784,4.9,209.54649249999784,1,4.9,1,1,1000,num_4,0.6219170999247581,,31,4,2026-03-12_13h35.31.720,2026A_exp2,2022.2.4,59.94176058854945,
1,0,6.1,6.1,1,0,63,63,23,,,,,210.19701509992592,210.83112460002303,210.83112460002303,211.33276490005665,45,45,211.33276490005665,211.33276490005665,211.33276490005665,211.33276490005665,211.33276490005665,211.33276490005665,211.33276490005665,211.33276490005665,211.33276490005665,211.6988828999456,211.6988828999456,211.6988828999456,211.6988828999456,211.6988828999456,211.6988828999456,211.6988828999456,211.6988828999456,211.6988828999456,23,0,,,211.6988828999456,211.8989309000317,6.1,211.8989309000317,1,6.1,1,1,1000,num_4,0.6213847999460995,,31,4,2026-03-12_13h35.31.720,2026A_exp2,2022.2.4,59.94176058854945,
1000,1,0.0,0.0,1,0,64,64,85,,,,,212.5496253001038,213.20046299998648,213.20046299998648,213.70130600011908,315,45,213.70130600011908,213.70130600011908,213.70130600011908,213.70130600011908,213.70130600011908,213.70130600011908,213.70130600011908,213.70130600011908,213.70130600011908,214.0509915999137,214.0509915999137,214.0509915999137,214.0509915999137,214.0509915999137,214.0509915999137,214.0509915999137,214.0509915999137,214.0509915999137,22,0,,,214.0509915999137,214.25127999996766,1000,214.25127999996766,1000,1000,1000,1000,0,num_3,0.9093146999366581,,31,4,2026-03-12_13h35.31.720,2026A_exp2,2022.2.4,59.94176058854945,
1,0,3.7,4.9,1,0,65,65,18,,,,,215.18559610005468,215.83607070008293,215.83607070008293,216.32072900002822,45,315,216.32072900002822,216.32072900002822,216.32072900002822,216.32072900002822,216.32072900002822,216.32072900002822,216.32072900002822,216.32072900002822,216.32072900002822,216.68711340008304,216.68711340008304,216.68711340008304,216.68711340008304,216.68711340008304,216.68711340008304,216.68711340008304,216.68711340008304,216.68711340008304,23,0,,,216.68711340008304,216.8875242001377,4.9,216.8875242001377,1,4.9,1,1,1000,num_4,0.8415113999508321,,31,4,2026-03-12_13h35.31.720,2026A_exp2,2022.2.4,59.94176058854945,
1000,1,3.7,0.0,1,0,66,66,38,,,,,217.7549664999824,218.3887710000854,218.3887710000854,218.8898517000489,315,315,218.8898517000489,218.8898517000489,218.8898517000489,218.8898517000489,218.8898517000489,218.8898517000489,218.8898517000489,218.8898517000489,218.8898517000489,219.2561153001152,219.2561153001152,219.2561153001152,219.2561153001152,219.2561153001152,219.2561153001152,219.2561153001152,219.2561153001152,219.2561153001152,23,0,,,219.2561153001152,219.45706170005724,1000,219.45706170005724,1000,1000,1000,1000,0,num_3,0.8398297000676394,,31,4,2026-03-12_13h35.31.720,2026A_exp2,2022.2.4,59.94176058854945,
1000,1,6.1,0.0,1,0,67,67,57,,,,,220.32433530013077,220.97568550007418,220.97568550007418,221.475810599979,45,45,221.475810599979,221.475810599979,221.475810599979,221.475810599979,221.475810599979,221.475810599979,221.475810599979,221.475810599979,221.475810599979,221.84199910005555,221.84199910005555,221.84199910005555,221.84199910005555,221.84199910005555,221.84199910005555,221.84199910005555,221.84199910005555,221.84199910005555,23,0,,,221.84199910005555,222.04278700007126,1000,222.04278700007126,1000,1000,1000,1000,0,num_3,0.7095451997593045,,31,4,2026-03-12_13h35.31.720,2026A_exp2,2022.2.4,59.94176058854945,
1000,1,3.7,4.9,0,0,68,68,45,,,,,222.7767543999944,223.42711720010266,223.42711720010266,223.92819499992765,315,315,223.92819499992765,223.92819499992765,223.92819499992765,223.92819499992765,223.92819499992765,223.92819499992765,223.92819499992765,223.92819499992765,223.92819499992765,224.2779302999843,224.2779302999843,224.2779302999843,224.2779302999843,224.2779302999843,224.2779302999843,224.2779302999843,224.2779302999843,224.2779302999843,22,0,,,224.2779302999843,224.47818009997718,1000,224.47818009997718,1000,1000,1000,1000,0,num_3,0.8748150998726487,,31,4,2026-03-12_13h35.31.720,2026A_exp2,2022.2.4,59.94176058854945,
1000,1,4.9,0.0,1,0,69,69,10,,,,,225.37906790012494,226.02959119994193,226.02959119994193,226.51429420011118,315,315,226.51429420011118,226.51429420011118,226.51429420011118,226.51429420011118,226.51429420011118,226.51429420011118,226.51429420011118,226.51429420011118,226.51429420011118,226.88045429997146,226.88045429997146,226.88045429997146,226.88045429997146,226.88045429997146,226.88045429997146,226.88045429997146,226.88045429997146,226.88045429997146,23,0,,,226.88045429997146,227.08061069995165,1000,227.08061069995165,1000,1000,1000,1000,0,num_3,0.9516312999185175,,31,4,2026-03-12_13h35.31.720,2026A_exp2,2022.2.4,59.94176058854945,
0,0,0.0,0.0,0,0,70,70,59,,,,,228.04828340001404,228.68413430009969,228.68413430009969,229.18371549993753,45,45,229.18371549993753,229.18371549993753,229.18371549993753,229.18371549993753,229.18371549993753,229.18371549993753,229.18371549993753,229.18371549993753,229.18371549993753,229.54970839992166,229.54970839992166,229.54970839992166,229.54970839992166,229.54970839992166,229.54970839992166,229.54970839992166,229.54970839992166,229.54970839992166,23,0,,,229.54970839992166,229.75001540011726,0.0,229.75001540011726,0,0.0,0,1,1000,num_1,0.7465742998756468,,31,4,2026-03-12_13h35.31.720,2026A_exp2,2022.2.4,59.94176058854945,
1000,1,4.9,3.7,0,0,71,71,40,,,,,230.51734800008126,231.15130689996295,231.15130689996295,231.65238470002078,45,45,231.65238470002078,231.65238470002078,231.65238470002078,231.65238470002078,231.65238470002078,231.65238470002078,231.65238470002078,231.65238470002078,231.65238470002078,232.01879850006662,232.01879850006662,232.01879850006662,232.01879850006662,232.01879850006662,232.01879850006662,232.01879850006662,232.01879850006662,232.01879850006662,23,0,,,232.01879850006662,232.21928249998018,1000,232.21928249998018,1000,1000,1000,1000,0,num_3,1.3737216999288648,,31,4,2026-03-12_13h35.31.720,2026A_exp2,2022.2.4,59.94176058854945,
1000,1,6.1,0.0,1,0,72,72,83,,,,,233.6205466000829,234.2549538000021,234.2549538000021,234.75561759993434,315,315,234.75561759993434,234.75561759993434,234.75561759993434,234.75561759993434,234.75561759993434,234.75561759993434,234.75561759993434,234.75561759993434,234.75561759993434,235.12223000009544,235.12223000009544,235.12223000009544,235.12223000009544,235.12223000009544,235.12223000009544,235.12223000009544,235.12223000009544,235.12223000009544,23,0,,,235.12223000009544,235.32223109994084,1000,235.32223109994084,1000,1000,1000,1000,0,num_3,0.5827222999650985,,31,4,2026-03-12_13h35.31.720,2026A_exp2,2022.2.4,59.94176058854945,
1000,1,0.0,4.9,0,0,73,73,6,,,,,235.9231614000164,236.57352269999683,236.57352269999683,237.05824670009315,315,45,237.05824670009315,237.05824670009315,237.05824670009315,237.05824670009315,237.05824670009315,237.05824670009315,237.05824670009315,237.05824670009315,237.05824670009315,237.42432079999708,237.42432079999708,237.42432079999708,237.42432079999708,237.42432079999708,237.42432079999708,237.42432079999708,237.42432079999708,237.42432079999708,23,0,,,237.42432079999708,237.6248713999521,1000,237.6248713999521,1000,1000,1000,1000,1,num_2,0.4480616997461766,,31,4,2026-03-12_13h35.31.720,2026A_exp2,2022.2.4,59.94176058854945,
1,0,0.0,4.9,1,0,74,74,37,,,,,238.09212490008213,238.74257569992915,238.74257569992915,239.22783050010912,315,45,239.22783050010912,239.22783050010912,239.22783050010912,239.22783050010912,239.22783050010912,239.22783050010912,239.22783050010912,239.22783050010912,239.22783050010912,239.59326070011593,239.59326070011593,239.59326070011593,239.59326070011593,239.59326070011593,239.59326070011593,239.59326070011593,239.59326070011593,239.59326070011593,23,0,,,239.59326070011593,239.7934431999456,4.9,239.7934431999456,1,4.9,1,1,1000,num_4,0.6797615999821573,,31,4,2026-03-12_13h35.31.720,2026A_exp2,2022.2.4,59.94176058854945,
1000,1,0.0,3.7,1,0,75,75,13,,,,,240.49482719996013,241.14505079993978,241.14505079993978,241.62943310011178,45,45,241.62943310011178,241.62943310011178,241.62943310011178,241.62943310011178,241.62943310011178,241.62943310011178,241.62943310011178,241.62943310011178,241.62943310011178,241.9956454001367,241.9956454001367,241.9956454001367,241.9956454001367,241.9956454001367,241.9956454001367,241.9956454001367,241.9956454001367,241.9956454001367,23,0,,,241.9956454001367,242.19593950011767,1000,242.19593950011767,1000,1000,1000,1000,0,num_3,0.6855810999404639,,31,4,2026-03-12_13h35.31.720,2026A_exp2,2022.2.4,59.94176058854945,
1000,1,0.0,3.7,0,0,76,76,46,,,,,242.9132079000119,243.5638338001445,243.5638338001445,244.04864170006476,315,315,244.04864170006476,244.04864170006476,244.04864170006476,244.04864170006476,244.04864170006476,244.04864170006476,244.04864170006476,244.04864170006476,244.04864170006476,244.4145176000893,244.4145176000893,244.4145176000893,244.4145176000893,244.4145176000893,244.4145176000893,244.4145176000893,244.4145176000893,244.4145176000893,23,0,,,244.4145176000893,244.61501780012622,1000,244.61501780012622,1000,1000,1000,1000,1,num_2,0.5214941997546703,,31,4,2026-03-12_13h35.31.720,2026A_exp2,2022.2.4,59.94176058854945,
1000,1,0.0,6.1,1,0,77,77,43,,,,,245.16559440013953,245.81621240009554,245.81621240009554,246.3020019000396,315,45,246.3020019000396,246.3020019000396,246.3020019000396,246.3020019000396,246.3020019000396,246.3020019000396,246.3020019000396,246.3020019000396,246.3020019000396,246.66747920005582,246.66747920005582,246.66747920005582,246.66747920005582,246.66747920005582,246.66747920005582,246.66747920005582,246.66747920005582,246.66747920005582,23,0,,,246.66747920005582,246.86722570005804,1000,246.86722570005804,1000,1000,1000,1000,1,num_2,0.5492058000527322,,31,4,2026-03-12_13h35.31.720,2026A_exp2,2022.2.4,59.94176058854945,
1,0,0.0,0.0,1,0,78,78,39,,,,,247.43454749998637,248.08498189994134,248.08498189994134,248.56940819998272,315,45,248.56940819998272,248.56940819998272,248.56940819998272,248.56940819998272,248.56940819998272,248.56940819998272,248.56940819998272,248.56940819998272,248.56940819998272,248.9360049001407,248.9360049001407,248.9360049001407,248.9360049001407,248.9360049001407,248.9360049001407,248.9360049001407,248.9360049001407,248.9360049001407,23,0,,,248.9360049001407,249.1360951999668,0.0,249.1360951999668,0,0.0,0,1,1000,num_1,0.6645893999375403,,31,4,2026-03-12_13h35.31.720,2026A_exp2,2022.2.4,59.94176058854945,
1000,1,6.1,3.7,0,0,79,79,75,,,,,249.82081940001808,250.47084449999966,250.47084449999966,250.97228180011734,315,45,250.97228180011734,250.97228180011734,250.97228180011734,250.97228180011734,250.97228180011734,250.97228180011734,250.97228180011734,250.97228180011734,250.97228180011734,251.3220069000963,251.3220069000963,251.3220069000963,251.3220069000963,251.3220069000963,251.3220069000963,251.3220069000963,251.3220069000963,251.3220069000963,22,0,,,251.3220069000963,251.52192410011776,1000,251.52192410011776,1000,1000,1000,1000,0,num_3,0.5508404998108745,,31,4,2026-03-12_13h35.31.720,2026A_exp2,2022.2.4,59.94176058854945,
0,0,3.7,0.0,0,0,80,80,62,,,,,252.08919219998643,252.73980839992873,252.73980839992873,253.22421470005065,315,315,253.22421470005065,253.22421470005065,253.22421470005065,253.22421470005065,253.22421470005065,253.22421470005065,253.22421470005065,253.22421470005065,253.22421470005065,253.5905617000535,253.5905617000535,253.5905617000535,253.5905617000535,253.5905617000535,253.5905617000535,253.5905617000535,253.5905617000535,253.5905617000535,23,0,,,253.5905617000535,253.79072699998505,0.0,253.79072699998505,0,0.0,0,1,1000,num_1,0.9296809998340905,,31,4,2026-03-12_13h35.31.720,2026A_exp2,2022.2.4,59.94176058854945,
1000,1,6.1,6.1,1,0,81,81,4,,,,,254.74198479996994,255.37570270011202,255.37570270011202,255.8768230001442,315,315,255.8768230001442,255.8768230001442,255.8768230001442,255.8768230001442,255.8768230001442,255.8768230001442,255.8768230001442,255.8768230001442,255.8768230001442,256.2433299999684,256.2433299999684,256.2433299999684,256.2433299999684,256.2433299999684,256.2433299999684,256.2433299999684,256.2433299999684,256.2433299999684,23,0,,,256.2433299999684,256.4437287999317,1000,256.4437287999317,1000,1000,1000,1000,1,num_2,0.8050363999791443,,31,4,2026-03-12_13h35.31.720,2026A_exp2,2022.2.4,59.94176058854945,
1,0,0.0,3.7,1,0,82,82,32,,,,,257.2779169001151,257.9282863000408,257.9282863000408,258.42945510009304,315,315,258.42945510009304,258.42945510009304,258.42945510009304,258.42945510009304,258.42945510009304,258.42945510009304,258.42945510009304,258.42945510009304,258.42945510009304,258.77904450008646,258.77904450008646,258.77904450008646,258.77904450008646,258.77904450008646,258.77904450008646,258.77904450008646,258.77904450008646,258.77904450008646,22,0,,,258.77904450008646,258.9793851999566,3.7,258.9793851999566,1,3.7,1,1,1000,num_4,1.164882899960503,,31,4,2026-03-12_13h35.31.720,2026A_exp2,2022.2.4,59.94176058854945,
1,0,0.0,4.9,0,0,83,83,73,,,,,260.1637333999388,260.7977589999791,260.7977589999791,261.29884169995785,45,315,261.29884169995785,261.29884169995785,261.29884169995785,261.29884169995785,261.29884169995785,261.29884169995785,261.29884169995785,261.29884169995785,261.29884169995785,261.66527940006927,261.66527940006927,261.66527940006927,261.66527940006927,261.66527940006927,261.66527940006927,261.66527940006927,261.66527940006927,261.66527940006927,23,0,,,261.66527940006927,261.8653871000279,0.0,261.8653871000279,1,0.0,0,0,1000,num_4,1.0468520997092128,,31,4,2026-03-12_13h35.31.720,2026A_exp2,2022.2.4,59.94176058854945,
1000,1,0.0,3.7,1,0,84,84,84,,,,,262.93328600004315,263.58405459998176,263.58405459998176,264.0810527000576,315,315,264.0810527000576,264.0810527000576,264.0810527000576,264.0810527000576,264.0810527000576,264.0810527000576,264.0810527000576,264.0810527000576,264.0810527000576,264.4351749001071,264.4351749001071,264.4351749001071,264.4351749001071,264.4351749001071,264.4351749001071,264.4351749001071,264.4351749001071,264.4351749001071,23,0,,,264.4351749001071,264.63753619999625,1000,264.63753619999625,1000,1000,1000,1000,1,num_2,1.427409099880606,,31,4,2026-03-12_13h35.31.720,2026A_exp2,2022.2.4,59.94176058854945,
1000,1,4.9,4.9,1,0,85,85,68,,,,,266.08654609997757,266.7372282000724,266.7372282000724,267.2218780000694,315,45,267.2218780000694,267.2218780000694,267.2218780000694,267.2218780000694,267.2218780000694,267.2218780000694,267.2218780000694,267.2218780000694,267.2218780000694,267.5882500000298,267.5882500000298,267.5882500000298,267.5882500000298,267.5882500000298,267.5882500000298,267.5882500000298,267.5882500000298,267.5882500000298,23,0,,,267.5882500000298,267.7904002000578,1000,267.7904002000578,1000,1000,1000,1000,0,num_3,0.594148299889639,,31,4,2026-03-12_13h35.31.720,2026A_exp2,2022.2.4,59.94176058854945,
1,0,0.0,0.0,0,0,86,86,79,,,,,268.4096041000448,269.0563900000416,269.0563900000416,269.55728830001317,45,315,269.55728830001317,269.55728830001317,269.55728830001317,269.55728830001317,269.55728830001317,269.55728830001317,269.55728830001317,269.55728830001317,269.55728830001317,269.9238412999548,269.9238412999548,269.9238412999548,269.9238412999548,269.9238412999548,269.9238412999548,269.9238412999548,269.9238412999548,269.9238412999548,23,0,,,269.9238412999548,270.1240972999949,0.0,270.1240972999949,0,0.0,0,1,1000,num_1,0.8843664999585599,,31,4,2026-03-12_13h35.31.720,2026A_exp2,2022.2.4,59.94176058854945,
1,0,0.0,0.0,0,0,87,87,24,,,,,271.0248984999489,271.65891580004245,271.65891580004245,272.15987799991854,45,45,272.15987799991854,272.15987799991854,272.15987799991854,272.15987799991854,272.15987799991854,272.15987799991854,272.15987799991854,272.15987799991854,272.15987799991854,272.5263807999436,272.5263807999436,272.5263807999436,272.5263807999436,272.5263807999436,272.5263807999436,272.5263807999436,272.5263807999436,272.5263807999436,23,0,,,272.5263807999436,272.72667600004934,0.0,272.72667600004934,0,0.0,0,1,1000,num_1,0.6590314998757094,,31,4,2026-03-12_13h35.31.720,2026A_exp2,2022.2.4,59.94176058854945,
1,0,6.1,0.0,0,0,88,88,47,,,,,273.4105817999225,274.06118920003064,274.06118920003064,274.55102170002647,45,315,274.55102170002647,274.55102170002647,274.55102170002647,274.55102170002647,274.55102170002647,274.55102170002647,274.55102170002647,274.55102170002647,274.55102170002647,274.91219080006704,274.91219080006704,274.91219080006704,274.91219080006704,274.91219080006704,274.91219080006704,274.91219080006704,274.91219080006704,274.91219080006704,23,0,,,274.91219080006704,275.11243920004927,6.1,275.11243920004927,1,6.1,1,1,1000,num_4,0.9919262998737395,,31,4,2026-03-12_13h35.31.720,2026A_exp2,2022.2.4,59.94176058854945,
1,0,6.1,4.9,1,0,89,89,64,,,,,276.12990280007944,276.7640217000153,276.7640217000153,277.26523989997804,45,45,277.26523989997804,277.26523989997804,277.26523989997804,277.26523989997804,277.26523989997804,277.26523989997804,277.26523989997804,277.26523989997804,277.26523989997804,277.63165260013193,277.63165260013193,277.63165260013193,277.63165260013193,277.63165260013193,277.63165260013193,277.63165260013193,277.63165260013193,277.63165260013193,23,0,,,277.63165260013193,277.8318274000194,4.9,277.8318274000194,1,4.9,1,1,1000,num_4,1.0325382999144495,,31,4,2026-03-12_13h35.31.720,2026A_exp2,2022.2.4,59.94176058854945,
,,,,,,,,,,,,,,,,,,,,,,,,,,,,,,,,,,,,,,,,,,,,,,,,,,,,278.8906714001205,,,,,,,
