validity,detectorcomp,contrastCW,contrastCCW,precueCWorCCW,block_80trials.thisRepN,block_80trials.thisTrialN,block_80trials.thisN,block_80trials.thisIndex,etRecord.started,etRecord.stopped,text.started,text.stopped,text_4.started,text_4.stopped,text_6.started,text_6.stopped,oriCW,oriCCW,roi_2.started,grating_UR.started,grating_UL.started,grating_LR.started,grating_LL.started,noise_UR.started,noise_UL.started,noise_LR.started,noise_LL.started,roi_2.stopped,grating_UR.stopped,grating_UL.stopped,grating_LR.stopped,grating_LL.stopped,noise_UR.stopped,noise_UL.stopped,noise_LR.stopped,noise_LL.stopped,outframe,roi_2.numLooks,roi_2.timesOn,roi_2.timesOff,text_2.started,text_2.stopped,probedcontrast,key_resp.started,respdetect,relevantContrast,correctDetect,TorFdetect,respCWorCCW,key_resp.keys,key_resp.rt,feedback_display_.started,participantNo,blockNo,date,expName,psychopyVersion,frameRate,
1,0,6.1,0.0,1,0,0,0,89,3.590004052966833e-05,3.590004052966833e-05,61.596152399957646,63.603989899973385,63.603989899973385,64.25260109995725,64.25260109995725,64.7549439999857,45,315,64.7549439999857,64.7549439999857,64.7549439999857,64.7549439999857,64.7549439999857,64.7549439999857,64.7549439999857,64.7549439999857,64.7549439999857,65.10322029999224,65.10322029999224,65.10322029999224,65.10322029999224,65.10322029999224,65.10322029999224,65.10322029999224,65.10322029999224,65.10322029999224,23,0,,,65.10322029999224,65.30361219996121,0.0,65.30361219996121,1,0.0,0,0,1000,num_4,1.2173856000299565,,23,4,2026-03-04_13h32.52.615,2026A_exp2,2022.2.4,59.927607450110514,
1000,1,3.7,6.1,1,0,1,1,48,,,,,66.537758499966,67.17201739997836,67.17201739997836,67.67318559996784,45,45,67.67318559996784,67.67318559996784,67.67318559996784,67.67318559996784,67.67318559996784,67.67318559996784,67.67318559996784,67.67318559996784,67.67318559996784,68.03948709997348,68.03948709997348,68.03948709997348,68.03948709997348,68.03948709997348,68.03948709997348,68.03948709997348,68.03948709997348,68.03948709997348,23,0,,,68.03948709997348,68.24481349997222,1000,68.24481349997222,1000,1000,1000,1000,0,num_3,0.4928910000016913,,23,4,2026-03-04_13h32.52.615,2026A_exp2,2022.2.4,59.927607450110514,
1000,1,4.9,3.7,0,0,2,2,40,,,,,68.7569775999873,69.40758479997749,69.40758479997749,69.90858729998581,45,45,69.90858729998581,69.90858729998581,69.90858729998581,69.90858729998581,69.90858729998581,69.90858729998581,69.90858729998581,69.90858729998581,69.90858729998581,70.27536089997739,70.27536089997739,70.27536089997739,70.27536089997739,70.27536089997739,70.27536089997739,70.27536089997739,70.27536089997739,70.27536089997739,23,0,,,70.27536089997739,70.47706449998077,1000,70.47706449998077,1000,1000,1000,1000,0,num_3,0.3962967000552453,,23,4,2026-03-04_13h32.52.615,2026A_exp2,2022.2.4,59.927607450110514,
1,0,4.9,0.0,0,0,3,3,53,,,,,70.89247469999827,71.5431337999762,71.5431337999762,72.0442232999485,45,45,72.0442232999485,72.0442232999485,72.0442232999485,72.0442232999485,72.0442232999485,72.0442232999485,72.0442232999485,72.0442232999485,72.0442232999485,72.41059589997167,72.41059589997167,72.41059589997167,72.41059589997167,72.41059589997167,72.41059589997167,72.41059589997167,72.41059589997167,72.41059589997167,23,0,,,72.41059589997167,72.61082639999222,4.9,72.61082639999222,1,4.9,1,1,1000,num_4,0.7432799999951385,,23,4,2026-03-04_13h32.52.615,2026A_exp2,2022.2.4,59.927607450110514,
1,0,0.0,0.0,0,0,4,4,24,,,,,73.37830429995665,74.02894609997747,74.02894609997747,74.51339509995887,45,315,74.51339509995887,74.51339509995887,74.51339509995887,74.51339509995887,74.51339509995887,74.51339509995887,74.51339509995887,74.51339509995887,74.51339509995887,74.87983139994321,74.87983139994321,74.87983139994321,74.87983139994321,74.87983139994321,74.87983139994321,74.87983139994321,74.87983139994321,74.87983139994321,15,1,[0.0012220999924466014],[0.13378510001348332],74.87983139994321,75.0799445999437,0.0,75.0799445999437,0,0.0,0,1,1000,num_1,0.9942499999888241,,23,4,2026-03-04_13h32.52.615,2026A_exp2,2022.2.4,59.927607450110514,
1000,1,0.0,0.0,1,0,5,5,78,,,,,76.09741779998876,76.74812399997609,76.74812399997609,77.23261079995427,315,45,77.23261079995427,77.23261079995427,77.23261079995427,77.23261079995427,77.23261079995427,77.23261079995427,77.23261079995427,77.23261079995427,77.23261079995427,77.59915309998905,77.59915309998905,77.59915309998905,77.59915309998905,77.59915309998905,77.59915309998905,77.59915309998905,77.59915309998905,77.59915309998905,0,1,[0.0012011000071652234],[0.3673298000358045],77.59915309998905,77.80100019997917,1000,77.80100019997917,1000,1000,1000,1000,1,num_2,0.6718935000244528,,23,4,2026-03-04_13h32.52.615,2026A_exp2,2022.2.4,59.927607450110514,
1,0,0.0,0.0,0,0,6,6,88,,,,,78.49995349999517,79.15052639995702,79.15052639995702,79.6516950999503,315,45,79.6516950999503,79.6516950999503,79.6516950999503,79.6516950999503,79.6516950999503,79.6516950999503,79.6516950999503,79.6516950999503,79.6516950999503,80.01810559997102,80.01810559997102,80.01810559997102,80.01810559997102,80.01810559997102,80.01810559997102,80.01810559997102,80.01810559997102,80.01810559997102,0,1,[0.0012115000281482935],[0.3673022000002675],80.01810559997102,80.21832679997897,0.0,80.21832679997897,1,0.0,0,0,1000,num_4,0.7189486999996006,,23,4,2026-03-04_13h32.52.615,2026A_exp2,2022.2.4,59.927607450110514,
1000,1,0.0,0.0,0,0,7,7,5,,,,,80.95237939996878,81.60308789997362,81.60308789997362,82.11269299994456,315,315,82.11269299994456,82.11269299994456,82.11269299994456,82.11269299994456,82.11269299994456,82.11269299994456,82.11269299994456,82.11269299994456,82.11269299994456,82.47050759999547,82.47050759999547,82.47050759999547,82.47050759999547,82.47050759999547,82.47050759999547,82.47050759999547,82.47050759999547,82.47050759999547,0,1,[0.0030474000377580523],[0.36492640001233667],82.47050759999547,82.6725812999648,1000,82.6725812999648,1000,1000,1000,1000,1,num_2,1.2166648000129499,,23,4,2026-03-04_13h32.52.615,2026A_exp2,2022.2.4,59.927607450110514,
1,0,3.7,6.1,0,0,8,8,52,,,,,83.90537029999541,84.55596459994558,84.55596459994558,85.05705889995443,315,315,85.05705889995443,85.05705889995443,85.05705889995443,85.05705889995443,85.05705889995443,85.05705889995443,85.05705889995443,85.05705889995443,85.05705889995443,85.42364039999666,85.42364039999666,85.42364039999666,85.42364039999666,85.42364039999666,85.42364039999666,85.42364039999666,85.42364039999666,85.42364039999666,0,1,[0.001221399987116456],[0.36726139998063445],85.42364039999666,85.62381679995451,3.7,85.62381679995451,0,3.7,1,0,1000,num_1,0.9374098000116646,,23,4,2026-03-04_13h32.52.615,2026A_exp2,2022.2.4,59.927607450110514,
1,0,6.1,0.0,1,0,9,9,80,,,,,86.59133419999853,87.2419302999624,87.2419302999624,87.72644549998222,315,315,87.72644549998222,87.72644549998222,87.72644549998222,87.72644549998222,87.72644549998222,87.72644549998222,87.72644549998222,87.72644549998222,87.72644549998222,88.09276329999557,88.09276329999557,88.09276329999557,88.09276329999557,88.09276329999557,88.09276329999557,88.09276329999557,88.09276329999557,88.09276329999557,0,1,[0.0012384000001475215],[0.3669382000225596],88.09276329999557,88.29320619994542,0.0,88.29320619994542,0,0.0,0,1,1000,num_1,1.5397944999858737,,23,4,2026-03-04_13h32.52.615,2026A_exp2,2022.2.4,59.927607450110514,
1000,1,0.0,6.1,1,0,10,10,71,,,,,89.8613239999977,90.51217989996076,90.51217989996076,90.99636019999161,45,315,90.99636019999161,90.99636019999161,90.99636019999161,90.99636019999161,90.99636019999161,90.99636019999161,90.99636019999161,90.99636019999161,90.99636019999161,91.36291139997775,91.36291139997775,91.36291139997775,91.36291139997775,91.36291139997775,91.36291139997775,91.36291139997775,91.36291139997775,91.36291139997775,0,1,[0.001215800002682954],[0.36719999997876585],91.36291139997775,91.56483169994317,1000,91.56483169994317,1000,1000,1000,1000,1,num_2,1.0763597000041045,,23,4,2026-03-04_13h32.52.615,2026A_exp2,2022.2.4,59.927607450110514,
1000,1,0.0,0.0,1,0,11,11,85,,,,,92.664089399972,93.31484319997253,93.31484319997253,93.81595339998603,315,315,93.81595339998603,93.81595339998603,93.81595339998603,93.81595339998603,93.81595339998603,93.81595339998603,93.81595339998603,93.81595339998603,93.81595339998603,94.18240919994423,94.18240919994423,94.18240919994423,94.18240919994423,94.18240919994423,94.18240919994423,94.18240919994423,94.18240919994423,94.18240919994423,0,1,[0.0012946000206284225],[0.3672192000085488],94.18240919994423,94.38474809995387,1000,94.38474809995387,1000,1000,1000,1000,0,num_3,0.3846112000173889,,23,4,2026-03-04_13h32.52.615,2026A_exp2,2022.2.4,59.927607450110514,
1,0,0.0,0.0,0,0,12,12,55,,,,,94.79954639996868,95.45026639994467,95.45026639994467,95.95140139997238,45,315,95.95140139997238,95.95140139997238,95.95140139997238,95.95140139997238,95.95140139997238,95.95140139997238,95.95140139997238,95.95140139997238,95.95140139997238,96.31787939998321,96.31787939998321,96.31787939998321,96.31787939998321,96.31787939998321,96.31787939998321,96.31787939998321,96.31787939998321,96.31787939998321,0,1,[0.0012082000030204654],[0.3673974000266753],96.31787939998321,96.51802289998159,0.0,96.51802289998159,1,0.0,0,0,1000,num_4,1.923451499955263,,23,4,2026-03-04_13h32.52.615,2026A_exp2,2022.2.4,59.927607450110514,
1000,1,0.0,3.7,1,0,13,13,13,,,,,98.47002539999085,99.10393230000045,99.10393230000045,99.60509729996556,315,45,99.60509729996556,99.60509729996556,99.60509729996556,99.60509729996556,99.60509729996556,99.60509729996556,99.60509729996556,99.60509729996556,99.60509729996556,99.97131919994717,99.97131919994717,99.97131919994717,99.97131919994717,99.97131919994717,99.97131919994717,99.97131919994717,99.97131919994717,99.97131919994717,0,1,[0.0012465000036172569],[0.36719890002859756],99.97131919994717,100.17359899997246,1000,100.17359899997246,1000,1000,1000,1000,0,num_3,1.1320284999674186,,23,4,2026-03-04_13h32.52.615,2026A_exp2,2022.2.4,59.927607450110514,
1,0,0.0,4.9,0,0,14,14,3,,,,,101.32281879999209,101.973446399963,101.973446399963,102.47441539994907,45,315,102.47441539994907,102.47441539994907,102.47441539994907,102.47441539994907,102.47441539994907,102.47441539994907,102.47441539994907,102.47441539994907,102.47441539994907,102.84112709999317,102.84112709999317,102.84112709999317,102.84112709999317,102.84112709999317,102.84112709999317,102.84112709999317,102.84112709999317,102.84112709999317,10,6,"[0.0012577000306919217, 0.11630689998855814, 0.23445970000466332, 0.2678305000299588, 0.3179538000258617, 0.3513550999923609]","[0.09964580001542345, 0.16941879998194054, 0.2512667999835685, 0.2846179000334814, 0.33450619998620823, 0.36799490003613755]",102.84112709999317,103.04172409995226,0.0,103.04172409995226,1,0.0,0,0,1000,num_4,0.7834962999913841,,23,4,2026-03-04_13h32.52.615,2026A_exp2,2022.2.4,59.927607450110514,
1,0,4.9,3.7,0,0,15,15,44,,,,,103.84190459997626,104.49266129999887,104.49266129999887,104.977099599957,45,315,104.977099599957,104.977099599957,104.977099599957,104.977099599957,104.977099599957,104.977099599957,104.977099599957,104.977099599957,104.977099599957,105.34357209998416,105.34357209998416,105.34357209998416,105.34357209998416,105.34357209998416,105.34357209998416,105.34357209998416,105.34357209998416,105.34357209998416,0,1,[0.001208100002259016],[0.36714250000659376],105.34357209998416,105.54376729996875,4.9,105.54376729996875,1,4.9,1,1,1000,num_4,0.6180302999564447,,23,4,2026-03-04_13h32.52.615,2026A_exp2,2022.2.4,59.927607450110514,
1000,1,3.7,3.7,0,0,16,16,63,,,,,106.17764539999189,106.82825699995738,106.82825699995738,107.31266029999824,315,315,107.31266029999824,107.31266029999824,107.31266029999824,107.31266029999824,107.31266029999824,107.31266029999824,107.31266029999824,107.31266029999824,107.31266029999824,107.67918849998387,107.67918849998387,107.67918849998387,107.67918849998387,107.67918849998387,107.67918849998387,107.67918849998387,107.67918849998387,107.67918849998387,0,1,[0.0012407000176608562],[0.3672400999930687],107.67918849998387,107.8814409999759,1000,107.8814409999759,1000,1000,1000,1000,0,num_3,0.576542700000573,,23,4,2026-03-04_13h32.52.615,2026A_exp2,2022.2.4,59.927607450110514,
1000,1,3.7,0.0,1,0,17,17,19,,,,,108.47991499997443,109.13264779996825,109.13264779996825,109.631781199947,45,315,109.631781199947,109.631781199947,109.631781199947,109.631781199947,109.631781199947,109.631781199947,109.631781199947,109.631781199947,109.631781199947,109.998114899965,109.998114899965,109.998114899965,109.998114899965,109.998114899965,109.998114899965,109.998114899965,109.998114899965,109.998114899965,4,1,[0.06694900000002235],[0.3672375000314787],109.998114899965,110.20004709996283,1000,110.20004709996283,1000,1000,1000,1000,0,num_3,0.4510732999769971,,23,4,2026-03-04_13h32.52.615,2026A_exp2,2022.2.4,59.927607450110514,
1,0,6.1,6.1,1,0,18,18,23,,,,,110.68212569999741,111.33980039996095,111.33980039996095,111.81752929999493,45,315,111.81752929999493,111.81752929999493,111.81752929999493,111.81752929999493,111.81752929999493,111.81752929999493,111.81752929999493,111.81752929999493,111.81752929999493,112.183550799964,112.183550799964,112.183550799964,112.183550799964,112.183550799964,112.183550799964,112.183550799964,112.183550799964,112.183550799964,0,1,[0.0015960000455379486],[0.3667746999999508],112.183550799964,112.38393839995842,6.1,112.38393839995842,1,6.1,1,1,1000,num_4,0.857254299975466,,23,4,2026-03-04_13h32.52.615,2026A_exp2,2022.2.4,59.927607450110514,
1000,1,0.0,0.0,0,0,19,19,86,,,,,113.26964219997171,113.91891419998137,113.91891419998137,114.419802599994,45,45,114.419802599994,114.419802599994,114.419802599994,114.419802599994,114.419802599994,114.419802599994,114.419802599994,114.419802599994,114.419802599994,114.78621989995008,114.78621989995008,114.78621989995008,114.78621989995008,114.78621989995008,114.78621989995008,114.78621989995008,114.78621989995008,114.78621989995008,19,2,"[0.017278800019994378, 0.26713130000280216]","[0.08300830004736781, 0.2837227000272833]",114.78621989995008,114.98772319999989,1000,114.98772319999989,1000,1000,1000,1000,0,num_3,0.5500804000184871,,23,4,2026-03-04_13h32.52.615,2026A_exp2,2022.2.4,59.927607450110514,
1000,1,6.1,6.1,0,0,20,20,16,,,,,115.55365299998084,116.20431579998694,116.20431579998694,116.70555069996044,315,315,116.70555069996044,116.70555069996044,116.70555069996044,116.70555069996044,116.70555069996044,116.70555069996044,116.70555069996044,116.70555069996044,116.70555069996044,117.07158849999541,117.07158849999541,117.07158849999541,117.07158849999541,117.07158849999541,117.07158849999541,117.07158849999541,117.07158849999541,117.07158849999541,14,1,[0.03346030000830069],[0.1834792000008747],117.07158849999541,117.27379559999099,1000,117.27379559999099,1000,1000,1000,1000,1,num_2,0.5834126999834552,,23,4,2026-03-04_13h32.52.615,2026A_exp2,2022.2.4,59.927607450110514,
1000,1,0.0,3.7,0,0,21,21,46,,,,,117.87266429996816,118.52325219998602,118.52325219998602,119.0244327999535,45,45,119.0244327999535,119.0244327999535,119.0244327999535,119.0244327999535,119.0244327999535,119.0244327999535,119.0244327999535,119.0244327999535,119.0244327999535,119.39107369998237,119.39107369998237,119.39107369998237,119.39107369998237,119.39107369998237,119.39107369998237,119.39107369998237,119.39107369998237,119.39107369998237,23,0,,,119.39107369998237,119.60708839999279,1000,119.60708839999279,1000,1000,1000,1000,1,num_2,1.0819599999813363,,23,4,2026-03-04_13h32.52.615,2026A_exp2,2022.2.4,59.927607450110514,
1000,1,0.0,4.9,0,0,22,22,6,,,,,120.71050889999606,121.37051559996326,121.37051559996326,121.86338189995149,45,45,121.86338189995149,121.86338189995149,121.86338189995149,121.86338189995149,121.86338189995149,121.86338189995149,121.86338189995149,121.86338189995149,121.86338189995149,122.2269885999849,122.2269885999849,122.2269885999849,122.2269885999849,122.2269885999849,122.2269885999849,122.2269885999849,122.2269885999849,122.2269885999849,23,0,,,122.2269885999849,122.43640569999116,1000,122.43640569999116,1000,1000,1000,1000,1,num_2,0.6287323000142351,,23,4,2026-03-04_13h32.52.615,2026A_exp2,2022.2.4,59.927607450110514,
1,0,0.0,0.0,1,0,23,23,69,,,,,123.09452309994958,123.74525859998539,123.74525859998539,124.24638509994838,45,315,124.24638509994838,124.24638509994838,124.24638509994838,124.24638509994838,124.24638509994838,124.24638509994838,124.24638509994838,124.24638509994838,124.24638509994838,124.61283309996361,124.61283309996361,124.61283309996361,124.61283309996361,124.61283309996361,124.61283309996361,124.61283309996361,124.61283309996361,124.61283309996361,23,0,,,124.61283309996361,124.81304649997037,0.0,124.81304649997037,1,0.0,0,0,1000,num_4,1.0362591000157408,,23,4,2026-03-04_13h32.52.615,2026A_exp2,2022.2.4,59.927607450110514,
1000,1,0.0,0.0,1,0,24,24,9,,,,,125.8641383999493,126.51436509995256,126.51436509995256,127.01573349995306,315,45,127.01573349995306,127.01573349995306,127.01573349995306,127.01573349995306,127.01573349995306,127.01573349995306,127.01573349995306,127.01573349995306,127.01573349995306,127.38211759994738,127.38211759994738,127.38211759994738,127.38211759994738,127.38211759994738,127.38211759994738,127.38211759994738,127.38211759994738,127.38211759994738,23,0,,,127.38211759994738,127.58410659997026,1000,127.58410659997026,1000,1000,1000,1000,1,num_2,0.593971700000111,,23,4,2026-03-04_13h32.52.615,2026A_exp2,2022.2.4,59.927607450110514,
0,0,4.9,0.0,1,0,25,25,67,,,,,128.19975719996728,128.8503306999919,128.8503306999919,129.35145449999254,315,45,129.35145449999254,129.35145449999254,129.35145449999254,129.35145449999254,129.35145449999254,129.35145449999254,129.35145449999254,129.35145449999254,129.35145449999254,129.71793249994516,129.71793249994516,129.71793249994516,129.71793249994516,129.71793249994516,129.71793249994516,129.71793249994516,129.71793249994516,129.71793249994516,23,0,,,129.71793249994516,129.91811989998678,4.9,129.91811989998678,1,4.9,1,1,1000,num_4,1.7397518000216223,,23,4,2026-03-04_13h32.52.615,2026A_exp2,2022.2.4,59.927607450110514,
1000,1,4.9,4.9,1,0,26,26,68,,,,,131.68687969999155,132.32052919996204,132.32052919996204,132.82167869998375,315,315,132.82167869998375,132.82167869998375,132.82167869998375,132.82167869998375,132.82167869998375,132.82167869998375,132.82167869998375,132.82167869998375,132.82167869998375,133.18797019997146,133.18797019997146,133.18797019997146,133.18797019997146,133.18797019997146,133.18797019997146,133.18797019997146,133.18797019997146,133.18797019997146,23,0,,,133.18797019997146,133.3899214999983,1000,133.3899214999983,1000,1000,1000,1000,0,num_3,0.5311543000279926,,23,4,2026-03-04_13h32.52.615,2026A_exp2,2022.2.4,59.927607450110514,
1,0,3.7,4.9,1,0,27,27,18,,,,,133.93863279995276,134.58950589998858,134.58950589998858,135.0905740999733,315,45,135.0905740999733,135.0905740999733,135.0905740999733,135.0905740999733,135.0905740999733,135.0905740999733,135.0905740999733,135.0905740999733,135.0905740999733,135.45678539999062,135.45678539999062,135.45678539999062,135.45678539999062,135.45678539999062,135.45678539999062,135.45678539999062,135.45678539999062,135.45678539999062,20,1,[0.3339214999577962],[0.3673181999474764],135.45678539999062,135.65708529995754,4.9,135.65708529995754,1,4.9,1,1,1000,num_4,1.3451403999933973,,23,4,2026-03-04_13h32.52.615,2026A_exp2,2022.2.4,59.927607450110514,
1,0,6.1,4.9,1,0,28,28,11,,,,,137.02509809995536,137.67583319998812,137.67583319998812,138.16019699996104,315,45,138.16019699996104,138.16019699996104,138.16019699996104,138.16019699996104,138.16019699996104,138.16019699996104,138.16019699996104,138.16019699996104,138.16019699996104,138.52676119998796,138.52676119998796,138.52676119998796,138.52676119998796,138.52676119998796,138.52676119998796,138.52676119998796,138.52676119998796,138.52676119998796,5,1,[0.001199199992697686],[0.30059820000315085],138.52676119998796,138.72689739998896,4.9,138.72689739998896,1,4.9,1,1,1000,num_4,1.0018863000441343,,23,4,2026-03-04_13h32.52.615,2026A_exp2,2022.2.4,59.927607450110514,
1,0,0.0,6.1,1,0,29,29,33,,,,,139.7445053999545,140.3953050999553,140.3953050999553,140.87975939997705,45,315,140.87975939997705,140.87975939997705,140.87975939997705,140.87975939997705,140.87975939997705,140.87975939997705,140.87975939997705,140.87975939997705,140.87975939997705,141.24607259995537,141.24607259995537,141.24607259995537,141.24607259995537,141.24607259995537,141.24607259995537,141.24607259995537,141.24607259995537,141.24607259995537,23,0,,,141.24607259995537,141.446176599944,6.1,141.446176599944,1,6.1,1,1,1000,num_4,1.7394494999898598,,23,4,2026-03-04_13h32.52.615,2026A_exp2,2022.2.4,59.927607450110514,
1000,1,4.9,0.0,1,0,30,30,10,,,,,143.21493749995716,143.86759669997264,143.86759669997264,144.37498480000068,315,315,144.37498480000068,144.37498480000068,144.37498480000068,144.37498480000068,144.37498480000068,144.37498480000068,144.37498480000068,144.37498480000068,144.37498480000068,144.73285149998264,144.73285149998264,144.73285149998264,144.73285149998264,144.73285149998264,144.73285149998264,144.73285149998264,144.73285149998264,144.73285149998264,12,2,"[0.00430849997792393, 0.16393430001335219]","[0.11373729998013005, 0.23066990001825616]",144.73285149998264,144.93308759998763,1000,144.93308759998763,1000,1000,1000,1000,0,num_3,0.43601599999237806,,23,4,2026-03-04_13h32.52.615,2026A_exp2,2022.2.4,59.927607450110514,
1000,1,6.1,0.0,1,0,31,31,25,,,,,145.4002914999728,146.05088019999675,146.05088019999675,146.55219109996688,45,315,146.55219109996688,146.55219109996688,146.55219109996688,146.55219109996688,146.55219109996688,146.55219109996688,146.55219109996688,146.55219109996688,146.55219109996688,146.91857109998818,146.91857109998818,146.91857109998818,146.91857109998818,146.91857109998818,146.91857109998818,146.91857109998818,146.91857109998818,146.91857109998818,20,1,[0.18382540001766756],[0.23354100005235523],146.91857109998818,147.12042719998863,1000,147.12042719998863,1000,1000,1000,1000,0,num_3,0.40081850002752617,,23,4,2026-03-04_13h32.52.615,2026A_exp2,2022.2.4,59.927607450110514,
0,0,6.1,0.0,0,0,32,32,74,,,,,147.55232339998474,148.20285209995927,148.20285209995927,148.71770619996823,315,315,148.71770619996823,148.71770619996823,148.71770619996823,148.71770619996823,148.71770619996823,148.71770619996823,148.71770619996823,148.71770619996823,148.71770619996823,149.0539024999598,149.0539024999598,149.0539024999598,149.0539024999598,149.0539024999598,149.0539024999598,149.0539024999598,149.0539024999598,149.0539024999598,22,0,,,149.0539024999598,149.25392309995368,0.0,149.27078979997896,0,0.0,0,1,1000,num_1,0.8667320999666117,,23,4,2026-03-04_13h32.52.615,2026A_exp2,2022.2.4,59.927607450110514,
1000,1,4.9,0.0,0,0,33,33,41,,,,,150.15484009997454,150.80583869997645,150.80583869997645,151.290089099959,315,45,151.290089099959,151.290089099959,151.290089099959,151.290089099959,151.290089099959,151.290089099959,151.290089099959,151.290089099959,151.290089099959,151.65639369998826,151.65639369998826,151.65639369998826,151.65639369998826,151.65639369998826,151.65639369998826,151.65639369998826,151.65639369998826,151.65639369998826,20,2,"[0.06690599996363744, 0.10066549998009577]","[0.08356449997518212, 0.13358709996100515]",151.65639369998826,151.8588264999562,1000,151.8588264999562,1000,1000,1000,1000,0,num_3,0.7433958000037819,,23,4,2026-03-04_13h32.52.615,2026A_exp2,2022.2.4,59.927607450110514,
1000,1,3.7,6.1,1,0,34,34,58,,,,,152.62402499996824,153.27465549996123,153.27465549996123,153.77592989994446,315,45,153.77592989994446,153.77592989994446,153.77592989994446,153.77592989994446,153.77592989994446,153.77592989994446,153.77592989994446,153.77592989994446,153.77592989994446,154.12568439997267,154.12568439997267,154.12568439997267,154.12568439997267,154.12568439997267,154.12568439997267,154.12568439997267,154.12568439997267,154.12568439997267,7,2,"[0.0012106000212952495, 0.33385780005482957]","[0.21707660000538453, 0.35063380002975464]",154.12568439997267,154.32800429995405,1000,154.34255889995256,1000,1000,1000,1000,1,num_2,1.1149872000096366,,23,4,2026-03-04_13h32.52.615,2026A_exp2,2022.2.4,59.927607450110514,
0,0,0.0,3.7,0,0,35,35,34,,,,,155.4769109999761,156.12755499995546,156.12755499995546,156.64130089996615,315,315,156.64130089996615,156.64130089996615,156.64130089996615,156.64130089996615,156.64130089996615,156.64130089996615,156.64130089996615,156.64130089996615,156.64130089996615,156.9785753999604,156.9785753999604,156.9785753999604,156.9785753999604,156.9785753999604,156.9785753999604,156.9785753999604,156.9785753999604,156.9785753999604,0,1,[0.0043314999784342945],[0.34866159997181967],156.9785753999604,157.18189019995043,3.7,157.18189019995043,1,3.7,1,1,1000,num_4,1.1475874000461772,,23,4,2026-03-04_13h32.52.615,2026A_exp2,2022.2.4,59.927607450110514,
1,0,4.9,0.0,1,0,36,36,65,,,,,158.34656739997445,159.00631199998315,159.00631199998315,159.49813089997042,45,315,159.49813089997042,159.49813089997042,159.49813089997042,159.49813089997042,159.49813089997042,159.49813089997042,159.49813089997042,159.49813089997042,159.49813089997042,159.86469550000038,159.86469550000038,159.86469550000038,159.86469550000038,159.86469550000038,159.86469550000038,159.86469550000038,159.86469550000038,159.86469550000038,0,1,[0.0012203000369481742],[0.36715310002909973],159.86469550000038,160.06492859998252,0.0,160.06492859998252,0,0.0,0,1,1000,num_1,0.9358912000316195,,23,4,2026-03-04_13h32.52.615,2026A_exp2,2022.2.4,59.927607450110514,
1000,1,0.0,4.9,0,0,37,37,26,,,,,161.01566259999527,161.6663275999599,161.6663275999599,162.16766310000094,45,45,162.16766310000094,162.16766310000094,162.16766310000094,162.16766310000094,162.16766310000094,162.16766310000094,162.16766310000094,162.16766310000094,162.16766310000094,162.5339259999455,162.5339259999455,162.5339259999455,162.5339259999455,162.5339259999455,162.5339259999455,162.5339259999455,162.5339259999455,162.5339259999455,2,1,[0.033424100023694336],[0.3670367000158876],162.5339259999455,162.73432259995025,1000,162.73432259995025,1000,1000,1000,1000,0,num_3,0.7945842999615707,,23,4,2026-03-04_13h32.52.615,2026A_exp2,2022.2.4,59.927607450110514,
0,0,0.0,0.0,1,0,38,38,2,,,,,163.5516225999454,164.20229409995954,164.20229409995954,164.70340369996848,45,315,164.70340369996848,164.70340369996848,164.70340369996848,164.70340369996848,164.70340369996848,164.70340369996848,164.70340369996848,164.70340369996848,164.70340369996848,165.06996249995427,165.06996249995427,165.06996249995427,165.06996249995427,165.06996249995427,165.06996249995427,165.06996249995427,165.06996249995427,165.06996249995427,0,1,[0.0012502000317908823],[0.36732850002590567],165.06996249995427,165.27982799999882,0.0,165.27982799999882,1,0.0,0,0,1000,num_4,1.1130633999709971,,23,4,2026-03-04_13h32.52.615,2026A_exp2,2022.2.4,59.927607450110514,
1,0,3.7,0.0,1,0,39,39,12,,,,,166.42129809997277,167.07191729999613,167.07191729999613,167.5731007999857,315,315,167.5731007999857,167.5731007999857,167.5731007999857,167.5731007999857,167.5731007999857,167.5731007999857,167.5731007999857,167.5731007999857,167.5731007999857,167.9394688999746,167.9394688999746,167.9394688999746,167.9394688999746,167.9394688999746,167.9394688999746,167.9394688999746,167.9394688999746,167.9394688999746,23,0,,,167.9394688999746,168.13959739997517,0.0,168.13959739997517,1,0.0,0,0,1000,num_4,1.0534502000082284,,23,4,2026-03-04_13h32.52.615,2026A_exp2,2022.2.4,59.927607450110514,
1,0,0.0,0.0,1,0,40,40,49,,,,,169.20758319995366,169.85801959998207,169.85801959998207,170.35908009996638,315,315,170.35908009996638,170.35908009996638,170.35908009996638,170.35908009996638,170.35908009996638,170.35908009996638,170.35908009996638,170.35908009996638,170.35908009996638,170.72552669997094,170.72552669997094,170.72552669997094,170.72552669997094,170.72552669997094,170.72552669997094,170.72552669997094,170.72552669997094,170.72552669997094,21,1,[0.03313039999920875],[0.06675019999966025],170.72552669997094,170.9258590999525,0.0,170.9258590999525,0,0.0,0,1,1000,num_1,0.7159641999751329,,23,4,2026-03-04_13h32.52.615,2026A_exp2,2022.2.4,59.927607450110514,
1,0,0.0,4.9,1,0,41,41,37,,,,,171.65977469994687,172.31051059998572,172.31051059998572,172.79487389995484,315,45,172.79487389995484,172.79487389995484,172.79487389995484,172.79487389995484,172.79487389995484,172.79487389995484,172.79487389995484,172.79487389995484,172.79487389995484,173.16131139994832,173.16131139994832,173.16131139994832,173.16131139994832,173.16131139994832,173.16131139994832,173.16131139994832,173.16131139994832,173.16131139994832,21,2,"[0.0013005000073462725, 0.0501704000052996]","[0.017308700014837086, 0.06681220000609756]",173.16131139994832,173.3615937999566,4.9,173.3615937999566,0,4.9,1,0,1000,num_1,0.8632696999702603,,23,4,2026-03-04_13h32.52.615,2026A_exp2,2022.2.4,59.927607450110514,
1,0,6.1,0.0,0,0,42,42,47,,,,,174.24586069997167,174.89642839995213,174.89642839995213,175.3808919999865,45,315,175.3808919999865,175.3808919999865,175.3808919999865,175.3808919999865,175.3808919999865,175.3808919999865,175.3808919999865,175.3808919999865,175.3808919999865,175.7472341999528,175.7472341999528,175.7472341999528,175.7472341999528,175.7472341999528,175.7472341999528,175.7472341999528,175.7472341999528,175.7472341999528,23,0,,,175.7472341999528,175.9474821999902,6.1,175.9474821999902,1,6.1,1,1,1000,num_4,0.6852027000277303,,23,4,2026-03-04_13h32.52.615,2026A_exp2,2022.2.4,59.927607450110514,
0,0,4.9,3.7,0,0,43,43,28,,,,,176.66489729995374,177.29883439996047,177.29883439996047,177.79996919998666,45,45,177.79996919998666,177.79996919998666,177.79996919998666,177.79996919998666,177.79996919998666,177.79996919998666,177.79996919998666,177.79996919998666,177.79996919998666,178.16622639994603,178.16622639994603,178.16622639994603,178.16622639994603,178.16622639994603,178.16622639994603,178.16622639994603,178.16622639994603,178.16622639994603,23,0,,,178.16622639994603,178.36639819998527,3.7,178.36639819998527,0,3.7,1,0,1000,num_1,0.7786174000357278,,23,4,2026-03-04_13h32.52.615,2026A_exp2,2022.2.4,59.927607450110514,
1000,1,6.1,0.0,1,0,44,44,29,,,,,179.1672253999859,179.81786279997323,179.81786279997323,180.30234929994913,45,45,180.30234929994913,180.30234929994913,180.30234929994913,180.30234929994913,180.30234929994913,180.30234929994913,180.30234929994913,180.30234929994913,180.30234929994913,180.66872359998524,180.66872359998524,180.66872359998524,180.66872359998524,180.66872359998524,180.66872359998524,180.66872359998524,180.66872359998524,180.66872359998524,23,0,,,180.66872359998524,180.8710742999683,1000,180.8710742999683,1000,1000,1000,1000,0,num_3,0.7231485000229441,,23,4,2026-03-04_13h32.52.615,2026A_exp2,2022.2.4,59.927607450110514,
1,0,0.0,3.7,1,0,45,45,35,,,,,181.61967999994522,182.27030979999108,182.27030979999108,182.7716188999475,315,45,182.7716188999475,182.7716188999475,182.7716188999475,182.7716188999475,182.7716188999475,182.7716188999475,182.7716188999475,182.7716188999475,182.7716188999475,183.13774139998714,183.13774139998714,183.13774139998714,183.13774139998714,183.13774139998714,183.13774139998714,183.13774139998714,183.13774139998714,183.13774139998714,0,1,[0.0012132999836467206],[0.366914700018242],183.13774139998714,183.33827769994969,3.7,183.33827769994969,0,3.7,1,0,1000,num_1,1.1106148000108078,,23,4,2026-03-04_13h32.52.615,2026A_exp2,2022.2.4,59.927607450110514,
1,0,6.1,4.9,1,0,46,46,64,,,,,184.4725669999607,185.12331969995284,185.12331969995284,185.60765919997357,315,315,185.60765919997357,185.60765919997357,185.60765919997357,185.60765919997357,185.60765919997357,185.60765919997357,185.60765919997357,185.60765919997357,185.60765919997357,185.9741029999568,185.9741029999568,185.9741029999568,185.9741029999568,185.9741029999568,185.9741029999568,185.9741029999568,185.9741029999568,185.9741029999568,20,2,"[0.0012120999745093286, 0.05012390000047162]","[0.03348009998444468, 0.0670298999757506]",185.9741029999568,186.17441419995157,4.9,186.17441419995157,0,4.9,1,0,1000,num_1,0.9706979999900796,,23,4,2026-03-04_13h32.52.615,2026A_exp2,2022.2.4,59.927607450110514,
1,0,0.0,6.1,0,0,47,47,0,,,,,187.1753700999543,187.8091742999968,187.8091742999968,188.31041089998325,45,315,188.31041089998325,188.31041089998325,188.31041089998325,188.31041089998325,188.31041089998325,188.31041089998325,188.31041089998325,188.31041089998325,188.31041089998325,188.6768409999786,188.6768409999786,188.6768409999786,188.6768409999786,188.6768409999786,188.6768409999786,188.6768409999786,188.6768409999786,188.6768409999786,23,0,,,188.6768409999786,188.8772526999819,0.0,188.8772526999819,1,0.0,0,0,1000,num_4,1.1801424999721348,,23,4,2026-03-04_13h32.52.615,2026A_exp2,2022.2.4,59.927607450110514,
1000,1,0.0,0.0,0,0,48,48,17,,,,,190.07803449995117,190.72877779998817,190.72877779998817,191.21332239999902,315,315,191.21332239999902,191.21332239999902,191.21332239999902,191.21332239999902,191.21332239999902,191.21332239999902,191.21332239999902,191.21332239999902,191.21332239999902,191.57968969998183,191.57968969998183,191.57968969998183,191.57968969998183,191.57968969998183,191.57968969998183,191.57968969998183,191.57968969998183,191.57968969998183,3,1,[0.0012904999894089997],[0.3336653000442311],191.57968969998183,191.78165579994675,1000,191.78165579994675,1000,1000,1000,1000,0,num_3,1.0438759999815375,,23,4,2026-03-04_13h32.52.615,2026A_exp2,2022.2.4,59.927607450110514,
0,0,3.7,0.0,0,0,49,49,62,,,,,192.84757269994589,193.498387599946,193.498387599946,193.99952539999504,45,45,193.99952539999504,193.99952539999504,193.99952539999504,193.99952539999504,193.99952539999504,193.99952539999504,193.99952539999504,193.99952539999504,193.99952539999504,194.34901299997,194.34901299997,194.34901299997,194.34901299997,194.34901299997,194.34901299997,194.34901299997,194.34901299997,194.34901299997,0,1,[0.0007542000385001302],[0.3511986000230536],194.34901299997,194.5493237999617,0.0,194.56606179999653,0,0.0,0,1,1000,num_1,0.9870610000216402,,23,4,2026-03-04_13h32.52.615,2026A_exp2,2022.2.4,59.927607450110514,
1000,1,6.1,6.1,1,0,50,50,8,,,,,195.58369919995312,196.2345493999892,196.2345493999892,196.71876669995254,45,45,196.71876669995254,196.71876669995254,196.71876669995254,196.71876669995254,196.71876669995254,196.71876669995254,196.71876669995254,196.71876669995254,196.71876669995254,197.08530629996676,197.08530629996676,197.08530629996676,197.08530629996676,197.08530629996676,197.08530629996676,197.08530629996676,197.08530629996676,197.08530629996676,13,2,"[0.0012331000179983675, 0.1170313999755308]","[0.10036089998902753, 0.18351659999461845]",197.08530629996676,197.2871569999843,1000,197.2871569999843,1000,1000,1000,1000,0,num_3,0.593934900010936,,23,4,2026-03-04_13h32.52.615,2026A_exp2,2022.2.4,59.927607450110514,
1000,1,3.7,0.0,1,0,51,51,38,,,,,197.90274979994865,198.55340839998098,198.55340839998098,199.0376774999895,315,45,199.0376774999895,199.0376774999895,199.0376774999895,199.0376774999895,199.0376774999895,199.0376774999895,199.0376774999895,199.0376774999895,199.0376774999895,199.40423109999392,199.40423109999392,199.40423109999392,199.40423109999392,199.40423109999392,199.40423109999392,199.40423109999392,199.40423109999392,199.40423109999392,23,0,,,199.40423109999392,199.60654670000076,1000,199.60654670000076,1000,1000,1000,1000,1,num_2,1.499042300041765,,23,4,2026-03-04_13h32.52.615,2026A_exp2,2022.2.4,59.927607450110514,
1000,1,0.0,4.9,0,0,52,52,60,,,,,201.12266699998872,201.7841210999759,201.7841210999759,202.27439829998184,315,315,202.27439829998184,202.27439829998184,202.27439829998184,202.27439829998184,202.27439829998184,202.27439829998184,202.27439829998184,202.27439829998184,202.27439829998184,202.62418149999576,202.62418149999576,202.62418149999576,202.62418149999576,202.62418149999576,202.62418149999576,202.62418149999576,202.62418149999576,202.62418149999576,13,2,"[0.03338830004213378, 0.3503398000029847]","[0.16669400001410395, 0.35034480004105717]",202.62418149999576,202.8262843999546,1000,202.8262843999546,1000,1000,1000,1000,1,num_2,0.7990433999802917,,23,4,2026-03-04_13h32.52.615,2026A_exp2,2022.2.4,59.927607450110514,
1000,1,3.7,3.7,0,0,53,53,72,,,,,203.64181189995725,204.29241729999194,204.29241729999194,204.7935919999727,315,315,204.7935919999727,204.7935919999727,204.7935919999727,204.7935919999727,204.7935919999727,204.7935919999727,204.7935919999727,204.7935919999727,204.7935919999727,205.15994579996914,205.15994579996914,205.15994579996914,205.15994579996914,205.15994579996914,205.15994579996914,205.15994579996914,205.15994579996914,205.15994579996914,9,1,[0.15009290003217757],[0.3672569000045769],205.15994579996914,205.36229299998377,1000,205.36229299998377,1000,1000,1000,1000,0,num_3,0.710966799990274,,23,4,2026-03-04_13h32.52.615,2026A_exp2,2022.2.4,59.927607450110514,
0,0,0.0,0.0,0,0,54,54,59,,,,,206.09415079996688,206.74502969998866,206.74502969998866,207.24618189997273,45,45,207.24618189997273,207.24618189997273,207.24618189997273,207.24618189997273,207.24618189997273,207.24618189997273,207.24618189997273,207.24618189997273,207.24618189997273,207.61231029999908,207.61231029999908,207.61231029999908,207.61231029999908,207.61231029999908,207.61231029999908,207.61231029999908,207.61231029999908,207.61231029999908,22,1,[0.3171305000432767],[0.3338061000104062],207.61231029999908,207.81260589999147,0.0,207.81260589999147,0,0.0,0,1,1000,num_1,2.6763598000397906,,23,4,2026-03-04_13h32.52.615,2026A_exp2,2022.2.4,59.927607450110514,
1000,1,6.1,3.7,0,0,55,55,75,,,,,210.51534679997712,211.16594229999464,211.16594229999464,211.65035889996216,45,315,211.65035889996216,211.65035889996216,211.65035889996216,211.65035889996216,211.65035889996216,211.65035889996216,211.65035889996216,211.65035889996216,211.65035889996216,212.01689400000032,212.01689400000032,212.01689400000032,212.01689400000032,212.01689400000032,212.01689400000032,212.01689400000032,212.01689400000032,212.01689400000032,23,0,,,212.01689400000032,212.21911179996096,1000,212.21911179996096,1000,1000,1000,1000,0,num_3,1.0467784000211395,,23,4,2026-03-04_13h32.52.615,2026A_exp2,2022.2.4,59.927607450110514,
1,0,6.1,3.7,1,0,56,56,51,,,,,213.28465829999186,213.93537699995795,213.93537699995795,214.43636359996162,315,45,214.43636359996162,214.43636359996162,214.43636359996162,214.43636359996162,214.43636359996162,214.43636359996162,214.43636359996162,214.43636359996162,214.43636359996162,214.80299399996875,214.80299399996875,214.80299399996875,214.80299399996875,214.80299399996875,214.80299399996875,214.80299399996875,214.80299399996875,214.80299399996875,23,0,,,214.80299399996875,215.00310749997152,3.7,215.00310749997152,0,3.7,1,0,1000,num_1,2.0058035000110976,,23,4,2026-03-04_13h32.52.615,2026A_exp2,2022.2.4,59.927607450110514,
1000,1,0.0,0.0,0,0,57,57,15,,,,,217.0386720999959,217.68921409995528,217.68921409995528,218.1734751999611,315,45,218.1734751999611,218.1734751999611,218.1734751999611,218.1734751999611,218.1734751999611,218.1734751999611,218.1734751999611,218.1734751999611,218.1734751999611,218.53969149995828,218.53969149995828,218.53969149995828,218.53969149995828,218.53969149995828,218.53969149995828,218.53969149995828,218.53969149995828,218.53969149995828,23,0,,,218.53969149995828,218.74229449999984,1000,218.74229449999984,1000,1000,1000,1000,0,num_3,0.5951380000333302,,23,4,2026-03-04_13h32.52.615,2026A_exp2,2022.2.4,59.927607450110514,
1000,1,3.7,4.9,0,0,58,58,45,,,,,219.35761579999235,220.00813969998853,220.00813969998853,220.50936399999773,315,315,220.50936399999773,220.50936399999773,220.50936399999773,220.50936399999773,220.50936399999773,220.50936399999773,220.50936399999773,220.50936399999773,220.50936399999773,220.87573049997445,220.87573049997445,220.87573049997445,220.87573049997445,220.87573049997445,220.87573049997445,220.87573049997445,220.87573049997445,220.87573049997445,23,0,,,220.87573049997445,221.07753089995822,1000,221.07753089995822,1000,1000,1000,1000,0,num_3,0.4995617999811657,,23,4,2026-03-04_13h32.52.615,2026A_exp2,2022.2.4,59.927607450110514,
1,0,6.1,0.0,0,0,59,59,82,,,,,221.5929965999676,222.24365769996075,222.24365769996075,222.7279947999632,315,315,222.7279947999632,222.7279947999632,222.7279947999632,222.7279947999632,222.7279947999632,222.7279947999632,222.7279947999632,222.7279947999632,222.7279947999632,223.09459539997624,223.09459539997624,223.09459539997624,223.09459539997624,223.09459539997624,223.09459539997624,223.09459539997624,223.09459539997624,223.09459539997624,13,5,"[0.06672419997630641, 0.18387339997570962, 0.3006046999944374, 0.33392409997759387, 0.36747029999969527]","[0.08320940000703558, 0.2838721000007354, 0.31748939998215064, 0.3506582999834791, 0.367475499981083]",223.09459539997624,223.29474139999365,6.1,223.29474139999365,0,6.1,1,0,1000,num_1,1.5713718999759294,,23,4,2026-03-04_13h32.52.615,2026A_exp2,2022.2.4,59.927607450110514,
1000,1,6.1,0.0,1,0,60,60,83,,,,,224.89631769998232,225.54702239995822,225.54702239995822,226.03131609997945,45,315,226.03131609997945,226.03131609997945,226.03131609997945,226.03131609997945,226.03131609997945,226.03131609997945,226.03131609997945,226.03131609997945,226.03131609997945,226.3978907999699,226.3978907999699,226.3978907999699,226.3978907999699,226.3978907999699,226.3978907999699,226.3978907999699,226.3978907999699,226.3978907999699,3,3,"[0.0011980999843217432, 0.31694540003081784, 0.36711099999956787]","[0.2837182999937795, 0.3504596999846399, 0.3671157999779098]",226.3978907999699,226.59823029994732,1000,226.59823029994732,1000,1000,1000,1000,0,num_3,0.49897459999192506,,23,4,2026-03-04_13h32.52.615,2026A_exp2,2022.2.4,59.927607450110514,
1000,1,4.9,0.0,1,0,61,61,77,,,,,227.11509549996117,227.76588719995925,227.76588719995925,228.2670919999946,315,45,228.2670919999946,228.2670919999946,228.2670919999946,228.2670919999946,228.2670919999946,228.2670919999946,228.2670919999946,228.2670919999946,228.2670919999946,228.63343299995176,228.63343299995176,228.63343299995176,228.63343299995176,228.63343299995176,228.63343299995176,228.63343299995176,228.63343299995176,228.63343299995176,23,0,,,228.63343299995176,228.8338787999819,1000,228.8338787999819,1000,1000,1000,1000,0,num_3,0.5035957000218332,,23,4,2026-03-04_13h32.52.615,2026A_exp2,2022.2.4,59.927607450110514,
1,0,0.0,6.1,1,0,62,62,50,,,,,229.36754229996586,230.0183578999713,230.0183578999713,230.51934009999968,315,45,230.51934009999968,230.51934009999968,230.51934009999968,230.51934009999968,230.51934009999968,230.51934009999968,230.51934009999968,230.51934009999968,230.51934009999968,230.88552689994685,230.88552689994685,230.88552689994685,230.88552689994685,230.88552689994685,230.88552689994685,230.88552689994685,230.88552689994685,230.88552689994685,21,1,[0.0012134999851696193],[0.03341770003316924],230.88552689994685,231.08586029999424,6.1,231.08586029999424,1,6.1,1,1,1000,num_4,0.964002900000196,,23,4,2026-03-04_13h32.52.615,2026A_exp2,2022.2.4,59.927607450110514,
1,0,0.0,0.0,0,0,63,63,79,,,,,232.07010639994405,232.72076369996648,232.72076369996648,233.2053758999682,315,315,233.2053758999682,233.2053758999682,233.2053758999682,233.2053758999682,233.2053758999682,233.2053758999682,233.2053758999682,233.2053758999682,233.2053758999682,233.57194329996128,233.57194329996128,233.57194329996128,233.57194329996128,233.57194329996128,233.57194329996128,233.57194329996128,233.57194329996128,233.57194329996128,23,0,,,233.57194329996128,233.77199669997208,0.0,233.77199669997208,0,0.0,0,1,1000,num_1,1.285364200011827,,23,4,2026-03-04_13h32.52.615,2026A_exp2,2022.2.4,59.927607450110514,
1,0,0.0,3.7,1,0,64,64,32,,,,,235.0731066999724,235.72382349998225,235.72382349998225,236.20835219998844,45,45,236.20835219998844,236.20835219998844,236.20835219998844,236.20835219998844,236.20835219998844,236.20835219998844,236.20835219998844,236.20835219998844,236.20835219998844,236.57477929996094,236.57477929996094,236.57477929996094,236.57477929996094,236.57477929996094,236.57477929996094,236.57477929996094,236.57477929996094,236.57477929996094,6,4,"[0.001200700004119426, 0.05008090002229437, 0.13288420002209023, 0.18343239999376237]","[0.033464300038758665, 0.06671650003409013, 0.1664409000077285, 0.3671231000334956]",236.57477929996094,236.77484639995964,3.7,236.79255559999729,1,3.7,1,1,1000,num_4,1.257421099988278,,23,4,2026-03-04_13h32.52.615,2026A_exp2,2022.2.4,59.927607450110514,
1000,1,6.1,0.0,1,0,65,65,57,,,,,238.07614759996068,238.72695699997712,238.72695699997712,239.21139899996342,45,315,239.21139899996342,239.21139899996342,239.21139899996342,239.21139899996342,239.21139899996342,239.21139899996342,239.21139899996342,239.21139899996342,239.21139899996342,239.5777642999892,239.5777642999892,239.5777642999892,239.5777642999892,239.5777642999892,239.5777642999892,239.5777642999892,239.5777642999892,239.5777642999892,0,1,[0.0012528999941423535],[0.36718800000380725],239.5777642999892,239.77973469998688,1000,239.77973469998688,1000,1000,1000,1000,0,num_3,0.717390899953898,,23,4,2026-03-04_13h32.52.615,2026A_exp2,2022.2.4,59.927607450110514,
1000,1,3.7,0.0,0,0,66,66,56,,,,,240.52871489996323,241.17941819998669,241.17941819998669,241.68047719995957,315,315,241.68047719995957,241.68047719995957,241.68047719995957,241.68047719995957,241.68047719995957,241.68047719995957,241.68047719995957,241.68047719995957,241.68047719995957,242.0302155999816,242.0302155999816,242.0302155999816,242.0302155999816,242.0302155999816,242.0302155999816,242.0302155999816,242.0302155999816,242.0302155999816,22,0,,,242.0302155999816,242.23207779997028,1000,242.24701239995193,1000,1000,1000,1000,0,num_3,0.5945932000176981,,23,4,2026-03-04_13h32.52.615,2026A_exp2,2022.2.4,59.927607450110514,
1000,1,0.0,3.7,1,0,67,67,84,,,,,242.8642938999692,243.51505829999223,243.51505829999223,244.01601829996798,45,315,244.01601829996798,244.01601829996798,244.01601829996798,244.01601829996798,244.01601829996798,244.01601829996798,244.01601829996798,244.01601829996798,244.01601829996798,244.38255699997535,244.38255699997535,244.38255699997535,244.38255699997535,244.38255699997535,244.38255699997535,244.38255699997535,244.38255699997535,244.38255699997535,22,1,[0.3672472999896854],[0.367252699972596],244.38255699997535,244.5844619999989,1000,244.5844619999989,1000,1000,1000,1000,1,num_2,0.8813075000070967,,23,4,2026-03-04_13h32.52.615,2026A_exp2,2022.2.4,59.927607450110514,
1,0,3.7,3.7,1,0,68,68,30,,,,,245.48356889997376,246.1344403999974,246.1344403999974,246.6351267999853,45,315,246.6351267999853,246.6351267999853,246.6351267999853,246.6351267999853,246.6351267999853,246.6351267999853,246.6351267999853,246.6351267999853,246.6351267999853,247.00163219997194,247.00163219997194,247.00163219997194,247.00163219997194,247.00163219997194,247.00163219997194,247.00163219997194,247.00163219997194,247.00163219997194,0,1,[0.0007052000146359205],[0.367761800007429],247.00163219997194,247.20205639995402,3.7,247.20205639995402,0,3.7,1,0,1000,num_1,1.0468587999930605,,23,4,2026-03-04_13h32.52.615,2026A_exp2,2022.2.4,59.927607450110514,
1,0,4.9,3.7,1,0,69,69,27,,,,,248.26958669995656,248.921066699957,248.921066699957,249.40480969997589,315,315,249.40480969997589,249.40480969997589,249.40480969997589,249.40480969997589,249.40480969997589,249.40480969997589,249.40480969997589,249.40480969997589,249.40480969997589,249.77148349996423,249.77148349996423,249.77148349996423,249.77148349996423,249.77148349996423,249.77148349996423,249.77148349996423,249.77148349996423,249.77148349996423,0,1,[0.0014143000007607043],[0.3665771000087261],249.77148349996423,249.9714875999489,3.7,249.9714875999489,0,3.7,1,0,1000,num_1,1.0067147000227123,,23,4,2026-03-04_13h32.52.615,2026A_exp2,2022.2.4,59.927607450110514,
1,0,6.1,0.0,1,0,70,70,70,,,,,251.00568899995415,251.65650059998734,251.65650059998734,252.15606149996165,45,45,252.15606149996165,252.15606149996165,252.15606149996165,252.15606149996165,252.15606149996165,252.15606149996165,252.15606149996165,252.15606149996165,252.15606149996165,252.50734349997947,252.50734349997947,252.50734349997947,252.50734349997947,252.50734349997947,252.50734349997947,252.50734349997947,252.50734349997947,252.50734349997947,23,0,,,252.50734349997947,252.70756719994824,0.0,252.70756719994824,0,0.0,0,1,1000,num_1,0.7659233000013046,,23,4,2026-03-04_13h32.52.615,2026A_exp2,2022.2.4,59.927607450110514,
1000,1,0.0,4.9,1,0,71,71,66,,,,,253.49150439997902,254.14218479994452,254.14218479994452,254.62677699996857,315,45,254.62677699996857,254.62677699996857,254.62677699996857,254.62677699996857,254.62677699996857,254.62677699996857,254.62677699996857,254.62677699996857,254.62677699996857,254.99305329995696,254.99305329995696,254.99305329995696,254.99305329995696,254.99305329995696,254.99305329995696,254.99305329995696,254.99305329995696,254.99305329995696,23,0,,,254.99305329995696,255.19503879995318,1000,255.19503879995318,1000,1000,1000,1000,1,num_2,1.2707174000097439,,23,4,2026-03-04_13h32.52.615,2026A_exp2,2022.2.4,59.927607450110514,
1000,1,0.0,6.1,1,0,72,72,43,,,,,256.49459769995883,257.14494479994755,257.14494479994755,257.6462679999531,315,45,257.6462679999531,257.6462679999531,257.6462679999531,257.6462679999531,257.6462679999531,257.6462679999531,257.6462679999531,257.6462679999531,257.6462679999531,258.0126847999636,258.0126847999636,258.0126847999636,258.0126847999636,258.0126847999636,258.0126847999636,258.0126847999636,258.0126847999636,258.0126847999636,23,0,,,258.0126847999636,258.21487699996214,1000,258.21487699996214,1000,1000,1000,1000,1,num_2,0.95407440001145,,23,4,2026-03-04_13h32.52.615,2026A_exp2,2022.2.4,59.927607450110514,
1000,1,6.1,6.1,1,0,73,73,4,,,,,259.1971181999543,259.8479615999968,259.8479615999968,260.3490673999768,315,45,260.3490673999768,260.3490673999768,260.3490673999768,260.3490673999768,260.3490673999768,260.3490673999768,260.3490673999768,260.3490673999768,260.3490673999768,260.71544899995206,260.71544899995206,260.71544899995206,260.71544899995206,260.71544899995206,260.71544899995206,260.71544899995206,260.71544899995206,260.71544899995206,0,1,[0.0012372000492177904],[0.3673578000161797],260.71544899995206,260.9175844999845,1000,260.9175844999845,1000,1000,1000,1000,1,num_2,0.7316775000072084,,23,4,2026-03-04_13h32.52.615,2026A_exp2,2022.2.4,59.927607450110514,
1000,1,4.9,0.0,0,0,74,74,54,,,,,261.66641569999047,262.31704829999944,262.31704829999944,262.81819339998765,315,315,262.81819339998765,262.81819339998765,262.81819339998765,262.81819339998765,262.81819339998765,262.81819339998765,262.81819339998765,262.81819339998765,262.81819339998765,263.18461119994754,263.18461119994754,263.18461119994754,263.18461119994754,263.18461119994754,263.18461119994754,263.18461119994754,263.18461119994754,263.18461119994754,14,2,"[0.18341490003513172, 0.2668209000257775]","[0.21681170002557337, 0.3672229000367224]",263.18461119994754,263.38708519999636,1000,263.38708519999636,1000,1000,1000,1000,0,num_3,1.0624249000102282,,23,4,2026-03-04_13h32.52.615,2026A_exp2,2022.2.4,59.927607450110514,
1,0,0.0,3.7,1,0,75,75,14,,,,,264.4691693999921,265.12000669998815,265.12000669998815,265.62107269995613,315,45,265.62107269995613,265.62107269995613,265.62107269995613,265.62107269995613,265.62107269995613,265.62107269995613,265.62107269995613,265.62107269995613,265.62107269995613,265.9875428999658,265.9875428999658,265.9875428999658,265.9875428999658,265.9875428999658,265.9875428999658,265.9875428999658,265.9875428999658,265.9875428999658,23,0,,,265.9875428999658,266.18773579999106,3.7,266.18773579999106,1,3.7,1,1,1000,num_4,0.8132097999914549,,23,4,2026-03-04_13h32.52.615,2026A_exp2,2022.2.4,59.927607450110514,
1000,1,3.7,0.0,0,0,76,76,76,,,,,267.0218882999616,267.67255009996006,267.67255009996006,268.15683669998543,315,45,268.15683669998543,268.15683669998543,268.15683669998543,268.15683669998543,268.15683669998543,268.15683669998543,268.15683669998543,268.15683669998543,268.15683669998543,268.52329759998247,268.52329759998247,268.52329759998247,268.52329759998247,268.52329759998247,268.52329759998247,268.52329759998247,268.52329759998247,268.52329759998247,23,0,,,268.52329759998247,268.7251707999967,1000,268.7251707999967,1000,1000,1000,1000,0,num_3,0.9967464000219479,,23,4,2026-03-04_13h32.52.615,2026A_exp2,2022.2.4,59.927607450110514,
0,0,6.1,4.9,0,0,77,77,22,,,,,269.7411158999894,270.3916556999902,270.3916556999902,270.89308899996104,315,315,270.89308899996104,270.89308899996104,270.89308899996104,270.89308899996104,270.89308899996104,270.89308899996104,270.89308899996104,270.89308899996104,270.89308899996104,271.24273589998484,271.24273589998484,271.24273589998484,271.24273589998484,271.24273589998484,271.24273589998484,271.24273589998484,271.24273589998484,271.24273589998484,22,0,,,271.24273589998484,271.44285779999336,4.9,271.44285779999336,0,4.9,1,0,1000,num_1,0.7423072000383399,,23,4,2026-03-04_13h32.52.615,2026A_exp2,2022.2.4,59.927607450110514,
1,0,3.7,4.9,1,0,78,78,20,,,,,272.21019399998477,272.86098229995696,272.86098229995696,273.3454448999837,45,315,273.3454448999837,273.3454448999837,273.3454448999837,273.3454448999837,273.3454448999837,273.3454448999837,273.3454448999837,273.3454448999837,273.3454448999837,273.71193109999876,273.71193109999876,273.71193109999876,273.71193109999876,273.71193109999876,273.71193109999876,273.71193109999876,273.71193109999876,273.71193109999876,23,0,,,273.71193109999876,273.91215989994816,4.9,273.91215989994816,1,4.9,1,1,1000,num_4,0.8653871000278741,,23,4,2026-03-04_13h32.52.615,2026A_exp2,2022.2.4,59.927607450110514,
1,0,0.0,4.9,0,0,79,79,73,,,,,274.7962588999653,275.4469080999843,275.4469080999843,275.93124049995095,315,45,275.93124049995095,275.93124049995095,275.93124049995095,275.93124049995095,275.93124049995095,275.93124049995095,275.93124049995095,275.93124049995095,275.93124049995095,276.2976278999704,276.2976278999704,276.2976278999704,276.2976278999704,276.2976278999704,276.2976278999704,276.2976278999704,276.2976278999704,276.2976278999704,23,0,,,276.2976278999704,276.4979976999457,0.0,276.4979976999457,1,0.0,0,0,1000,num_4,1.1827416999731213,,23,4,2026-03-04_13h32.52.615,2026A_exp2,2022.2.4,59.927607450110514,
1000,1,0.0,0.0,1,0,80,80,1,,,,,277.69907319999766,278.3497801999911,278.3497801999911,278.83425669994904,45,315,278.83425669994904,278.83425669994904,278.83425669994904,278.83425669994904,278.83425669994904,278.83425669994904,278.83425669994904,278.83425669994904,278.83425669994904,279.20075209997594,279.20075209997594,279.20075209997594,279.20075209997594,279.20075209997594,279.20075209997594,279.20075209997594,279.20075209997594,279.20075209997594,23,0,,,279.20075209997594,279.4026787999901,1000,279.4026787999901,1000,1000,1000,1000,1,num_2,1.2222975000040606,,23,4,2026-03-04_13h32.52.615,2026A_exp2,2022.2.4,59.927607450110514,
1,0,0.0,6.1,1,0,81,81,36,,,,,280.65209469996626,281.3026556999539,281.3026556999539,281.8039350999752,315,45,281.8039350999752,281.8039350999752,281.8039350999752,281.8039350999752,281.8039350999752,281.8039350999752,281.8039350999752,281.8039350999752,281.8039350999752,282.17015739995986,282.17015739995986,282.17015739995986,282.17015739995986,282.17015739995986,282.17015739995986,282.17015739995986,282.17015739995986,282.17015739995986,23,0,,,282.17015739995986,282.3704096999718,6.1,282.3704096999718,1,6.1,1,1,1000,num_4,0.7348492999444716,,23,4,2026-03-04_13h32.52.615,2026A_exp2,2022.2.4,59.927607450110514,
1,0,3.7,0.0,0,0,82,82,87,,,,,283.13809379999293,283.7886679999647,283.7886679999647,284.27310880000005,45,315,284.27310880000005,284.27310880000005,284.27310880000005,284.27310880000005,284.27310880000005,284.27310880000005,284.27310880000005,284.27310880000005,284.27310880000005,284.63947509997524,284.63947509997524,284.63947509997524,284.63947509997524,284.63947509997524,284.63947509997524,284.63947509997524,284.63947509997524,284.63947509997524,23,0,,,284.63947509997524,284.8396791999694,3.7,284.8396791999694,1,3.7,1,1,1000,num_4,0.9453739000018686,,23,4,2026-03-04_13h32.52.615,2026A_exp2,2022.2.4,59.927607450110514,
1000,1,6.1,0.0,0,0,83,83,81,,,,,285.8072377999779,286.45794699998805,286.45794699998805,286.958875399956,315,315,286.958875399956,286.958875399956,286.958875399956,286.958875399956,286.958875399956,286.958875399956,286.958875399956,286.958875399956,286.958875399956,287.3088586999802,287.3088586999802,287.3088586999802,287.3088586999802,287.3088586999802,287.3088586999802,287.3088586999802,287.3088586999802,287.3088586999802,22,0,,,287.3088586999802,287.5108623999986,1000,287.5108623999986,1000,1000,1000,1000,0,num_3,0.7633797000162303,,23,4,2026-03-04_13h32.52.615,2026A_exp2,2022.2.4,59.927607450110514,
1,0,6.1,0.0,0,0,84,84,21,,,,,288.2930458999472,288.9460283999797,288.9460283999797,289.45029569999315,45,315,289.45029569999315,289.45029569999315,289.45029569999315,289.45029569999315,289.45029569999315,289.45029569999315,289.45029569999315,289.45029569999315,289.45029569999315,289.81108949996997,289.81108949996997,289.81108949996997,289.81108949996997,289.81108949996997,289.81108949996997,289.81108949996997,289.81108949996997,289.81108949996997,23,0,,,289.81108949996997,290.0114746999461,6.1,290.0114746999461,1,6.1,1,1,1000,num_4,0.6052548000006936,,23,4,2026-03-04_13h32.52.615,2026A_exp2,2022.2.4,59.927607450110514,
1000,1,0.0,4.9,0,0,85,85,61,,,,,290.64551399997436,291.29606579995016,291.29606579995016,291.78043569996953,315,315,291.78043569996953,291.78043569996953,291.78043569996953,291.78043569996953,291.78043569996953,291.78043569996953,291.78043569996953,291.78043569996953,291.78043569996953,292.1469627999468,292.1469627999468,292.1469627999468,292.1469627999468,292.1469627999468,292.1469627999468,292.1469627999468,292.1469627999468,292.1469627999468,23,0,,,292.1469627999468,292.3491666999762,1000,292.3491666999762,1000,1000,1000,1000,1,num_2,0.7959565999917686,,23,4,2026-03-04_13h32.52.615,2026A_exp2,2022.2.4,59.927607450110514,
1,0,0.0,0.0,1,0,86,86,42,,,,,293.16450689994963,293.8152000999544,293.8152000999544,294.31645220000064,315,45,294.31645220000064,294.31645220000064,294.31645220000064,294.31645220000064,294.31645220000064,294.31645220000064,294.31645220000064,294.31645220000064,294.31645220000064,294.6661997999763,294.6661997999763,294.6661997999763,294.6661997999763,294.6661997999763,294.6661997999763,294.6661997999763,294.6661997999763,294.6661997999763,20,1,[0.11679469997761771],[0.1502844999777153],294.6661997999763,294.8663277999731,0.0,294.8663277999731,1,0.0,0,0,1000,num_4,0.7106000000494532,,23,4,2026-03-04_13h32.52.615,2026A_exp2,2022.2.4,59.927607450110514,
1,0,0.0,6.1,1,0,87,87,31,,,,,295.6002569999546,296.25102989998413,296.25102989998413,296.73539319995325,45,315,296.73539319995325,296.73539319995325,296.73539319995325,296.73539319995325,296.73539319995325,296.73539319995325,296.73539319995325,296.73539319995325,296.73539319995325,297.1019668999943,297.1019668999943,297.1019668999943,297.1019668999943,297.1019668999943,297.1019668999943,297.1019668999943,297.1019668999943,297.1019668999943,18,2,"[0.21713599999202415, 0.25044799997704104]","[0.23374200001126155, 0.30059519998030737]",297.1019668999943,297.30203829996753,6.1,297.3185482999543,1,6.1,1,1,1000,num_4,0.6342452000244521,,23,4,2026-03-04_13h32.52.615,2026A_exp2,2022.2.4,59.927607450110514,
1000,1,0.0,0.0,0,0,88,88,7,,,,,297.96960339997895,298.60349089995725,298.60349089995725,299.104586499976,45,315,299.104586499976,299.104586499976,299.104586499976,299.104586499976,299.104586499976,299.104586499976,299.104586499976,299.104586499976,299.104586499976,299.4710239999695,299.4710239999695,299.4710239999695,299.4710239999695,299.4710239999695,299.4710239999695,299.4710239999695,299.4710239999695,299.4710239999695,22,1,[0.3168065000209026],[0.3332417000201531],299.4710239999695,299.6728130999836,1000,299.6728130999836,1000,1000,1000,1000,1,num_2,0.8569778999662958,,23,4,2026-03-04_13h32.52.615,2026A_exp2,2022.2.4,59.927607450110514,
1,0,0.0,0.0,1,0,89,89,39,,,,,300.5552861999604,301.206020099984,301.206020099984,301.70718609995674,315,45,301.70718609995674,301.70718609995674,301.70718609995674,301.70718609995674,301.70718609995674,301.70718609995674,301.70718609995674,301.70718609995674,301.70718609995674,302.0735687999986,302.0735687999986,302.0735687999986,302.0735687999986,302.0735687999986,302.0735687999986,302.0735687999986,302.0735687999986,302.0735687999986,23,0,,,302.0735687999986,302.273812200001,0.0,302.273812200001,1,0.0,0,0,1000,num_4,0.5669491000007838,,23,4,2026-03-04_13h32.52.615,2026A_exp2,2022.2.4,59.927607450110514,
,,,,,,,,,,,,,,,,,,,,,,,,,,,,,,,,,,,,,,,,,,,,,,,,,,,,302.86624429997755,,,,,,,
