validity,detectorcomp,contrastCW,contrastCCW,precueCWorCCW,block_80trials.thisRepN,block_80trials.thisTrialN,block_80trials.thisN,block_80trials.thisIndex,etRecord.started,etRecord.stopped,text.started,text.stopped,text_4.started,text_4.stopped,text_6.started,text_6.stopped,oriCW,oriCCW,roi_2.started,grating_UR.started,grating_UL.started,grating_LR.started,grating_LL.started,noise_UR.started,noise_UL.started,noise_LR.started,noise_LL.started,roi_2.stopped,grating_UR.stopped,grating_UL.stopped,grating_LR.stopped,grating_LL.stopped,noise_UR.stopped,noise_UL.stopped,noise_LR.stopped,noise_LL.stopped,outframe,roi_2.numLooks,roi_2.timesOn,roi_2.timesOff,text_2.started,text_2.stopped,probedcontrast,key_resp.started,respdetect,relevantContrast,correctDetect,TorFdetect,respCWorCCW,key_resp.keys,key_resp.rt,feedback_display_.started,participantNo,blockNo,date,expName,psychopyVersion,frameRate,
1,0,3.7,0.0,0,0,0,0,15,6.2700011767447e-05,6.2700011767447e-05,53.04278269998031,55.05427550000604,55.05427550000604,55.695047899964266,55.695047899964266,56.21528629999375,45,315,56.21528629999375,56.21528629999375,56.21528629999375,56.21528629999375,56.21528629999375,56.21528629999375,56.21528629999375,56.21528629999375,56.21528629999375,56.562619799980894,56.562619799980894,56.562619799980894,56.562619799980894,56.562619799980894,56.562619799980894,56.562619799980894,56.562619799980894,56.562619799980894,23,0,,,56.562619799980894,56.76283839996904,3.7,56.76283839996904,1,3.7,1,1,1000,num_4,0.5599610000499524,,25,6,2026-03-04_17h39.07.886,2026A_exp2,2022.2.4,60.036153781513015,
1000,1,4.9,4.9,1,0,1,1,67,,,,,57.34698339999886,57.99785849999171,57.99785849999171,58.482163099979516,45,45,58.482163099979516,58.482163099979516,58.482163099979516,58.482163099979516,58.482163099979516,58.482163099979516,58.482163099979516,58.482163099979516,58.482163099979516,58.848674200009555,58.848674200009555,58.848674200009555,58.848674200009555,58.848674200009555,58.848674200009555,58.848674200009555,58.848674200009555,58.848674200009555,23,0,,,58.848674200009555,59.06179229996633,1000,59.06179229996633,1000,1000,1000,1000,0,num_3,0.4682914999430068,,25,6,2026-03-04_17h39.07.886,2026A_exp2,2022.2.4,60.036153781513015,
1000,1,0.0,3.7,0,0,2,2,18,,,,,59.549411299987696,60.19996339996578,60.19996339996578,60.70107089995872,315,315,60.70107089995872,60.70107089995872,60.70107089995872,60.70107089995872,60.70107089995872,60.70107089995872,60.70107089995872,60.70107089995872,60.70107089995872,61.06751510000322,61.06751510000322,61.06751510000322,61.06751510000322,61.06751510000322,61.06751510000322,61.06751510000322,61.06751510000322,61.06751510000322,23,0,,,61.06751510000322,61.2699231999577,1000,61.2699231999577,1000,1000,1000,1000,1,num_2,0.32410109997726977,,25,6,2026-03-04_17h39.07.886,2026A_exp2,2022.2.4,60.036153781513015,
1000,1,0.0,0.0,1,0,3,3,27,,,,,61.617699299997184,62.268657199980225,62.268657199980225,62.77007460000459,315,45,62.77007460000459,62.77007460000459,62.77007460000459,62.77007460000459,62.77007460000459,62.77007460000459,62.77007460000459,62.77007460000459,62.77007460000459,63.13627149997046,63.13627149997046,63.13627149997046,63.13627149997046,63.13627149997046,63.13627149997046,63.13627149997046,63.13627149997046,63.13627149997046,23,0,,,63.13627149997046,63.33845709997695,1000,63.33845709997695,1000,1000,1000,1000,0,num_3,0.31162270001368597,,25,6,2026-03-04_17h39.07.886,2026A_exp2,2022.2.4,60.036153781513015,
1,0,0.0,0.0,1,0,4,4,56,,,,,63.67054580000695,64.32081139995717,64.32081139995717,64.82231399999,315,45,64.82231399999,64.82231399999,64.82231399999,64.82231399999,64.82231399999,64.82231399999,64.82231399999,64.82231399999,64.82231399999,65.18814879999263,65.18814879999263,65.18814879999263,65.18814879999263,65.18814879999263,65.18814879999263,65.18814879999263,65.18814879999263,65.18814879999263,23,0,,,65.18814879999263,65.38845819997368,0.0,65.38845819997368,1,0.0,0,0,1000,num_4,0.6293287999578752,,25,6,2026-03-04_17h39.07.886,2026A_exp2,2022.2.4,60.036153781513015,
1,0,6.1,0.0,1,0,5,5,41,,,,,66.0390272999648,66.6898124999716,66.6898124999716,67.17415699997218,315,315,67.17415699997218,67.17415699997218,67.17415699997218,67.17415699997218,67.17415699997218,67.17415699997218,67.17415699997218,67.17415699997218,67.17415699997218,67.54067129996838,67.54067129996838,67.54067129996838,67.54067129996838,67.54067129996838,67.54067129996838,67.54067129996838,67.54067129996838,67.54067129996838,23,0,,,67.54067129996838,67.74074400000973,0.0,67.74074400000973,1,0.0,0,0,1000,num_4,0.6300424999790266,,25,6,2026-03-04_17h39.07.886,2026A_exp2,2022.2.4,60.036153781513015,
1,0,0.0,4.9,0,0,6,6,48,,,,,68.39141209999798,69.04230380000081,69.04230380000081,69.52656209998531,45,45,69.52656209998531,69.52656209998531,69.52656209998531,69.52656209998531,69.52656209998531,69.52656209998531,69.52656209998531,69.52656209998531,69.52656209998531,69.89297029998852,69.89297029998852,69.89297029998852,69.89297029998852,69.89297029998852,69.89297029998852,69.89297029998852,69.89297029998852,69.89297029998852,0,1,[0.0012126000365242362],[0.3671721999999136],69.89297029998852,70.09322749997955,0.0,70.09322749997955,0,0.0,0,1,1000,num_1,0.524194700003136,,25,6,2026-03-04_17h39.07.886,2026A_exp2,2022.2.4,60.036153781513015,
1,0,0.0,0.0,0,0,7,7,87,,,,,70.64365869999165,71.27776999998605,71.27776999998605,71.77895669999998,315,45,71.77895669999998,71.77895669999998,71.77895669999998,71.77895669999998,71.77895669999998,71.77895669999998,71.77895669999998,71.77895669999998,71.77895669999998,72.14529149996815,72.14529149996815,72.14529149996815,72.14529149996815,72.14529149996815,72.14529149996815,72.14529149996815,72.14529149996815,72.14529149996815,10,1,[0.16682499996386468],[0.3674379999865778],72.14529149996815,72.34546079998836,0.0,72.34546079998836,1,0.0,0,0,1000,num_4,0.24902809999184683,,25,6,2026-03-04_17h39.07.886,2026A_exp2,2022.2.4,60.036153781513015,
1000,1,0.0,4.9,0,0,8,8,50,,,,,72.61232119996566,73.26299769995967,73.26299769995967,73.74753250001231,45,45,73.74753250001231,73.74753250001231,73.74753250001231,73.74753250001231,73.74753250001231,73.74753250001231,73.74753250001231,73.74753250001231,73.74753250001231,74.1138859000057,74.1138859000057,74.1138859000057,74.1138859000057,74.1138859000057,74.1138859000057,74.1138859000057,74.1138859000057,74.1138859000057,23,0,,,74.1138859000057,74.31419090001145,1000,74.31419090001145,1000,1000,1000,1000,1,num_2,0.3275671000010334,,25,6,2026-03-04_17h39.07.886,2026A_exp2,2022.2.4,60.036153781513015,
1,0,6.1,0.0,1,0,9,9,53,,,,,74.66439749998972,75.31508430000395,75.31508430000395,75.81628299999284,315,315,75.81628299999284,75.81628299999284,75.81628299999284,75.81628299999284,75.81628299999284,75.81628299999284,75.81628299999284,75.81628299999284,75.81628299999284,76.18264569999883,76.18264569999883,76.18264569999883,76.18264569999883,76.18264569999883,76.18264569999883,76.18264569999883,76.18264569999883,76.18264569999883,23,0,,,76.18264569999883,76.38283439999213,0.0,76.38283439999213,0,0.0,0,1,1000,num_1,0.41854560002684593,,25,6,2026-03-04_17h39.07.886,2026A_exp2,2022.2.4,60.036153781513015,
1000,1,4.9,4.9,0,0,10,10,6,,,,,76.83338510000613,77.46735529997386,77.46735529997386,77.96845469996333,315,45,77.96845469996333,77.96845469996333,77.96845469996333,77.96845469996333,77.96845469996333,77.96845469996333,77.96845469996333,77.96845469996333,77.96845469996333,78.33484739996493,78.33484739996493,78.33484739996493,78.33484739996493,78.33484739996493,78.33484739996493,78.33484739996493,78.33484739996493,78.33484739996493,23,0,,,78.33484739996493,78.53688249998959,1000,78.53688249998959,1000,1000,1000,1000,1,num_2,0.2088400999782607,,25,6,2026-03-04_17h39.07.886,2026A_exp2,2022.2.4,60.036153781513015,
1000,1,0.0,0.0,1,0,11,11,8,,,,,78.76837869995506,79.40257079998264,79.40257079998264,79.90370520000579,315,45,79.90370520000579,79.90370520000579,79.90370520000579,79.90370520000579,79.90370520000579,79.90370520000579,79.90370520000579,79.90370520000579,79.90370520000579,80.27007789997151,80.27007789997151,80.27007789997151,80.27007789997151,80.27007789997151,80.27007789997151,80.27007789997151,80.27007789997151,80.27007789997151,23,0,,,80.27007789997151,80.4718784999568,1000,80.4718784999568,1000,1000,1000,1000,1,num_2,0.36989000003086403,,25,6,2026-03-04_17h39.07.886,2026A_exp2,2022.2.4,60.036153781513015,
1,0,0.0,6.1,1,0,12,12,39,,,,,80.87067390000448,81.52136979997158,81.52136979997158,82.02247540000826,315,315,82.02247540000826,82.02247540000826,82.02247540000826,82.02247540000826,82.02247540000826,82.02247540000826,82.02247540000826,82.02247540000826,82.02247540000826,82.38877029996365,82.38877029996365,82.38877029996365,82.38877029996365,82.38877029996365,82.38877029996365,82.38877029996365,82.38877029996365,82.38877029996365,23,0,,,82.38877029996365,82.5889809000073,6.1,82.5889809000073,0,6.1,1,0,1000,num_1,0.3170659000170417,,25,6,2026-03-04_17h39.07.886,2026A_exp2,2022.2.4,60.036153781513015,
0,0,0.0,6.1,0,0,13,13,30,,,,,82.92241449997528,83.57319490000373,83.57319490000373,84.05766689998563,315,45,84.05766689998563,84.05766689998563,84.05766689998563,84.05766689998563,84.05766689998563,84.05766689998563,84.05766689998563,84.05766689998563,84.05766689998563,84.42422749998514,84.42422749998514,84.42422749998514,84.42422749998514,84.42422749998514,84.42422749998514,84.42422749998514,84.42422749998514,84.42422749998514,20,1,[0.0501755999866873],[0.1001894999644719],84.42422749998514,84.624356299988,6.1,84.624356299988,0,6.1,1,0,1000,num_1,0.025983700004871935,,25,6,2026-03-04_17h39.07.886,2026A_exp2,2022.2.4,60.036153781513015,
0,0,4.9,3.7,1,0,14,14,13,,,,,84.67424729996128,85.32505769998534,85.32505769998534,85.80956490000244,45,45,85.80956490000244,85.80956490000244,85.80956490000244,85.80956490000244,85.80956490000244,85.80956490000244,85.80956490000244,85.80956490000244,85.80956490000244,86.17590539995581,86.17590539995581,86.17590539995581,86.17590539995581,86.17590539995581,86.17590539995581,86.17590539995581,86.17590539995581,86.17590539995581,23,0,,,86.17590539995581,86.37575149995973,4.9,86.37575149995973,1,4.9,1,1,1000,num_4,0.8585515000158921,,25,6,2026-03-04_17h39.07.886,2026A_exp2,2022.2.4,60.036153781513015,
1,0,6.1,4.9,1,0,15,15,38,,,,,87.26037450000877,87.9110825000098,87.9110825000098,88.39539909997256,45,315,88.39539909997256,88.39539909997256,88.39539909997256,88.39539909997256,88.39539909997256,88.39539909997256,88.39539909997256,88.39539909997256,88.39539909997256,88.76180069998372,88.76180069998372,88.76180069998372,88.76180069998372,88.76180069998372,88.76180069998372,88.76180069998372,88.76180069998372,88.76180069998372,23,0,,,88.76180069998372,88.97330640000291,4.9,88.97330640000291,1,4.9,1,1,1000,num_4,0.2764196000061929,,25,6,2026-03-04_17h39.07.886,2026A_exp2,2022.2.4,60.036153781513015,
1,0,0.0,0.0,1,0,16,16,24,,,,,89.27890029997798,89.92966510000406,89.92966510000406,90.43086269998457,45,315,90.43086269998457,90.43086269998457,90.43086269998457,90.43086269998457,90.43086269998457,90.43086269998457,90.43086269998457,90.43086269998457,90.43086269998457,90.78042119997554,90.78042119997554,90.78042119997554,90.78042119997554,90.78042119997554,90.78042119997554,90.78042119997554,90.78042119997554,90.78042119997554,22,0,,,90.78042119997554,90.9807033999823,0.0,90.99748600000748,0,0.0,0,1,1000,num_1,0.19682320003630593,,25,6,2026-03-04_17h39.07.886,2026A_exp2,2022.2.4,60.036153781513015,
1000,1,4.9,0.0,0,0,17,17,82,,,,,91.21419359999709,91.8729953999864,91.8729953999864,92.36188290000428,315,315,92.36188290000428,92.36188290000428,92.36188290000428,92.36188290000428,92.36188290000428,92.36188290000428,92.36188290000428,92.36188290000428,92.36188290000428,92.71589479997056,92.71589479997056,92.71589479997056,92.71589479997056,92.71589479997056,92.71589479997056,92.71589479997056,92.71589479997056,92.71589479997056,23,0,,,92.71589479997056,92.92030180001166,1000,92.92030180001166,1000,1000,1000,1000,1,num_2,0.09030350000830367,,25,6,2026-03-04_17h39.07.886,2026A_exp2,2022.2.4,60.036153781513015,
1,0,0.0,4.9,1,0,18,18,44,,,,,93.03265399998054,93.68334579997463,93.68334579997463,94.18468000000576,315,315,94.18468000000576,94.18468000000576,94.18468000000576,94.18468000000576,94.18468000000576,94.18468000000576,94.18468000000576,94.18468000000576,94.18468000000576,94.55101569998078,94.55101569998078,94.55101569998078,94.55101569998078,94.55101569998078,94.55101569998078,94.55101569998078,94.55101569998078,94.55101569998078,23,0,,,94.55101569998078,94.75117880001199,4.9,94.75117880001199,1,4.9,1,1,1000,num_4,0.20219619997078553,,25,6,2026-03-04_17h39.07.886,2026A_exp2,2022.2.4,60.036153781513015,
1,0,0.0,3.7,0,0,19,19,34,,,,,94.98457520001102,95.63544539996656,95.63544539996656,96.1199123999686,45,45,96.1199123999686,96.1199123999686,96.1199123999686,96.1199123999686,96.1199123999686,96.1199123999686,96.1199123999686,96.1199123999686,96.1199123999686,96.48629729996901,96.48629729996901,96.48629729996901,96.48629729996901,96.48629729996901,96.48629729996901,96.48629729996901,96.48629729996901,96.48629729996901,23,0,,,96.48629729996901,96.6864650999778,0.0,96.6864650999778,1,0.0,0,0,1000,num_4,0.17224370001349598,,25,6,2026-03-04_17h39.07.886,2026A_exp2,2022.2.4,60.036153781513015,
1,0,3.7,0.0,1,0,20,20,73,,,,,96.88662730000215,97.53729199996451,97.53729199996451,98.02168869995512,315,315,98.02168869995512,98.02168869995512,98.02168869995512,98.02168869995512,98.02168869995512,98.02168869995512,98.02168869995512,98.02168869995512,98.02168869995512,98.38820180000039,98.38820180000039,98.38820180000039,98.38820180000039,98.38820180000039,98.38820180000039,98.38820180000039,98.38820180000039,98.38820180000039,23,0,,,98.38820180000039,98.58830219996162,0.0,98.58830219996162,0,0.0,0,1,1000,num_1,0.05314929998712614,,25,6,2026-03-04_17h39.07.886,2026A_exp2,2022.2.4,60.036153781513015,
1,0,0.0,0.0,1,0,21,21,77,,,,,98.67165939998813,99.3334412999684,99.3334412999684,99.82171960000414,315,45,99.82171960000414,99.82171960000414,99.82171960000414,99.82171960000414,99.82171960000414,99.82171960000414,99.82171960000414,99.82171960000414,99.82171960000414,100.17335269995965,100.17335269995965,100.17335269995965,100.17335269995965,100.17335269995965,100.17335269995965,100.17335269995965,100.17335269995965,100.17335269995965,23,0,,,100.17335269995965,100.3734267000109,0.0,100.3734267000109,0,0.0,0,1,1000,num_1,0.09265569999115542,,25,6,2026-03-04_17h39.07.886,2026A_exp2,2022.2.4,60.036153781513015,
1000,1,6.1,0.0,1,0,22,22,61,,,,,100.49003889999585,101.14086659997702,101.14086659997702,101.62527479999699,315,45,101.62527479999699,101.62527479999699,101.62527479999699,101.62527479999699,101.62527479999699,101.62527479999699,101.62527479999699,101.62527479999699,101.62527479999699,101.99160239996854,101.99160239996854,101.99160239996854,101.99160239996854,101.99160239996854,101.99160239996854,101.99160239996854,101.99160239996854,101.99160239996854,23,0,,,101.99160239996854,102.1919016999891,1000,102.1919016999891,1000,1000,1000,1000,0,num_3,0.5386597000178881,,25,6,2026-03-04_17h39.07.886,2026A_exp2,2022.2.4,60.036153781513015,
1000,1,4.9,4.9,0,0,23,23,36,,,,,102.75918140000431,103.40970739995828,103.40970739995828,103.9108868999756,45,45,103.9108868999756,103.9108868999756,103.9108868999756,103.9108868999756,103.9108868999756,103.9108868999756,103.9108868999756,103.9108868999756,103.9108868999756,104.26074219995644,104.26074219995644,104.26074219995644,104.26074219995644,104.26074219995644,104.26074219995644,104.26074219995644,104.26074219995644,104.26074219995644,22,0,,,104.26074219995644,104.4628812999581,1000,104.4628812999581,1000,1000,1000,1000,1,num_2,0.3313237000256777,,25,6,2026-03-04_17h39.07.886,2026A_exp2,2022.2.4,60.036153781513015,
1000,1,0.0,3.7,0,0,24,24,21,,,,,104.81136569997761,105.46208309999201,105.46208309999201,105.96283879998373,45,315,105.96283879998373,105.96283879998373,105.96283879998373,105.96283879998373,105.96283879998373,105.96283879998373,105.96283879998373,105.96283879998373,105.96283879998373,106.3293493000092,106.3293493000092,106.3293493000092,106.3293493000092,106.3293493000092,106.3293493000092,106.3293493000092,106.3293493000092,106.3293493000092,16,6,"[0.06704170000739396, 0.11684189998777583, 0.2000656999880448, 0.26689069997519255, 0.3166372999548912, 0.3662487999536097]","[0.08359019999625161, 0.13325579999946058, 0.23352099995827302, 0.2833968999912031, 0.3332372999866493, 0.366253099986352]",106.3293493000092,106.53132119996008,1000,106.53132119996008,1000,1000,1000,1000,0,num_3,0.06329270004061982,,25,6,2026-03-04_17h39.07.886,2026A_exp2,2022.2.4,60.036153781513015,
1000,1,3.7,0.0,1,0,25,25,54,,,,,106.612873999984,107.26378420001129,107.26378420001129,107.76478189998306,45,45,107.76478189998306,107.76478189998306,107.76478189998306,107.76478189998306,107.76478189998306,107.76478189998306,107.76478189998306,107.76478189998306,107.76478189998306,108.13131249998696,108.13131249998696,108.13131249998696,108.13131249998696,108.13131249998696,108.13131249998696,108.13131249998696,108.13131249998696,108.13131249998696,23,0,,,108.13131249998696,108.33310809999239,1000,108.33310809999239,1000,1000,1000,1000,1,num_2,0.3005107000353746,,25,6,2026-03-04_17h39.07.886,2026A_exp2,2022.2.4,60.036153781513015,
1000,1,4.9,3.7,0,0,26,26,26,,,,,108.66516499995487,109.31562999996822,109.31562999996822,109.80017900001258,45,45,109.80017900001258,109.80017900001258,109.80017900001258,109.80017900001258,109.80017900001258,109.80017900001258,109.80017900001258,109.80017900001258,109.80017900001258,110.16657229996054,110.16657229996054,110.16657229996054,110.16657229996054,110.16657229996054,110.16657229996054,110.16657229996054,110.16657229996054,110.16657229996054,22,1,[0.36699559999397025],[0.3670024000457488],110.16657229996054,110.36856839997927,1000,110.36856839997927,1000,1000,1000,1000,0,num_3,0.16194660001201555,,25,6,2026-03-04_17h39.07.886,2026A_exp2,2022.2.4,60.036153781513015,
1,0,6.1,0.0,1,0,27,27,23,,,,,110.55014549999032,111.20066079997923,111.20066079997923,111.70225889998255,45,315,111.70225889998255,111.70225889998255,111.70225889998255,111.70225889998255,111.70225889998255,111.70225889998255,111.70225889998255,111.70225889998255,111.70225889998255,112.06851010001265,112.06851010001265,112.06851010001265,112.06851010001265,112.06851010001265,112.06851010001265,112.06851010001265,112.06851010001265,112.06851010001265,23,0,,,112.06851010001265,112.2688111999887,0.0,112.2688111999887,1,0.0,0,0,1000,num_4,0.15762559999711812,,25,6,2026-03-04_17h39.07.886,2026A_exp2,2022.2.4,60.036153781513015,
1,0,4.9,4.9,1,0,28,28,32,,,,,112.45220479997806,113.08632999996189,113.08632999996189,113.58728370000608,45,315,113.58728370000608,113.58728370000608,113.58728370000608,113.58728370000608,113.58728370000608,113.58728370000608,113.58728370000608,113.58728370000608,113.58728370000608,113.95367690001149,113.95367690001149,113.95367690001149,113.95367690001149,113.95367690001149,113.95367690001149,113.95367690001149,113.95367690001149,113.95367690001149,10,2,"[0.05006459995638579, 0.24996679998002946]","[0.21652489999542013, 0.29994999995687976]",113.95367690001149,114.15390559996013,4.9,114.15390559996013,0,4.9,1,0,1000,num_1,0.1037285000202246,,25,6,2026-03-04_17h39.07.886,2026A_exp2,2022.2.4,60.036153781513015,
1,0,0.0,6.1,0,0,29,29,3,,,,,114.28740490000928,114.93812679999974,114.93812679999974,115.42242620000616,315,45,115.42242620000616,115.42242620000616,115.42242620000616,115.42242620000616,115.42242620000616,115.42242620000616,115.42242620000616,115.42242620000616,115.42242620000616,115.78890200000023,115.78890200000023,115.78890200000023,115.78890200000023,115.78890200000023,115.78890200000023,115.78890200000023,115.78890200000023,115.78890200000023,0,1,[0.001202500017825514],[0.36705160001292825],115.78890200000023,115.98916930000996,0.0,115.98916930000996,1,0.0,0,0,1000,num_4,0.2845480000250973,,25,6,2026-03-04_17h39.07.886,2026A_exp2,2022.2.4,60.036153781513015,
1,0,4.9,0.0,1,0,30,30,52,,,,,116.28925539995544,116.93993549997685,116.93993549997685,117.4245121999993,45,315,117.4245121999993,117.4245121999993,117.4245121999993,117.4245121999993,117.4245121999993,117.4245121999993,117.4245121999993,117.4245121999993,117.4245121999993,117.79088399995817,117.79088399995817,117.79088399995817,117.79088399995817,117.79088399995817,117.79088399995817,117.79088399995817,117.79088399995817,117.79088399995817,23,0,,,117.79088399995817,117.99105499999132,0.0,117.99105499999132,0,0.0,0,1,1000,num_1,1.1465812000096776,,25,6,2026-03-04_17h39.07.886,2026A_exp2,2022.2.4,60.036153781513015,
1,0,0.0,0.0,1,0,31,31,68,,,,,119.15880159998778,119.80981099995552,119.80981099995552,120.29389909998281,45,315,120.29389909998281,120.29389909998281,120.29389909998281,120.29389909998281,120.29389909998281,120.29389909998281,120.29389909998281,120.29389909998281,120.29389909998281,120.66049849998672,120.66049849998672,120.66049849998672,120.66049849998672,120.66049849998672,120.66049849998672,120.66049849998672,120.66049849998672,120.66049849998672,23,0,,,120.66049849998672,120.86070709995693,0.0,120.86070709995693,0,0.0,0,1,1000,num_1,0.1974494000314735,,25,6,2026-03-04_17h39.07.886,2026A_exp2,2022.2.4,60.036153781513015,
1000,1,0.0,0.0,1,0,32,32,63,,,,,121.07736369996564,121.71154230000684,121.71154230000684,122.21254259999841,315,45,122.21254259999841,122.21254259999841,122.21254259999841,122.21254259999841,122.21254259999841,122.21254259999841,122.21254259999841,122.21254259999841,122.21254259999841,122.57896229997277,122.57896229997277,122.57896229997277,122.57896229997277,122.57896229997277,122.57896229997277,122.57896229997277,122.57896229997277,122.57896229997277,23,0,,,122.57896229997277,122.78162139997585,1000,122.78162139997585,1000,1000,1000,1000,0,num_3,0.3570321000297554,,25,6,2026-03-04_17h39.07.886,2026A_exp2,2022.2.4,60.036153781513015,
1,0,0.0,3.7,1,0,33,33,83,,,,,123.16288129996974,123.81345189997228,123.81345189997228,124.31481710000662,45,315,124.31481710000662,124.31481710000662,124.31481710000662,124.31481710000662,124.31481710000662,124.31481710000662,124.31481710000662,124.31481710000662,124.31481710000662,124.68079139996553,124.68079139996553,124.68079139996553,124.68079139996553,124.68079139996553,124.68079139996553,124.68079139996553,124.68079139996553,124.68079139996553,23,0,,,124.68079139996553,124.8812762000016,3.7,124.8812762000016,1,3.7,1,1,1000,num_4,0.17632659996161237,,25,6,2026-03-04_17h39.07.886,2026A_exp2,2022.2.4,60.036153781513015,
0,0,6.1,0.0,0,0,34,34,65,,,,,125.08137249998981,125.73218140000245,125.73218140000245,126.2164563999977,45,315,126.2164563999977,126.2164563999977,126.2164563999977,126.2164563999977,126.2164563999977,126.2164563999977,126.2164563999977,126.2164563999977,126.2164563999977,126.58289789996343,126.58289789996343,126.58289789996343,126.58289789996343,126.58289789996343,126.58289789996343,126.58289789996343,126.58289789996343,126.58289789996343,23,0,,,126.58289789996343,126.78332190000219,0.0,126.78332190000219,0,0.0,0,1,1000,num_1,0.13072479999391362,,25,6,2026-03-04_17h39.07.886,2026A_exp2,2022.2.4,60.036153781513015,
1,0,0.0,0.0,1,0,35,35,60,,,,,126.93319159996463,127.5840091999853,127.5840091999853,128.06846579996636,315,315,128.06846579996636,128.06846579996636,128.06846579996636,128.06846579996636,128.06846579996636,128.06846579996636,128.06846579996636,128.06846579996636,128.06846579996636,128.43469839997124,128.43469839997124,128.43469839997124,128.43469839997124,128.43469839997124,128.43469839997124,128.43469839997124,128.43469839997124,128.43469839997124,23,0,,,128.43469839997124,128.63506379997125,0.0,128.63506379997125,0,0.0,0,1,1000,num_1,0.21448749996488914,,25,6,2026-03-04_17h39.07.886,2026A_exp2,2022.2.4,60.036153781513015,
0,0,4.9,4.9,0,0,36,36,88,,,,,128.8685250999988,129.51935369998682,129.51935369998682,130.00369869999122,315,315,130.00369869999122,130.00369869999122,130.00369869999122,130.00369869999122,130.00369869999122,130.00369869999122,130.00369869999122,130.00369869999122,130.00369869999122,130.37019769998733,130.37019769998733,130.37019769998733,130.37019769998733,130.37019769998733,130.37019769998733,130.37019769998733,130.37019769998733,130.37019769998733,23,0,,,130.37019769998733,130.57027259998722,4.9,130.57027259998722,0,4.9,1,0,1000,num_1,0.040415600000415,,25,6,2026-03-04_17h39.07.886,2026A_exp2,2022.2.4,60.036153781513015,
1,0,4.9,0.0,0,0,37,37,47,,,,,130.63704699999653,131.287904399971,131.287904399971,131.77213779999875,315,315,131.77213779999875,131.77213779999875,131.77213779999875,131.77213779999875,131.77213779999875,131.77213779999875,131.77213779999875,131.77213779999875,131.77213779999875,132.13857469998766,132.13857469998766,132.13857469998766,132.13857469998766,132.13857469998766,132.13857469998766,132.13857469998766,132.13857469998766,132.13857469998766,23,0,,,132.13857469998766,132.33874809998088,4.9,132.33874809998088,1,4.9,1,1,1000,num_4,0.5190349000040442,,25,6,2026-03-04_17h39.07.886,2026A_exp2,2022.2.4,60.036153781513015,
0,0,0.0,6.1,0,0,38,38,12,,,,,132.8892896999605,133.52352290001,133.52352290001,134.02431389997946,45,45,134.02431389997946,134.02431389997946,134.02431389997946,134.02431389997946,134.02431389997946,134.02431389997946,134.02431389997946,134.02431389997946,134.02431389997946,134.39086929999758,134.39086929999758,134.39086929999758,134.39086929999758,134.39086929999758,134.39086929999758,134.39086929999758,134.39086929999758,134.39086929999758,17,1,[0.0012444999883882701],[0.1002598000341095],134.39086929999758,134.5909829000011,6.1,134.5909829000011,1,6.1,1,1,1000,num_4,0.5951405999949202,,25,6,2026-03-04_17h39.07.886,2026A_exp2,2022.2.4,60.036153781513015,
1,0,4.9,6.1,1,0,39,39,62,,,,,135.20816769998055,135.85885099996813,135.85885099996813,136.34337729995605,45,315,136.34337729995605,136.34337729995605,136.34337729995605,136.34337729995605,136.34337729995605,136.34337729995605,136.34337729995605,136.34337729995605,136.34337729995605,136.7098590999958,136.7098590999958,136.7098590999958,136.7098590999958,136.7098590999958,136.7098590999958,136.7098590999958,136.7098590999958,136.7098590999958,23,0,,,136.7098590999958,136.91009680001298,6.1,136.91009680001298,1,6.1,1,1,1000,num_4,0.4680268000229262,,25,6,2026-03-04_17h39.07.886,2026A_exp2,2022.2.4,60.036153781513015,
1,0,4.9,3.7,0,0,40,40,89,,,,,137.41062719997717,138.04455479996977,138.04455479996977,138.54568239999935,315,45,138.54568239999935,138.54568239999935,138.54568239999935,138.54568239999935,138.54568239999935,138.54568239999935,138.54568239999935,138.54568239999935,138.54568239999935,138.9120133999968,138.9120133999968,138.9120133999968,138.9120133999968,138.9120133999968,138.9120133999968,138.9120133999968,138.9120133999968,138.9120133999968,23,0,,,138.9120133999968,139.1121691999724,4.9,139.1121691999724,0,4.9,1,0,1000,num_1,0.33752959995763376,,25,6,2026-03-04_17h39.07.886,2026A_exp2,2022.2.4,60.036153781513015,
1000,1,0.0,4.9,1,0,41,41,51,,,,,139.4794477999676,140.11318039998878,140.11318039998878,140.61426369997207,315,45,140.61426369997207,140.61426369997207,140.61426369997207,140.61426369997207,140.61426369997207,140.61426369997207,140.61426369997207,140.61426369997207,140.61426369997207,140.9806192999822,140.9806192999822,140.9806192999822,140.9806192999822,140.9806192999822,140.9806192999822,140.9806192999822,140.9806192999822,140.9806192999822,23,0,,,140.9806192999822,141.18078329996206,1000,141.18078329996206,1000,1000,1000,1000,0,num_3,0.14914639998460189,,25,6,2026-03-04_17h39.07.886,2026A_exp2,2022.2.4,60.036153781513015,
1,0,0.0,0.0,1,0,42,42,66,,,,,141.34794249996776,141.99834329995792,141.99834329995792,142.4996382999816,45,45,142.4996382999816,142.4996382999816,142.4996382999816,142.4996382999816,142.4996382999816,142.4996382999816,142.4996382999816,142.4996382999816,142.4996382999816,142.86601199995494,142.86601199995494,142.86601199995494,142.86601199995494,142.86601199995494,142.86601199995494,142.86601199995494,142.86601199995494,142.86601199995494,23,0,,,142.86601199995494,143.06616320001194,0.0,143.06616320001194,1,0.0,0,0,1000,num_4,0.3204385999706574,,25,6,2026-03-04_17h39.07.886,2026A_exp2,2022.2.4,60.036153781513015,
1,0,6.1,0.0,1,0,43,43,29,,,,,143.4165982999839,144.06711760000326,144.06711760000326,144.5517061999999,45,315,144.5517061999999,144.5517061999999,144.5517061999999,144.5517061999999,144.5517061999999,144.5517061999999,144.5517061999999,144.5517061999999,144.5517061999999,144.91805819998262,144.91805819998262,144.91805819998262,144.91805819998262,144.91805819998262,144.91805819998262,144.91805819998262,144.91805819998262,144.91805819998262,23,0,,,144.91805819998262,145.11811509996187,0.0,145.11811509996187,1,0.0,0,0,1000,num_4,0.22854599996935576,,25,6,2026-03-04_17h39.07.886,2026A_exp2,2022.2.4,60.036153781513015,
0,0,3.7,0.0,0,0,44,44,16,,,,,145.3685835999786,146.0191410999978,146.0191410999978,146.50350349996006,315,315,146.50350349996006,146.50350349996006,146.50350349996006,146.50350349996006,146.50350349996006,146.50350349996006,146.50350349996006,146.50350349996006,146.50350349996006,146.8699806999648,146.8699806999648,146.8699806999648,146.8699806999648,146.8699806999648,146.8699806999648,146.8699806999648,146.8699806999648,146.8699806999648,0,1,[0.0012298999936319888],[0.3670076000271365],146.8699806999648,147.07031400001142,0.0,147.07031400001142,0,0.0,0,1,1000,num_1,0.1086041999515146,,25,6,2026-03-04_17h39.07.886,2026A_exp2,2022.2.4,60.036153781513015,
1000,1,6.1,0.0,1,0,45,45,71,,,,,147.20360680000158,147.85420939995674,147.85420939995674,148.33874899998773,45,315,148.33874899998773,148.33874899998773,148.33874899998773,148.33874899998773,148.33874899998773,148.33874899998773,148.33874899998773,148.33874899998773,148.33874899998773,148.7050470999675,148.7050470999675,148.7050470999675,148.7050470999675,148.7050470999675,148.7050470999675,148.7050470999675,148.7050470999675,148.7050470999675,23,0,,,148.7050470999675,148.90706519997912,1000,148.90706519997912,1000,1000,1000,1000,0,num_3,0.5905131999752484,,25,6,2026-03-04_17h39.07.886,2026A_exp2,2022.2.4,60.036153781513015,
1,0,4.9,0.0,0,0,46,46,19,,,,,149.52273179998156,150.17327919998206,150.17327919998206,150.67449159995886,45,45,150.67449159995886,150.67449159995886,150.67449159995886,150.67449159995886,150.67449159995886,150.67449159995886,150.67449159995886,150.67449159995886,150.67449159995886,151.04076579998946,151.04076579998946,151.04076579998946,151.04076579998946,151.04076579998946,151.04076579998946,151.04076579998946,151.04076579998946,151.04076579998946,23,0,,,151.04076579998946,151.24104069999885,4.9,151.24104069999885,0,4.9,1,0,1000,num_1,0.23311840003589168,,25,6,2026-03-04_17h39.07.886,2026A_exp2,2022.2.4,60.036153781513015,
1000,1,4.9,6.1,0,0,47,47,49,,,,,151.49133220000658,152.14199139998527,152.14199139998527,152.62624409998534,315,45,152.62624409998534,152.62624409998534,152.62624409998534,152.62624409998534,152.62624409998534,152.62624409998534,152.62624409998534,152.62624409998534,152.62624409998534,152.9928218999994,152.9928218999994,152.9928218999994,152.9928218999994,152.9928218999994,152.9928218999994,152.9928218999994,152.9928218999994,152.9928218999994,23,0,,,152.9928218999994,153.1950586999883,1000,153.1950586999883,1000,1000,1000,1000,1,num_2,0.2876376999774948,,25,6,2026-03-04_17h39.07.886,2026A_exp2,2022.2.4,60.036153781513015,
1,0,3.7,6.1,0,0,48,48,74,,,,,153.510011699982,154.1704633999616,154.1704633999616,154.66502630000468,45,45,154.66502630000468,154.66502630000468,154.66502630000468,154.66502630000468,154.66502630000468,154.66502630000468,154.66502630000468,154.66502630000468,154.66502630000468,155.02813429996604,155.02813429996604,155.02813429996604,155.02813429996604,155.02813429996604,155.02813429996604,155.02813429996604,155.02813429996604,155.02813429996604,23,0,,,155.02813429996604,155.22826989996247,3.7,155.22826989996247,0,3.7,1,0,1000,num_1,0.1902719999779947,,25,6,2026-03-04_17h39.07.886,2026A_exp2,2022.2.4,60.036153781513015,
1,0,3.7,3.7,0,0,49,49,69,,,,,155.4452917999588,156.09588390000863,156.09588390000863,156.5803492999985,315,315,156.5803492999985,156.5803492999985,156.5803492999985,156.5803492999985,156.5803492999985,156.5803492999985,156.5803492999985,156.5803492999985,156.5803492999985,156.94675529998494,156.94675529998494,156.94675529998494,156.94675529998494,156.94675529998494,156.94675529998494,156.94675529998494,156.94675529998494,156.94675529998494,23,0,,,156.94675529998494,157.14681179996114,3.7,157.14681179996114,1,3.7,1,1,1000,num_4,0.2868921000044793,,25,6,2026-03-04_17h39.07.886,2026A_exp2,2022.2.4,60.036153781513015,
0,0,0.0,0.0,0,0,50,50,10,,,,,157.46379599999636,158.11459409998497,158.11459409998497,158.59906440001214,45,315,158.59906440001214,158.59906440001214,158.59906440001214,158.59906440001214,158.59906440001214,158.59906440001214,158.59906440001214,158.59906440001214,158.59906440001214,158.96540809998987,158.96540809998987,158.96540809998987,158.96540809998987,158.96540809998987,158.96540809998987,158.96540809998987,158.96540809998987,158.96540809998987,23,0,,,158.96540809998987,159.16555569996126,0.0,159.16555569996126,0,0.0,0,1,1000,num_1,0.8849147000000812,,25,6,2026-03-04_17h39.07.886,2026A_exp2,2022.2.4,60.036153781513015,
0,0,4.9,6.1,0,0,51,51,1,,,,,160.0663249999634,160.71730749995913,160.71730749995913,161.20157380000455,45,45,161.20157380000455,161.20157380000455,161.20157380000455,161.20157380000455,161.20157380000455,161.20157380000455,161.20157380000455,161.20157380000455,161.20157380000455,161.56806279998273,161.56806279998273,161.56806279998273,161.56806279998273,161.56806279998273,161.56806279998273,161.56806279998273,161.56806279998273,161.56806279998273,23,0,,,161.56806279998273,161.76820649998263,6.1,161.76820649998263,1,6.1,1,1,1000,num_4,0.17871239996748045,,25,6,2026-03-04_17h39.07.886,2026A_exp2,2022.2.4,60.036153781513015,
1,0,6.1,3.7,1,0,52,52,45,,,,,161.96834540000418,162.61904159997357,162.61904159997357,163.10346969997045,45,315,163.10346969997045,163.10346969997045,163.10346969997045,163.10346969997045,163.10346969997045,163.10346969997045,163.10346969997045,163.10346969997045,163.10346969997045,163.46990719996393,163.46990719996393,163.46990719996393,163.46990719996393,163.46990719996393,163.46990719996393,163.46990719996393,163.46990719996393,163.46990719996393,23,0,,,163.46990719996393,163.67012629995588,3.7,163.67012629995588,0,3.7,1,0,1000,num_1,0.2926558000035584,,25,6,2026-03-04_17h39.07.886,2026A_exp2,2022.2.4,60.036153781513015,
1,0,6.1,3.7,0,0,53,53,79,,,,,163.98713829996996,164.63763869996183,164.63763869996183,165.12198900000658,45,315,165.12198900000658,165.12198900000658,165.12198900000658,165.12198900000658,165.12198900000658,165.12198900000658,165.12198900000658,165.12198900000658,165.12198900000658,165.4884837999707,165.4884837999707,165.4884837999707,165.4884837999707,165.4884837999707,165.4884837999707,165.4884837999707,165.4884837999707,165.4884837999707,23,0,,,165.4884837999707,165.68871379998745,6.1,165.68871379998745,1,6.1,1,1,1000,num_4,0.28134039998985827,,25,6,2026-03-04_17h39.07.886,2026A_exp2,2022.2.4,60.036153781513015,
1,0,0.0,4.9,0,0,54,54,9,,,,,165.9891673999955,166.63982199999737,166.63982199999737,167.12423849996412,315,45,167.12423849996412,167.12423849996412,167.12423849996412,167.12423849996412,167.12423849996412,167.12423849996412,167.12423849996412,167.12423849996412,167.12423849996412,167.4906702999724,167.4906702999724,167.4906702999724,167.4906702999724,167.4906702999724,167.4906702999724,167.4906702999724,167.4906702999724,167.4906702999724,23,0,,,167.4906702999724,167.6906628999859,0.0,167.6906628999859,0,0.0,0,1,1000,num_1,0.5275122000020929,,25,6,2026-03-04_17h39.07.886,2026A_exp2,2022.2.4,60.036153781513015,
0,0,0.0,0.0,0,0,55,55,20,,,,,168.24142019997817,168.89189719996648,168.89189719996648,169.37652039999375,315,315,169.37652039999375,169.37652039999375,169.37652039999375,169.37652039999375,169.37652039999375,169.37652039999375,169.37652039999375,169.37652039999375,169.37652039999375,169.7429143000045,169.7429143000045,169.7429143000045,169.7429143000045,169.7429143000045,169.7429143000045,169.7429143000045,169.7429143000045,169.7429143000045,23,0,,,169.7429143000045,169.94301439996343,0.0,169.94301439996343,1,0.0,0,0,1000,num_4,0.6594738999847323,,25,6,2026-03-04_17h39.07.886,2026A_exp2,2022.2.4,60.036153781513015,
1,0,3.7,4.9,0,0,56,56,70,,,,,170.62708030000795,171.27737279998837,171.27737279998837,171.76226559997303,45,45,171.76226559997303,171.76226559997303,171.76226559997303,171.76226559997303,171.76226559997303,171.76226559997303,171.76226559997303,171.76226559997303,171.76226559997303,172.12854599999264,172.12854599999264,172.12854599999264,172.12854599999264,172.12854599999264,172.12854599999264,172.12854599999264,172.12854599999264,172.12854599999264,23,0,,,172.12854599999264,172.32869950000895,3.7,172.32869950000895,1,3.7,1,1,1000,num_4,0.4579884000122547,,25,6,2026-03-04_17h39.07.886,2026A_exp2,2022.2.4,60.036153781513015,
1000,1,0.0,0.0,1,0,57,57,37,,,,,172.81263469997793,173.46323349996237,173.46323349996237,173.9477595000062,45,45,173.9477595000062,173.9477595000062,173.9477595000062,173.9477595000062,173.9477595000062,173.9477595000062,173.9477595000062,173.9477595000062,173.9477595000062,174.3140996999573,174.3140996999573,174.3140996999573,174.3140996999573,174.3140996999573,174.3140996999573,174.3140996999573,174.3140996999573,174.3140996999573,23,0,,,174.3140996999573,174.51611979998415,1000,174.51611979998415,1000,1000,1000,1000,1,num_2,0.566142299969215,,25,6,2026-03-04_17h39.07.886,2026A_exp2,2022.2.4,60.036153781513015,
1000,1,4.9,6.1,0,0,58,58,59,,,,,175.09848419995978,175.74892360001104,175.74892360001104,176.2333550999756,45,315,176.2333550999756,176.2333550999756,176.2333550999756,176.2333550999756,176.2333550999756,176.2333550999756,176.2333550999756,176.2333550999756,176.2333550999756,176.59968300000764,176.59968300000764,176.59968300000764,176.59968300000764,176.59968300000764,176.59968300000764,176.59968300000764,176.59968300000764,176.59968300000764,23,0,,,176.59968300000764,176.80126029998064,1000,176.80126029998064,1000,1000,1000,1000,1,num_2,0.160667399992235,,25,6,2026-03-04_17h39.07.886,2026A_exp2,2022.2.4,60.036153781513015,
1000,1,3.7,0.0,0,0,59,59,28,,,,,176.98351519997232,177.63403409998864,177.63403409998864,178.11872789997142,315,315,178.11872789997142,178.11872789997142,178.11872789997142,178.11872789997142,178.11872789997142,178.11872789997142,178.11872789997142,178.11872789997142,178.11872789997142,178.48494439997012,178.48494439997012,178.48494439997012,178.48494439997012,178.48494439997012,178.48494439997012,178.48494439997012,178.48494439997012,178.48494439997012,23,0,,,178.48494439997012,178.7030149999773,1000,178.7030149999773,1000,1000,1000,1000,1,num_2,0.2834595000022091,,25,6,2026-03-04_17h39.07.886,2026A_exp2,2022.2.4,60.036153781513015,
1000,1,0.0,6.1,1,0,60,60,40,,,,,179.00218680000398,179.652813099965,179.652813099965,180.1538986999658,315,45,180.1538986999658,180.1538986999658,180.1538986999658,180.1538986999658,180.1538986999658,180.1538986999658,180.1538986999658,180.1538986999658,180.1538986999658,180.52033480000682,180.52033480000682,180.52033480000682,180.52033480000682,180.52033480000682,180.52033480000682,180.52033480000682,180.52033480000682,180.52033480000682,23,0,,,180.52033480000682,180.7225502000074,1000,180.7225502000074,1000,1000,1000,1000,0,num_3,0.04681930004153401,,25,6,2026-03-04_17h39.07.886,2026A_exp2,2022.2.4,60.036153781513015,
1000,1,4.9,3.7,1,0,61,61,46,,,,,180.78720179997617,181.43755629996303,181.43755629996303,181.9388706999598,315,315,181.9388706999598,181.9388706999598,181.9388706999598,181.9388706999598,181.9388706999598,181.9388706999598,181.9388706999598,181.9388706999598,181.9388706999598,182.30547369999113,182.30547369999113,182.30547369999113,182.30547369999113,182.30547369999113,182.30547369999113,182.30547369999113,182.30547369999113,182.30547369999113,23,0,,,182.30547369999113,182.5056150999735,1000,182.5056150999735,1000,1000,1000,1000,1,num_2,0.2879702000063844,,25,6,2026-03-04_17h39.07.886,2026A_exp2,2022.2.4,60.036153781513015,
1,0,3.7,3.7,1,0,62,62,11,,,,,182.8224998000078,183.47330309997778,183.47330309997778,183.97439940000186,315,315,183.97439940000186,183.97439940000186,183.97439940000186,183.97439940000186,183.97439940000186,183.97439940000186,183.97439940000186,183.97439940000186,183.97439940000186,184.34077529999195,184.34077529999195,184.34077529999195,184.34077529999195,184.34077529999195,184.34077529999195,184.34077529999195,184.34077529999195,184.34077529999195,23,0,,,184.34077529999195,184.54101290000835,3.7,184.54101290000835,1,3.7,1,1,1000,num_4,0.4857713999808766,,25,6,2026-03-04_17h39.07.886,2026A_exp2,2022.2.4,60.036153781513015,
1,0,0.0,0.0,0,0,63,63,75,,,,,185.0582058999571,185.70882329996675,185.70882329996675,186.19317859999137,45,45,186.19317859999137,186.19317859999137,186.19317859999137,186.19317859999137,186.19317859999137,186.19317859999137,186.19317859999137,186.19317859999137,186.19317859999137,186.55969520000508,186.55969520000508,186.55969520000508,186.55969520000508,186.55969520000508,186.55969520000508,186.55969520000508,186.55969520000508,186.55969520000508,0,1,[0.0011953999637626112],[0.36720539996167645],186.55969520000508,186.75987359997816,0.0,186.75987359997816,0,0.0,0,1,1000,num_1,0.5377080999896862,,25,6,2026-03-04_17h39.07.886,2026A_exp2,2022.2.4,60.036153781513015,
1000,1,4.9,6.1,1,0,64,64,4,,,,,187.32721469999524,187.9778061999823,187.9778061999823,188.46203599998262,315,45,188.46203599998262,188.46203599998262,188.46203599998262,188.46203599998262,188.46203599998262,188.46203599998262,188.46203599998262,188.46203599998262,188.46203599998262,188.8286333999713,188.8286333999713,188.8286333999713,188.8286333999713,188.8286333999713,188.8286333999713,188.8286333999713,188.8286333999713,188.8286333999713,23,0,,,188.8286333999713,189.03088509995723,1000,189.03088509995723,1000,1000,1000,1000,0,num_3,0.2666947999969125,,25,6,2026-03-04_17h39.07.886,2026A_exp2,2022.2.4,60.036153781513015,
1,0,3.7,0.0,1,0,65,65,55,,,,,189.3291501000058,189.9798627999844,189.9798627999844,190.48093399999198,45,315,190.48093399999198,190.48093399999198,190.48093399999198,190.48093399999198,190.48093399999198,190.48093399999198,190.48093399999198,190.48093399999198,190.48093399999198,190.84714639995946,190.84714639995946,190.84714639995946,190.84714639995946,190.84714639995946,190.84714639995946,190.84714639995946,190.84714639995946,190.84714639995946,21,1,[0.35026079998351634],[0.36699029995361343],190.84714639995946,191.04737190000014,0.0,191.04737190000014,1,0.0,0,0,1000,num_4,0.35508870001649484,,25,6,2026-03-04_17h39.07.886,2026A_exp2,2022.2.4,60.036153781513015,
1,0,0.0,6.1,1,0,66,66,17,,,,,191.43127050000476,192.0818824999733,192.0818824999733,192.56640919996426,45,45,192.56640919996426,192.56640919996426,192.56640919996426,192.56640919996426,192.56640919996426,192.56640919996426,192.56640919996426,192.56640919996426,192.56640919996426,192.93255229998613,192.93255229998613,192.93255229998613,192.93255229998613,192.93255229998613,192.93255229998613,192.93255229998613,192.93255229998613,192.93255229998613,23,0,,,192.93255229998613,193.13295459997607,6.1,193.13295459997607,1,6.1,1,1,1000,num_4,0.5490231000003405,,25,6,2026-03-04_17h39.07.886,2026A_exp2,2022.2.4,60.036153781513015,
1000,1,6.1,3.7,0,0,67,67,43,,,,,193.70032010000432,194.35082679998595,194.35082679998595,194.83522619999712,45,315,194.83522619999712,194.83522619999712,194.83522619999712,194.83522619999712,194.83522619999712,194.83522619999712,194.83522619999712,194.83522619999712,194.83522619999712,195.20182069996372,195.20182069996372,195.20182069996372,195.20182069996372,195.20182069996372,195.20182069996372,195.20182069996372,195.20182069996372,195.20182069996372,21,1,[0.0012398000108078122],[0.03330670000286773],195.20182069996372,195.4038281000103,1000,195.4038281000103,1000,1000,1000,1000,1,num_2,0.12596719997236505,,25,6,2026-03-04_17h39.07.886,2026A_exp2,2022.2.4,60.036153781513015,
1000,1,3.7,3.7,0,0,68,68,76,,,,,195.5520991999656,196.20274139998946,196.20274139998946,196.70367249997798,45,45,196.70367249997798,196.70367249997798,196.70367249997798,196.70367249997798,196.70367249997798,196.70367249997798,196.70367249997798,196.70367249997798,196.70367249997798,197.07028049998917,197.07028049998917,197.07028049998917,197.07028049998917,197.07028049998917,197.07028049998917,197.07028049998917,197.07028049998917,197.07028049998917,8,1,[0.0012066999915987253],[0.2503697000211105],197.07028049998917,197.27104019996477,1000,197.27104019996477,1000,1000,1000,1000,1,num_2,0.2829127999721095,,25,6,2026-03-04_17h39.07.886,2026A_exp2,2022.2.4,60.036153781513015,
1,0,0.0,0.0,0,0,69,69,64,,,,,197.5708263000124,198.22141779999947,198.22141779999947,198.72234479995677,45,45,198.72234479995677,198.72234479995677,198.72234479995677,198.72234479995677,198.72234479995677,198.72234479995677,198.72234479995677,198.72234479995677,198.72234479995677,199.08887649996905,199.08887649996905,199.08887649996905,199.08887649996905,199.08887649996905,199.08887649996905,199.08887649996905,199.08887649996905,199.08887649996905,23,0,,,199.08887649996905,199.289251899987,0.0,199.289251899987,1,0.0,0,0,1000,num_4,0.6404023999930359,,25,6,2026-03-04_17h39.07.886,2026A_exp2,2022.2.4,60.036153781513015,
1,0,4.9,0.0,0,0,70,70,14,,,,,199.95650119998027,200.60707119997824,200.60707119997824,201.0914589999593,315,45,201.0914589999593,201.0914589999593,201.0914589999593,201.0914589999593,201.0914589999593,201.0914589999593,201.0914589999593,201.0914589999593,201.0914589999593,201.45788050000556,201.45788050000556,201.45788050000556,201.45788050000556,201.45788050000556,201.45788050000556,201.45788050000556,201.45788050000556,201.45788050000556,21,1,[0.01752620004117489],[0.05031780002173036],201.45788050000556,201.65802669996629,4.9,201.65802669996629,1,4.9,1,1,1000,num_4,0.07267149997642264,,25,6,2026-03-04_17h39.07.886,2026A_exp2,2022.2.4,60.036153781513015,
0,0,0.0,6.1,1,0,71,71,84,,,,,201.75851660000626,202.39225999999326,202.39225999999326,202.89327529998263,45,45,202.89327529998263,202.89327529998263,202.89327529998263,202.89327529998263,202.89327529998263,202.89327529998263,202.89327529998263,202.89327529998263,202.89327529998263,203.25975649995962,203.25975649995962,203.25975649995962,203.25975649995962,203.25975649995962,203.25975649995962,203.25975649995962,203.25975649995962,203.25975649995962,23,0,,,203.25975649995962,203.45987809996586,0.0,203.45987809996586,0,0.0,0,1,1000,num_1,0.5898062000051141,,25,6,2026-03-04_17h39.07.886,2026A_exp2,2022.2.4,60.036153781513015,
1,0,4.9,0.0,0,0,72,72,57,,,,,204.0772359999828,204.7278586999746,204.7278586999746,205.21216649998678,315,45,205.21216649998678,205.21216649998678,205.21216649998678,205.21216649998678,205.21216649998678,205.21216649998678,205.21216649998678,205.21216649998678,205.21216649998678,205.5786545999581,205.5786545999581,205.5786545999581,205.5786545999581,205.5786545999581,205.5786545999581,205.5786545999581,205.5786545999581,205.5786545999581,15,2,"[0.06688100000610575, 0.3337353999959305]","[0.1496558000217192, 0.36698739998973906]",205.5786545999581,205.7788021999877,4.9,205.7788021999877,0,4.9,1,0,1000,num_1,0.31895350001286715,,25,6,2026-03-04_17h39.07.886,2026A_exp2,2022.2.4,60.036153781513015,
1000,1,0.0,0.0,1,0,73,73,78,,,,,206.12924459995702,206.77993429999333,206.77993429999333,207.26433569996152,45,45,207.26433569996152,207.26433569996152,207.26433569996152,207.26433569996152,207.26433569996152,207.26433569996152,207.26433569996152,207.26433569996152,207.26433569996152,207.6307938999962,207.6307938999962,207.6307938999962,207.6307938999962,207.6307938999962,207.6307938999962,207.6307938999962,207.6307938999962,207.6307938999962,4,3,"[0.001379600027576089, 0.11696910002501681, 0.2170332000241615]","[0.10017089999746531, 0.1835671000299044, 0.3670605000224896]",207.6307938999962,207.83082339999964,1000,207.83082339999964,1000,1000,1000,1000,1,num_2,0.49086060002446175,,25,6,2026-03-04_17h39.07.886,2026A_exp2,2022.2.4,60.036153781513015,
1000,1,0.0,3.7,1,0,74,74,86,,,,,208.34826559998328,208.99885350000113,208.99885350000113,209.49991499999305,45,315,209.49991499999305,209.49991499999305,209.49991499999305,209.49991499999305,209.49991499999305,209.49991499999305,209.49991499999305,209.49991499999305,209.49991499999305,209.86625379999168,209.86625379999168,209.86625379999168,209.86625379999168,209.86625379999168,209.86625379999168,209.86625379999168,209.86625379999168,209.86625379999168,23,0,,,209.86625379999168,210.06825929996558,1000,210.06825929996558,1000,1000,1000,1000,1,num_2,0.6779476000228897,,25,6,2026-03-04_17h39.07.886,2026A_exp2,2022.2.4,60.036153781513015,
1000,1,0.0,6.1,0,0,75,75,5,,,,,210.76728540001204,211.41791769996053,211.41791769996053,211.91899269999703,45,45,211.91899269999703,211.91899269999703,211.91899269999703,211.91899269999703,211.91899269999703,211.91899269999703,211.91899269999703,211.91899269999703,211.91899269999703,212.26871609996306,212.26871609996306,212.26871609996306,212.26871609996306,212.26871609996306,212.26871609996306,212.26871609996306,212.26871609996306,212.26871609996306,0,1,[0.0012369999894872308],[0.35021730000153184],212.26871609996306,212.47073760000058,1000,212.4856799999834,1000,1000,1000,1000,0,num_3,0.14834209997206926,,25,6,2026-03-04_17h39.07.886,2026A_exp2,2022.2.4,60.036153781513015,
1000,1,0.0,3.7,1,0,76,76,81,,,,,212.65252699999837,213.30305029999,213.30305029999,213.8040970999864,315,315,213.8040970999864,213.8040970999864,213.8040970999864,213.8040970999864,213.8040970999864,213.8040970999864,213.8040970999864,213.8040970999864,213.8040970999864,214.17058299999917,214.17058299999917,214.17058299999917,214.17058299999917,214.17058299999917,214.17058299999917,214.17058299999917,214.17058299999917,214.17058299999917,23,0,,,214.17058299999917,214.3732502000057,1000,214.3732502000057,1000,1000,1000,1000,1,num_2,0.29328739998163655,,25,6,2026-03-04_17h39.07.886,2026A_exp2,2022.2.4,60.036153781513015,
1,0,6.1,0.0,0,0,77,77,22,,,,,214.68779769999674,215.3383870999678,215.3383870999678,215.8394964999752,315,315,215.8394964999752,215.8394964999752,215.8394964999752,215.8394964999752,215.8394964999752,215.8394964999752,215.8394964999752,215.8394964999752,215.8394964999752,216.18934849998914,216.18934849998914,216.18934849998914,216.18934849998914,216.18934849998914,216.18934849998914,216.18934849998914,216.18934849998914,216.18934849998914,18,1,[0.08350050001172349],[0.1496616000076756],216.18934849998914,216.38951000000816,6.1,216.38951000000816,0,6.1,1,0,1000,num_1,0.2681542999926023,,25,6,2026-03-04_17h39.07.886,2026A_exp2,2022.2.4,60.036153781513015,
1000,1,0.0,0.0,1,0,78,78,80,,,,,216.6898916999926,217.34038279997185,217.34038279997185,217.8247534999973,315,315,217.8247534999973,217.8247534999973,217.8247534999973,217.8247534999973,217.8247534999973,217.8247534999973,217.8247534999973,217.8247534999973,217.8247534999973,218.19137529999716,218.19137529999716,218.19137529999716,218.19137529999716,218.19137529999716,218.19137529999716,218.19137529999716,218.19137529999716,218.19137529999716,21,1,[0.05013639997923747],[0.08356719999574125],218.19137529999716,218.3933631000109,1000,218.3933631000109,1000,1000,1000,1000,1,num_2,0.312616299954243,,25,6,2026-03-04_17h39.07.886,2026A_exp2,2022.2.4,60.036153781513015,
1000,1,0.0,0.0,0,0,79,79,33,,,,,218.72516470000846,219.37589689996094,219.37589689996094,219.87698379997164,315,315,219.87698379997164,219.87698379997164,219.87698379997164,219.87698379997164,219.87698379997164,219.87698379997164,219.87698379997164,219.87698379997164,219.87698379997164,220.24336329998914,220.24336329998914,220.24336329998914,220.24336329998914,220.24336329998914,220.24336329998914,220.24336329998914,220.24336329998914,220.24336329998914,0,1,[0.001211599970702082],[0.3671238999813795],220.24336329998914,220.44545850000577,1000,220.44545850000577,1000,1000,1000,1000,0,num_3,0.08540970005560666,,25,6,2026-03-04_17h39.07.886,2026A_exp2,2022.2.4,60.036153781513015,
1000,1,0.0,3.7,1,0,80,80,7,,,,,220.56047279998893,221.21107389999088,221.21107389999088,221.71221649996005,315,315,221.71221649996005,221.71221649996005,221.71221649996005,221.71221649996005,221.71221649996005,221.71221649996005,221.71221649996005,221.71221649996005,221.71221649996005,,,,,,,,,,22,0,,,222.07858699996723,222.27875389996916,1000,222.27875389996916,1000,1000,1000,1000,1,num_2,0.2351253999513574,,25,6,2026-03-04_17h39.07.886,2026A_exp2,2022.2.4,60.036153781513015,
1,0,0.0,0.0,1,0,81,81,42,,,,,222.52901940001175,223.1796641999972,223.1796641999972,223.6807211000123,315,45,223.6807211000123,223.6807211000123,223.6807211000123,223.6807211000123,223.6807211000123,223.6807211000123,223.6807211000123,223.6807211000123,223.6807211000123,224.0470992999617,224.0470992999617,224.0470992999617,224.0470992999617,224.0470992999617,224.0470992999617,224.0470992999617,224.0470992999617,224.0470992999617,0,1,[0.0013077000039629638],[0.36735429998952895],224.0470992999617,224.2471071999753,0.0,224.2471071999753,1,0.0,0,0,1000,num_4,0.49134000000776723,,25,6,2026-03-04_17h39.07.886,2026A_exp2,2022.2.4,60.036153781513015,
1,0,0.0,0.0,0,0,82,82,31,,,,,224.7645354999695,225.4152488000109,225.4152488000109,225.89939669996966,45,45,225.89939669996966,225.89939669996966,225.89939669996966,225.89939669996966,225.89939669996966,225.89939669996966,225.89939669996966,225.89939669996966,225.89939669996966,226.2659250999568,226.2659250999568,226.2659250999568,226.2659250999568,226.2659250999568,226.2659250999568,226.2659250999568,226.2659250999568,226.2659250999568,0,1,[0.001286200014874339],[0.3669384000240825],226.2659250999568,226.46632199996384,0.0,226.46632199996384,0,0.0,0,1,1000,num_1,0.27116469998145476,,25,6,2026-03-04_17h39.07.886,2026A_exp2,2022.2.4,60.036153781513015,
1,0,0.0,4.9,1,0,83,83,2,,,,,226.76645489997463,227.41709539998556,227.41709539998556,227.9016879000119,315,315,227.9016879000119,227.9016879000119,227.9016879000119,227.9016879000119,227.9016879000119,227.9016879000119,227.9016879000119,227.9016879000119,227.9016879000119,228.26810649997788,228.26810649997788,228.26810649997788,228.26810649997788,228.26810649997788,228.26810649997788,228.26810649997788,228.26810649997788,228.26810649997788,23,0,,,228.26810649997788,228.46828759997152,4.9,228.46828759997152,1,4.9,1,1,1000,num_4,0.26138399995397776,,25,6,2026-03-04_17h39.07.886,2026A_exp2,2022.2.4,60.036153781513015,
1,0,6.1,0.0,0,0,84,84,58,,,,,228.7518213999574,229.40256399998907,229.40256399998907,229.88683159998618,45,45,229.88683159998618,229.88683159998618,229.88683159998618,229.88683159998618,229.88683159998618,229.88683159998618,229.88683159998618,229.88683159998618,229.88683159998618,230.25339209998492,230.25339209998492,230.25339209998492,230.25339209998492,230.25339209998492,230.25339209998492,230.25339209998492,230.25339209998492,230.25339209998492,7,1,[0.11690630001248792],[0.36711469996953383],230.25339209998492,230.45347539999057,6.1,230.45347539999057,0,6.1,1,0,1000,num_1,0.6767643999774009,,25,6,2026-03-04_17h39.07.886,2026A_exp2,2022.2.4,60.036153781513015,
1000,1,3.7,3.7,1,0,85,85,25,,,,,231.1539775999845,231.78820449998602,231.78820449998602,232.28922410000814,45,315,232.28922410000814,232.28922410000814,232.28922410000814,232.28922410000814,232.28922410000814,232.28922410000814,232.28922410000814,232.28922410000814,232.28922410000814,232.65574570000172,232.65574570000172,232.65574570000172,232.65574570000172,232.65574570000172,232.65574570000172,232.65574570000172,232.65574570000172,232.65574570000172,3,1,[0.00119859998812899],[0.3334376999991946],232.65574570000172,232.8859502999694,1000,232.8859502999694,1000,1000,1000,1000,1,num_2,0.1972544000018388,,25,6,2026-03-04_17h39.07.886,2026A_exp2,2022.2.4,60.036153781513015,
0,0,3.7,0.0,1,0,86,86,0,,,,,233.10633049998432,233.75688900001114,233.75688900001114,234.2578760999604,315,45,234.2578760999604,234.2578760999604,234.2578760999604,234.2578760999604,234.2578760999604,234.2578760999604,234.2578760999604,234.2578760999604,234.2578760999604,234.6240933999652,234.6240933999652,234.6240933999652,234.6240933999652,234.6240933999652,234.6240933999652,234.6240933999652,234.6240933999652,234.6240933999652,23,0,,,234.6240933999652,234.82450119999703,3.7,234.82450119999703,1,3.7,1,1,1000,num_4,0.4178605999913998,,25,6,2026-03-04_17h39.07.886,2026A_exp2,2022.2.4,60.036153781513015,
1000,1,0.0,6.1,0,0,87,87,85,,,,,235.25817739998456,235.90895770001225,235.90895770001225,236.39349519996904,45,315,236.39349519996904,236.39349519996904,236.39349519996904,236.39349519996904,236.39349519996904,236.39349519996904,236.39349519996904,236.39349519996904,236.39349519996904,236.75979679997545,236.75979679997545,236.75979679997545,236.75979679997545,236.75979679997545,236.75979679997545,236.75979679997545,236.75979679997545,236.75979679997545,2,3,"[0.0012829999905079603, 0.03369770001154393, 0.08378059999085963]","[0.017549899988807738, 0.06701639998937026, 0.36733639996964484]",236.75979679997545,236.96115389995975,1000,236.96115389995975,1000,1000,1000,1000,0,num_3,0.09691039996687323,,25,6,2026-03-04_17h39.07.886,2026A_exp2,2022.2.4,60.036153781513015,
1000,1,0.0,0.0,1,0,88,88,72,,,,,237.07691870001145,237.72755750000942,237.72755750000942,238.22866889997385,315,315,238.22866889997385,238.22866889997385,238.22866889997385,238.22866889997385,238.22866889997385,238.22866889997385,238.22866889997385,238.22866889997385,238.22866889997385,238.57822319999104,238.57822319999104,238.57822319999104,238.57822319999104,238.57822319999104,238.57822319999104,238.57822319999104,238.57822319999104,238.57822319999104,22,0,,,238.57822319999104,238.77995239995653,1000,238.79510629997822,1000,1000,1000,1000,1,num_2,0.24641090002842247,,25,6,2026-03-04_17h39.07.886,2026A_exp2,2022.2.4,60.036153781513015,
1000,1,4.9,6.1,0,0,89,89,35,,,,,239.06226340000285,239.7128134999657,239.7128134999657,240.21399219997693,45,315,240.21399219997693,240.21399219997693,240.21399219997693,240.21399219997693,240.21399219997693,240.21399219997693,240.21399219997693,240.21399219997693,240.21399219997693,240.58023869997123,240.58023869997123,240.58023869997123,240.58023869997123,240.58023869997123,240.58023869997123,240.58023869997123,240.58023869997123,240.58023869997123,23,0,,,240.58023869997123,240.78235980001045,1000,240.78235980001045,1000,1000,1000,1000,0,num_3,0.10782479995395988,,25,6,2026-03-04_17h39.07.886,2026A_exp2,2022.2.4,60.036153781513015,
,,,,,,,,,,,,,,,,,,,,,,,,,,,,,,,,,,,,,,,,,,,,,,,,,,,,240.91514920000918,,,,,,,
