validity,detectorcomp,contrastCW,contrastCCW,precueCWorCCW,block_80trials.thisRepN,block_80trials.thisTrialN,block_80trials.thisN,block_80trials.thisIndex,etRecord.started,etRecord.stopped,text.started,text.stopped,text_4.started,text_4.stopped,text_6.started,text_6.stopped,oriCW,oriCCW,roi_2.started,grating_UR.started,grating_UL.started,grating_LR.started,grating_LL.started,noise_UR.started,noise_UL.started,noise_LR.started,noise_LL.started,roi_2.stopped,grating_UR.stopped,grating_UL.stopped,grating_LR.stopped,grating_LL.stopped,noise_UR.stopped,noise_UL.stopped,noise_LR.stopped,noise_LL.stopped,outframe,roi_2.numLooks,roi_2.timesOn,roi_2.timesOff,text_2.started,text_2.stopped,probedcontrast,key_resp.started,respdetect,relevantContrast,correctDetect,TorFdetect,respCWorCCW,key_resp.keys,key_resp.rt,feedback_display_.started,participantNo,blockNo,date,expName,psychopyVersion,frameRate,
0,0,0.0,0.0,1,0,0,0,2,3.470000228844583e-05,3.470000228844583e-05,44.68997770000715,46.69255649999832,46.69255649999832,47.32674320001388,47.32674320001388,47.84882370001287,315,45,47.84882370001287,47.84882370001287,47.84882370001287,47.84882370001287,47.84882370001287,47.84882370001287,47.84882370001287,47.84882370001287,47.84882370001287,48.19335509999655,48.19335509999655,48.19335509999655,48.19335509999655,48.19335509999655,48.19335509999655,48.19335509999655,48.19335509999655,48.19335509999655,23,0,,,48.19335509999655,48.3934860000154,0.0,48.3934860000154,1,0.0,0,0,1000,num_4,1.0219074000196997,,18,4,2026-03-02_10h34.49.132,2026A_exp2,2022.2.4,59.90933321171065,
0,0,3.7,0.0,0,0,1,1,62,,,,,49.44470680001541,50.079054100002395,50.079054100002395,50.580165999999736,45,315,50.580165999999736,50.580165999999736,50.580165999999736,50.580165999999736,50.580165999999736,50.580165999999736,50.580165999999736,50.580165999999736,50.580165999999736,50.946255099988775,50.946255099988775,50.946255099988775,50.946255099988775,50.946255099988775,50.946255099988775,50.946255099988775,50.946255099988775,50.946255099988775,23,0,,,50.946255099988775,51.1467920000141,0.0,51.1467920000141,0,0.0,0,1,1000,num_1,1.042727800027933,,18,4,2026-03-02_10h34.49.132,2026A_exp2,2022.2.4,59.90933321171065,
1,0,4.9,0.0,1,0,2,2,65,,,,,52.214299499988556,52.848453599988716,52.848453599988716,53.34953529998893,315,315,53.34953529998893,53.34953529998893,53.34953529998893,53.34953529998893,53.34953529998893,53.34953529998893,53.34953529998893,53.34953529998893,53.34953529998893,53.715649199992185,53.715649199992185,53.715649199992185,53.715649199992185,53.715649199992185,53.715649199992185,53.715649199992185,53.715649199992185,53.715649199992185,23,0,,,53.715649199992185,53.91606250000768,0.0,53.91606250000768,0,0.0,0,1,1000,num_1,0.6336838999995962,,18,4,2026-03-02_10h34.49.132,2026A_exp2,2022.2.4,59.90933321171065,
1,0,6.1,0.0,1,0,3,3,70,,,,,54.566703099990264,55.217319099989254,55.217319099989254,55.70200620000833,315,45,55.70200620000833,55.70200620000833,55.70200620000833,55.70200620000833,55.70200620000833,55.70200620000833,55.70200620000833,55.70200620000833,55.70200620000833,56.067880299990065,56.067880299990065,56.067880299990065,56.067880299990065,56.067880299990065,56.067880299990065,56.067880299990065,56.067880299990065,56.067880299990065,23,0,,,56.067880299990065,56.26859150000382,0.0,56.26859150000382,0,0.0,0,1,1000,num_1,0.5457610000157729,,18,4,2026-03-02_10h34.49.132,2026A_exp2,2022.2.4,59.90933321171065,
1000,1,0.0,0.0,0,0,4,4,5,,,,,56.83554699999513,57.46944950000034,57.46944950000034,57.970926500012865,45,315,57.970926500012865,57.970926500012865,57.970926500012865,57.970926500012865,57.970926500012865,57.970926500012865,57.970926500012865,57.970926500012865,57.970926500012865,58.337764099997,58.337764099997,58.337764099997,58.337764099997,58.337764099997,58.337764099997,58.337764099997,58.337764099997,58.337764099997,23,0,,,58.337764099997,58.537250499997754,1000,58.537250499997754,1000,1000,1000,1000,1,num_2,0.7492092000029515,,18,4,2026-03-02_10h34.49.132,2026A_exp2,2022.2.4,59.90933321171065,
1,0,6.1,3.7,1,0,5,5,51,,,,,59.30476739999722,59.95555380001315,59.95555380001315,60.440153800009284,315,45,60.440153800009284,60.440153800009284,60.440153800009284,60.440153800009284,60.440153800009284,60.440153800009284,60.440153800009284,60.440153800009284,60.440153800009284,60.806239300000016,60.806239300000016,60.806239300000016,60.806239300000016,60.806239300000016,60.806239300000016,60.806239300000016,60.806239300000016,60.806239300000016,23,0,,,60.806239300000016,61.006519599992316,3.7,61.006519599992316,1,3.7,1,1,1000,num_4,0.8397847999876831,,18,4,2026-03-02_10h34.49.132,2026A_exp2,2022.2.4,59.90933321171065,
1000,1,3.7,4.9,0,0,6,6,45,,,,,61.87403129998711,62.50830859999405,62.50830859999405,63.00949860000401,315,315,63.00949860000401,63.00949860000401,63.00949860000401,63.00949860000401,63.00949860000401,63.00949860000401,63.00949860000401,63.00949860000401,63.00949860000401,63.37559440001496,63.37559440001496,63.37559440001496,63.37559440001496,63.37559440001496,63.37559440001496,63.37559440001496,63.37559440001496,63.37559440001496,23,0,,,63.37559440001496,63.57570260000648,1000,63.57570260000648,1000,1000,1000,1000,0,num_3,0.822675800009165,,18,4,2026-03-02_10h34.49.132,2026A_exp2,2022.2.4,59.90933321171065,
1000,1,0.0,0.0,1,0,7,7,1,,,,,64.42661220001173,65.06115970000974,65.06115970000974,65.57862340001157,315,45,65.57862340001157,65.57862340001157,65.57862340001157,65.57862340001157,65.57862340001157,65.57862340001157,65.57862340001157,65.57862340001157,65.57862340001157,65.92827420000685,65.92827420000685,65.92827420000685,65.92827420000685,65.92827420000685,65.92827420000685,65.92827420000685,65.92827420000685,65.92827420000685,22,0,,,65.92827420000685,66.12877280000248,1000,66.14527400000952,1000,1000,1000,1000,0,num_3,0.7727296999946702,,18,4,2026-03-02_10h34.49.132,2026A_exp2,2022.2.4,59.90933321171065,
1000,1,3.7,0.0,1,0,8,8,38,,,,,66.94577910000226,67.59662669998943,67.59662669998943,68.0973379999923,315,315,68.0973379999923,68.0973379999923,68.0973379999923,68.0973379999923,68.0973379999923,68.0973379999923,68.0973379999923,68.0973379999923,68.0973379999923,68.44710630000918,68.44710630000918,68.44710630000918,68.44710630000918,68.44710630000918,68.44710630000918,68.44710630000918,68.44710630000918,68.44710630000918,22,0,,,68.44710630000918,68.64742870000191,1000,68.64742870000191,1000,1000,1000,1000,0,num_3,1.0061035000253469,,18,4,2026-03-02_10h34.49.132,2026A_exp2,2022.2.4,59.90933321171065,
1000,1,0.0,6.1,1,0,9,9,43,,,,,69.68183839999256,70.33246370000415,70.33246370000415,70.81697049998911,315,45,70.81697049998911,70.81697049998911,70.81697049998911,70.81697049998911,70.81697049998911,70.81697049998911,70.81697049998911,70.81697049998911,70.81697049998911,71.18349460000172,71.18349460000172,71.18349460000172,71.18349460000172,71.18349460000172,71.18349460000172,71.18349460000172,71.18349460000172,71.18349460000172,23,0,,,71.18349460000172,71.38356509999721,1000,71.38356509999721,1000,1000,1000,1000,1,num_2,0.5819025999808218,,18,4,2026-03-02_10h34.49.132,2026A_exp2,2022.2.4,59.90933321171065,
1,0,0.0,0.0,1,0,10,10,39,,,,,71.98446690000128,72.63470170000801,72.63470170000801,73.13575700001093,45,45,73.13575700001093,73.13575700001093,73.13575700001093,73.13575700001093,73.13575700001093,73.13575700001093,73.13575700001093,73.13575700001093,73.13575700001093,73.50225119999959,73.50225119999959,73.50225119999959,73.50225119999959,73.50225119999959,73.50225119999959,73.50225119999959,73.50225119999959,73.50225119999959,23,0,,,73.50225119999959,73.70227720000548,0.0,73.70227720000548,0,0.0,0,1,1000,num_1,0.8073158000188414,,18,4,2026-03-02_10h34.49.132,2026A_exp2,2022.2.4,59.90933321171065,
1000,1,0.0,4.9,0,0,11,11,61,,,,,74.53663970000343,75.1872410000069,75.1872410000069,75.67161200000555,45,315,75.67161200000555,75.67161200000555,75.67161200000555,75.67161200000555,75.67161200000555,75.67161200000555,75.67161200000555,75.67161200000555,75.67161200000555,76.03781410001102,76.03781410001102,76.03781410001102,76.03781410001102,76.03781410001102,76.03781410001102,76.03781410001102,76.03781410001102,76.03781410001102,23,0,,,76.03781410001102,76.23818250000477,1000,76.23818250000477,1000,1000,1000,1000,1,num_2,0.7919831000035629,,18,4,2026-03-02_10h34.49.132,2026A_exp2,2022.2.4,59.90933321171065,
1000,1,6.1,0.0,1,0,12,12,57,,,,,77.05575090000639,77.68984880001517,77.68984880001517,78.19126580000739,315,45,78.19126580000739,78.19126580000739,78.19126580000739,78.19126580000739,78.19126580000739,78.19126580000739,78.19126580000739,78.19126580000739,78.19126580000739,78.55765150001389,78.55765150001389,78.55765150001389,78.55765150001389,78.55765150001389,78.55765150001389,78.55765150001389,78.55765150001389,78.55765150001389,23,0,,,78.55765150001389,78.75741769999149,1000,78.75741769999149,1000,1000,1000,1000,0,num_3,0.688998099998571,,18,4,2026-03-02_10h34.49.132,2026A_exp2,2022.2.4,59.90933321171065,
1000,1,0.0,0.0,0,0,13,13,86,,,,,79.47504700001446,80.12564089999069,80.12564089999069,80.60988420000649,315,45,80.60988420000649,80.60988420000649,80.60988420000649,80.60988420000649,80.60988420000649,80.60988420000649,80.60988420000649,80.60988420000649,80.60988420000649,80.97659310000017,80.97659310000017,80.97659310000017,80.97659310000017,80.97659310000017,80.97659310000017,80.97659310000017,80.97659310000017,80.97659310000017,23,0,,,80.97659310000017,81.17664349998813,1000,81.17664349998813,1000,1000,1000,1000,1,num_2,0.49289130000397563,,18,4,2026-03-02_10h34.49.132,2026A_exp2,2022.2.4,59.90933321171065,
1000,1,0.0,0.0,1,0,14,14,78,,,,,81.69356049998896,82.3276227999886,82.3276227999886,82.82895870000357,315,45,82.82895870000357,82.82895870000357,82.82895870000357,82.82895870000357,82.82895870000357,82.82895870000357,82.82895870000357,82.82895870000357,82.82895870000357,83.1949733000074,83.1949733000074,83.1949733000074,83.1949733000074,83.1949733000074,83.1949733000074,83.1949733000074,83.1949733000074,83.1949733000074,23,0,,,83.1949733000074,83.39550660000532,1000,83.39550660000532,1000,1000,1000,1000,0,num_3,0.6983937000040896,,18,4,2026-03-02_10h34.49.132,2026A_exp2,2022.2.4,59.90933321171065,
1000,1,6.1,6.1,1,0,15,15,4,,,,,84.1129273000115,84.74722550000297,84.74722550000297,85.24779480000143,315,45,85.24779480000143,85.24779480000143,85.24779480000143,85.24779480000143,85.24779480000143,85.24779480000143,85.24779480000143,85.24779480000143,85.24779480000143,85.61446149999392,85.61446149999392,85.61446149999392,85.61446149999392,85.61446149999392,85.61446149999392,85.61446149999392,85.61446149999392,85.61446149999392,23,0,,,85.61446149999392,85.81472009999561,1000,85.81472009999561,1000,1000,1000,1000,1,num_2,1.311309800017625,,18,4,2026-03-02_10h34.49.132,2026A_exp2,2022.2.4,59.90933321171065,
1000,1,4.9,4.9,1,0,16,16,68,,,,,87.14906729999348,87.79989130000467,87.79989130000467,88.30102829998941,45,45,88.30102829998941,88.30102829998941,88.30102829998941,88.30102829998941,88.30102829998941,88.30102829998941,88.30102829998941,88.30102829998941,88.30102829998941,88.65049190001446,88.65049190001446,88.65049190001446,88.65049190001446,88.65049190001446,88.65049190001446,88.65049190001446,88.65049190001446,88.65049190001446,22,0,,,88.65049190001446,88.85145929999999,1000,88.85145929999999,1000,1000,1000,1000,1,num_2,0.41094830000656657,,18,4,2026-03-02_10h34.49.132,2026A_exp2,2022.2.4,59.90933321171065,
1000,1,3.7,6.1,1,0,17,17,58,,,,,89.28486780001549,89.93550530000357,89.93550530000357,90.41965950001031,315,45,90.41965950001031,90.41965950001031,90.41965950001031,90.41965950001031,90.41965950001031,90.41965950001031,90.41965950001031,90.41965950001031,90.41965950001031,90.78608359998907,90.78608359998907,90.78608359998907,90.78608359998907,90.78608359998907,90.78608359998907,90.78608359998907,90.78608359998907,90.78608359998907,23,0,,,90.78608359998907,90.98764370000572,1000,90.98764370000572,1000,1000,1000,1000,1,num_2,0.4657656000053976,,18,4,2026-03-02_10h34.49.132,2026A_exp2,2022.2.4,59.90933321171065,
0,0,6.1,0.0,0,0,18,18,74,,,,,91.47024349999265,92.12051820001216,92.12051820001216,92.60535689999233,45,315,92.60535689999233,92.60535689999233,92.60535689999233,92.60535689999233,92.60535689999233,92.60535689999233,92.60535689999233,92.60535689999233,92.60535689999233,92.97229249999509,92.97229249999509,92.97229249999509,92.97229249999509,92.97229249999509,92.97229249999509,92.97229249999509,92.97229249999509,92.97229249999509,23,0,,,92.97229249999509,93.17193730000872,0.0,93.17193730000872,0,0.0,0,1,1000,num_1,0.946101900015492,,18,4,2026-03-02_10h34.49.132,2026A_exp2,2022.2.4,59.90933321171065,
1,0,0.0,6.1,1,0,19,19,50,,,,,94.13972549999016,94.79008539998904,94.79008539998904,95.27523400000064,45,315,95.27523400000064,95.27523400000064,95.27523400000064,95.27523400000064,95.27523400000064,95.27523400000064,95.27523400000064,95.27523400000064,95.27523400000064,95.64306729999953,95.64306729999953,95.64306729999953,95.64306729999953,95.64306729999953,95.64306729999953,95.64306729999953,95.64306729999953,95.64306729999953,23,0,,,95.64306729999953,95.85796980001032,6.1,95.85796980001032,1,6.1,1,1,1000,num_4,0.6439975000103004,,18,4,2026-03-02_10h34.49.132,2026A_exp2,2022.2.4,59.90933321171065,
1000,1,3.7,0.0,0,0,20,20,76,,,,,96.52619350000168,97.17620950000128,97.17620950000128,97.67692580001312,315,45,97.67692580001312,97.67692580001312,97.67692580001312,97.67692580001312,97.67692580001312,97.67692580001312,97.67692580001312,97.67692580001312,97.67692580001312,98.02665799998795,98.02665799998795,98.02665799998795,98.02665799998795,98.02665799998795,98.02665799998795,98.02665799998795,98.02665799998795,98.02665799998795,22,0,,,98.02665799998795,98.22703450001427,1000,98.22703450001427,1000,1000,1000,1000,0,num_3,0.6196595000219531,,18,4,2026-03-02_10h34.49.132,2026A_exp2,2022.2.4,59.90933321171065,
1000,1,4.9,0.0,1,0,21,21,77,,,,,98.87765209999634,99.52813190000597,99.52813190000597,100.01261440000962,45,315,100.01261440000962,100.01261440000962,100.01261440000962,100.01261440000962,100.01261440000962,100.01261440000962,100.01261440000962,100.01261440000962,100.01261440000962,100.37903050001478,100.37903050001478,100.37903050001478,100.37903050001478,100.37903050001478,100.37903050001478,100.37903050001478,100.37903050001478,100.37903050001478,23,0,,,100.37903050001478,100.57924389999243,1000,100.57924389999243,1000,1000,1000,1000,0,num_3,0.7871504999930039,,18,4,2026-03-02_10h34.49.132,2026A_exp2,2022.2.4,59.90933321171065,
1,0,4.9,0.0,0,0,22,22,53,,,,,101.39663979999023,102.04734419999295,102.04734419999295,102.53183349999017,45,45,102.53183349999017,102.53183349999017,102.53183349999017,102.53183349999017,102.53183349999017,102.53183349999017,102.53183349999017,102.53183349999017,102.53183349999017,102.89836069999728,102.89836069999728,102.89836069999728,102.89836069999728,102.89836069999728,102.89836069999728,102.89836069999728,102.89836069999728,102.89836069999728,23,0,,,102.89836069999728,103.09841129998676,4.9,103.09841129998676,1,4.9,1,1,1000,num_4,0.771832300000824,,18,4,2026-03-02_10h34.49.132,2026A_exp2,2022.2.4,59.90933321171065,
1000,1,6.1,0.0,0,0,23,23,81,,,,,103.89927409999655,104.54985370000941,104.54985370000941,105.03430190001382,45,315,105.03430190001382,105.03430190001382,105.03430190001382,105.03430190001382,105.03430190001382,105.03430190001382,105.03430190001382,105.03430190001382,105.03430190001382,105.40075699999579,105.40075699999579,105.40075699999579,105.40075699999579,105.40075699999579,105.40075699999579,105.40075699999579,105.40075699999579,105.40075699999579,23,0,,,105.40075699999579,105.6009989999875,1000,105.6009989999875,1000,1000,1000,1000,0,num_3,0.7325541999889538,,18,4,2026-03-02_10h34.49.132,2026A_exp2,2022.2.4,59.90933321171065,
1,0,3.7,3.7,1,0,24,24,30,,,,,106.3517378999968,107.00240749999648,107.00240749999648,107.4868259000068,315,45,107.4868259000068,107.4868259000068,107.4868259000068,107.4868259000068,107.4868259000068,107.4868259000068,107.4868259000068,107.4868259000068,107.4868259000068,107.85321259999182,107.85321259999182,107.85321259999182,107.85321259999182,107.85321259999182,107.85321259999182,107.85321259999182,107.85321259999182,107.85321259999182,23,0,,,107.85321259999182,108.05392519998713,3.7,108.05392519998713,1,3.7,1,1,1000,num_4,0.5195118000265211,,18,4,2026-03-02_10h34.49.132,2026A_exp2,2022.2.4,59.90933321171065,
0,0,6.1,4.9,0,0,25,25,22,,,,,108.60399780000444,109.25464410000131,109.25464410000131,109.73904789998778,45,315,109.73904789998778,109.73904789998778,109.73904789998778,109.73904789998778,109.73904789998778,109.73904789998778,109.73904789998778,109.73904789998778,109.73904789998778,110.10561060000327,110.10561060000327,110.10561060000327,110.10561060000327,110.10561060000327,110.10561060000327,110.10561060000327,110.10561060000327,110.10561060000327,23,0,,,110.10561060000327,110.30572649999522,4.9,110.30572649999522,0,4.9,1,0,1000,num_1,0.8523158000025433,,18,4,2026-03-02_10h34.49.132,2026A_exp2,2022.2.4,59.90933321171065,
1,0,0.0,3.7,1,0,26,26,35,,,,,111.18995249998989,111.82408489999943,111.82408489999943,112.32505919999676,45,45,112.32505919999676,112.32505919999676,112.32505919999676,112.32505919999676,112.32505919999676,112.32505919999676,112.32505919999676,112.32505919999676,112.32505919999676,112.69133160001365,112.69133160001365,112.69133160001365,112.69133160001365,112.69133160001365,112.69133160001365,112.69133160001365,112.69133160001365,112.69133160001365,23,0,,,112.69133160001365,112.89171719999285,3.7,112.89171719999285,1,3.7,1,1,1000,num_4,1.0344918000046164,,18,4,2026-03-02_10h34.49.132,2026A_exp2,2022.2.4,59.90933321171065,
1000,1,0.0,4.9,1,0,27,27,66,,,,,113.94239760001074,114.57666439999593,114.57666439999593,115.07832520001102,45,45,115.07832520001102,115.07832520001102,115.07832520001102,115.07832520001102,115.07832520001102,115.07832520001102,115.07832520001102,115.07832520001102,115.07832520001102,115.44399800000247,115.44399800000247,115.44399800000247,115.44399800000247,115.44399800000247,115.44399800000247,115.44399800000247,115.44399800000247,115.44399800000247,23,0,,,115.44399800000247,115.64445290001458,1000,115.64445290001458,1000,1000,1000,1000,1,num_2,0.7215636000037193,,18,4,2026-03-02_10h34.49.132,2026A_exp2,2022.2.4,59.90933321171065,
1,0,3.7,6.1,0,0,28,28,52,,,,,116.39520060000359,117.04587229999015,117.04587229999015,117.53018259999226,315,45,117.53018259999226,117.53018259999226,117.53018259999226,117.53018259999226,117.53018259999226,117.53018259999226,117.53018259999226,117.53018259999226,117.53018259999226,117.89659039999242,117.89659039999242,117.89659039999242,117.89659039999242,117.89659039999242,117.89659039999242,117.89659039999242,117.89659039999242,117.89659039999242,23,0,,,117.89659039999242,118.09735520000686,3.7,118.09735520000686,1,3.7,1,1,1000,num_4,0.6202221999992616,,18,4,2026-03-02_10h34.49.132,2026A_exp2,2022.2.4,59.90933321171065,
1,0,0.0,0.0,0,0,29,29,88,,,,,118.74742530001095,119.39808260000427,119.39808260000427,119.88241829999606,315,315,119.88241829999606,119.88241829999606,119.88241829999606,119.88241829999606,119.88241829999606,119.88241829999606,119.88241829999606,119.88241829999606,119.88241829999606,120.24881029999233,120.24881029999233,120.24881029999233,120.24881029999233,120.24881029999233,120.24881029999233,120.24881029999233,120.24881029999233,120.24881029999233,23,0,,,120.24881029999233,120.44929099999717,0.0,120.44929099999717,0,0.0,0,1,1000,num_1,0.5248880000144709,,18,4,2026-03-02_10h34.49.132,2026A_exp2,2022.2.4,59.90933321171065,
1,0,0.0,3.7,1,0,30,30,14,,,,,120.99971830000868,121.63367830001516,121.63367830001516,122.13475970001309,315,315,122.13475970001309,122.13475970001309,122.13475970001309,122.13475970001309,122.13475970001309,122.13475970001309,122.13475970001309,122.13475970001309,122.13475970001309,122.50120130000869,122.50120130000869,122.50120130000869,122.50120130000869,122.50120130000869,122.50120130000869,122.50120130000869,122.50120130000869,122.50120130000869,23,0,,,122.50120130000869,122.70140439999523,3.7,122.70140439999523,1,3.7,1,1,1000,num_4,0.46426410001004115,,18,4,2026-03-02_10h34.49.132,2026A_exp2,2022.2.4,59.90933321171065,
1,0,6.1,0.0,0,0,31,31,21,,,,,123.18518969998695,123.83584770001471,123.83584770001471,124.32041230000323,315,315,124.32041230000323,124.32041230000323,124.32041230000323,124.32041230000323,124.32041230000323,124.32041230000323,124.32041230000323,124.32041230000323,124.32041230000323,124.68728509999346,124.68728509999346,124.68728509999346,124.68728509999346,124.68728509999346,124.68728509999346,124.68728509999346,124.68728509999346,124.68728509999346,23,0,,,124.68728509999346,124.88701619999483,6.1,124.88701619999483,0,6.1,1,0,1000,num_1,0.49467210000148043,,18,4,2026-03-02_10h34.49.132,2026A_exp2,2022.2.4,59.90933321171065,
1000,1,6.1,0.0,1,0,32,32,29,,,,,125.40476149998722,126.05480610000086,126.05480610000086,126.5563373999903,315,315,126.5563373999903,126.5563373999903,126.5563373999903,126.5563373999903,126.5563373999903,126.5563373999903,126.5563373999903,126.5563373999903,126.5563373999903,126.92223580001155,126.92223580001155,126.92223580001155,126.92223580001155,126.92223580001155,126.92223580001155,126.92223580001155,126.92223580001155,126.92223580001155,23,0,,,126.92223580001155,127.12265589999151,1000,127.12265589999151,1000,1000,1000,1000,0,num_3,0.8433656999841332,,18,4,2026-03-02_10h34.49.132,2026A_exp2,2022.2.4,59.90933321171065,
1,0,0.0,4.9,0,0,33,33,3,,,,,127.99058539999533,128.64094939999632,128.64094939999632,129.14187160000438,45,45,129.14187160000438,129.14187160000438,129.14187160000438,129.14187160000438,129.14187160000438,129.14187160000438,129.14187160000438,129.14187160000438,129.14187160000438,129.50848379998934,129.50848379998934,129.50848379998934,129.50848379998934,129.50848379998934,129.50848379998934,129.50848379998934,129.50848379998934,129.50848379998934,23,0,,,129.50848379998934,129.70880469999975,0.0,129.70880469999975,0,0.0,0,1,1000,num_1,0.6254993000184186,,18,4,2026-03-02_10h34.49.132,2026A_exp2,2022.2.4,59.90933321171065,
1000,1,0.0,3.7,1,0,34,34,84,,,,,130.35914529999718,131.0097725999949,131.0097725999949,131.49434110001312,45,45,131.49434110001312,131.49434110001312,131.49434110001312,131.49434110001312,131.49434110001312,131.49434110001312,131.49434110001312,131.49434110001312,131.49434110001312,131.86047539999709,131.86047539999709,131.86047539999709,131.86047539999709,131.86047539999709,131.86047539999709,131.86047539999709,131.86047539999709,131.86047539999709,23,0,,,131.86047539999709,132.06120649998775,1000,132.06120649998775,1000,1000,1000,1000,1,num_2,0.6563210999884177,,18,4,2026-03-02_10h34.49.132,2026A_exp2,2022.2.4,59.90933321171065,
1,0,3.7,4.9,1,0,35,35,20,,,,,132.74490429999423,133.3953756999981,133.3953756999981,133.8799457999994,45,315,133.8799457999994,133.8799457999994,133.8799457999994,133.8799457999994,133.8799457999994,133.8799457999994,133.8799457999994,133.8799457999994,133.8799457999994,134.24614150001435,134.24614150001435,134.24614150001435,134.24614150001435,134.24614150001435,134.24614150001435,134.24614150001435,134.24614150001435,134.24614150001435,23,0,,,134.24614150001435,134.44653519999702,4.9,134.44653519999702,1,4.9,1,1,1000,num_4,1.1429700999869965,,18,4,2026-03-02_10h34.49.132,2026A_exp2,2022.2.4,59.90933321171065,
1,0,4.9,3.7,0,0,36,36,44,,,,,135.61462259999826,136.2482319000119,136.2482319000119,136.7492779000022,45,45,136.7492779000022,136.7492779000022,136.7492779000022,136.7492779000022,136.7492779000022,136.7492779000022,136.7492779000022,136.7492779000022,136.7492779000022,137.11616179998964,137.11616179998964,137.11616179998964,137.11616179998964,137.11616179998964,137.11616179998964,137.11616179998964,137.11616179998964,137.11616179998964,23,0,,,137.11616179998964,137.3167095000099,4.9,137.3167095000099,1,4.9,1,1,1000,num_4,0.5372724999906495,,18,4,2026-03-02_10h34.49.132,2026A_exp2,2022.2.4,59.90933321171065,
1000,1,0.0,6.1,1,0,37,37,71,,,,,137.88320849998854,138.53482679999433,138.53482679999433,139.01832900001318,315,45,139.01832900001318,139.01832900001318,139.01832900001318,139.01832900001318,139.01832900001318,139.01832900001318,139.01832900001318,139.01832900001318,139.01832900001318,139.38481389998924,139.38481389998924,139.38481389998924,139.38481389998924,139.38481389998924,139.38481389998924,139.38481389998924,139.38481389998924,139.38481389998924,23,0,,,139.38481389998924,139.58536170001025,1000,139.58536170001025,1000,1000,1000,1000,1,num_2,0.5241882000118494,,18,4,2026-03-02_10h34.49.132,2026A_exp2,2022.2.4,59.90933321171065,
1,0,0.0,4.9,0,0,38,38,73,,,,,140.13548920000903,140.7862068999966,140.7862068999966,141.2872314999986,315,45,141.2872314999986,141.2872314999986,141.2872314999986,141.2872314999986,141.2872314999986,141.2872314999986,141.2872314999986,141.2872314999986,141.2872314999986,141.6373495000007,141.6373495000007,141.6373495000007,141.6373495000007,141.6373495000007,141.6373495000007,141.6373495000007,141.6373495000007,141.6373495000007,22,0,,,141.6373495000007,141.83742900000652,0.0,141.83742900000652,0,0.0,0,1,1000,num_1,0.6649617000075523,,18,4,2026-03-02_10h34.49.132,2026A_exp2,2022.2.4,59.90933321171065,
1,0,6.1,0.0,0,0,39,39,47,,,,,142.52119970001513,143.15530630000285,143.15530630000285,143.65674579999177,315,315,143.65674579999177,143.65674579999177,143.65674579999177,143.65674579999177,143.65674579999177,143.65674579999177,143.65674579999177,143.65674579999177,143.65674579999177,144.02288219999173,144.02288219999173,144.02288219999173,144.02288219999173,144.02288219999173,144.02288219999173,144.02288219999173,144.02288219999173,144.02288219999173,23,0,,,144.02288219999173,144.22358729998814,6.1,144.22358729998814,1,6.1,1,1,1000,num_4,0.4466538999986369,,18,4,2026-03-02_10h34.49.132,2026A_exp2,2022.2.4,59.90933321171065,
1000,1,0.0,4.9,0,0,40,40,26,,,,,144.69033049998689,145.34098470001481,145.34098470001481,145.82536139999866,45,315,145.82536139999866,145.82536139999866,145.82536139999866,145.82536139999866,145.82536139999866,145.82536139999866,145.82536139999866,145.82536139999866,145.82536139999866,146.19153929999447,146.19153929999447,146.19153929999447,146.19153929999447,146.19153929999447,146.19153929999447,146.19153929999447,146.19153929999447,146.19153929999447,23,0,,,146.19153929999447,146.39204040000914,1000,146.39204040000914,1000,1000,1000,1000,1,num_2,0.7817314000276383,,18,4,2026-03-02_10h34.49.132,2026A_exp2,2022.2.4,59.90933321171065,
1000,1,6.1,3.7,0,0,41,41,75,,,,,147.19264560000738,147.8432227000012,147.8432227000012,148.32759450000594,45,315,148.32759450000594,148.32759450000594,148.32759450000594,148.32759450000594,148.32759450000594,148.32759450000594,148.32759450000594,148.32759450000594,148.32759450000594,148.69420890000765,148.69420890000765,148.69420890000765,148.69420890000765,148.69420890000765,148.69420890000765,148.69420890000765,148.69420890000765,148.69420890000765,23,0,,,148.69420890000765,148.89425859999028,1000,148.89425859999028,1000,1000,1000,1000,0,num_3,0.7036921000108123,,18,4,2026-03-02_10h34.49.132,2026A_exp2,2022.2.4,59.90933321171065,
1,0,6.1,4.9,1,0,42,42,11,,,,,149.62846300000092,150.278925599996,150.278925599996,150.7634570999944,315,315,150.7634570999944,150.7634570999944,150.7634570999944,150.7634570999944,150.7634570999944,150.7634570999944,150.7634570999944,150.7634570999944,150.7634570999944,151.12976000001072,151.12976000001072,151.12976000001072,151.12976000001072,151.12976000001072,151.12976000001072,151.12976000001072,151.12976000001072,151.12976000001072,23,0,,,151.12976000001072,151.33001649999642,4.9,151.33001649999642,1,4.9,1,1,1000,num_4,0.587608600006206,,18,4,2026-03-02_10h34.49.132,2026A_exp2,2022.2.4,59.90933321171065,
1,0,0.0,0.0,1,0,43,43,69,,,,,151.94728120000218,152.58140190000995,152.58140190000995,153.08226060000015,315,45,153.08226060000015,153.08226060000015,153.08226060000015,153.08226060000015,153.08226060000015,153.08226060000015,153.08226060000015,153.08226060000015,153.08226060000015,153.44906099999207,153.44906099999207,153.44906099999207,153.44906099999207,153.44906099999207,153.44906099999207,153.44906099999207,153.44906099999207,153.44906099999207,23,0,,,153.44906099999207,153.64947750000283,0.0,153.64947750000283,0,0.0,0,1,1000,num_1,0.6043643000011798,,18,4,2026-03-02_10h34.49.132,2026A_exp2,2022.2.4,59.90933321171065,
1000,1,0.0,4.9,0,0,44,44,60,,,,,154.28327310000896,154.93400450001354,154.93400450001354,155.41840039999806,315,45,155.41840039999806,155.41840039999806,155.41840039999806,155.41840039999806,155.41840039999806,155.41840039999806,155.41840039999806,155.41840039999806,155.41840039999806,155.78494650000357,155.78494650000357,155.78494650000357,155.78494650000357,155.78494650000357,155.78494650000357,155.78494650000357,155.78494650000357,155.78494650000357,23,0,,,155.78494650000357,155.98521799998707,1000,155.98521799998707,1000,1000,1000,1000,0,num_3,0.6285633000079542,,18,4,2026-03-02_10h34.49.132,2026A_exp2,2022.2.4,59.90933321171065,
1,0,0.0,3.7,1,0,45,45,32,,,,,156.63543759999448,157.28585670000757,157.28585670000757,157.7871579999919,315,45,157.7871579999919,157.7871579999919,157.7871579999919,157.7871579999919,157.7871579999919,157.7871579999919,157.7871579999919,157.7871579999919,157.7871579999919,158.15359279999393,158.15359279999393,158.15359279999393,158.15359279999393,158.15359279999393,158.15359279999393,158.15359279999393,158.15359279999393,158.15359279999393,23,0,,,158.15359279999393,158.3541067999904,3.7,158.3541067999904,1,3.7,1,1,1000,num_4,1.8280516999948304,,18,4,2026-03-02_10h34.49.132,2026A_exp2,2022.2.4,59.90933321171065,
1,0,0.0,0.0,1,0,46,46,42,,,,,160.2056806999899,160.83967700001085,160.83967700001085,161.34095660000457,45,45,161.34095660000457,161.34095660000457,161.34095660000457,161.34095660000457,161.34095660000457,161.34095660000457,161.34095660000457,161.34095660000457,161.34095660000457,161.70741410000483,161.70741410000483,161.70741410000483,161.70741410000483,161.70741410000483,161.70741410000483,161.70741410000483,161.70741410000483,161.70741410000483,23,0,,,161.70741410000483,161.9074510000064,0.0,161.9074510000064,0,0.0,0,1,1000,num_1,0.4185928000079002,,18,4,2026-03-02_10h34.49.132,2026A_exp2,2022.2.4,59.90933321171065,
1000,1,0.0,0.0,1,0,47,47,85,,,,,162.35754880000604,162.9921694000077,162.9921694000077,163.49292240000796,45,45,163.49292240000796,163.49292240000796,163.49292240000796,163.49292240000796,163.49292240000796,163.49292240000796,163.49292240000796,163.49292240000796,163.49292240000796,163.85936219998985,163.85936219998985,163.85936219998985,163.85936219998985,163.85936219998985,163.85936219998985,163.85936219998985,163.85936219998985,163.85936219998985,23,0,,,163.85936219998985,164.05948600001284,1000,164.05948600001284,1000,1000,1000,1000,0,num_3,0.9621120000083465,,18,4,2026-03-02_10h34.49.132,2026A_exp2,2022.2.4,59.90933321171065,
1,0,6.1,0.0,1,0,48,48,89,,,,,165.04398519999813,165.6943379000004,165.6943379000004,166.19523579999804,45,315,166.19523579999804,166.19523579999804,166.19523579999804,166.19523579999804,166.19523579999804,166.19523579999804,166.19523579999804,166.19523579999804,166.19523579999804,166.54514110001037,166.54514110001037,166.54514110001037,166.54514110001037,166.54514110001037,166.54514110001037,166.54514110001037,166.54514110001037,166.54514110001037,22,0,,,166.54514110001037,166.74523950001458,0.0,166.76179620000767,0,0.0,0,1,1000,num_1,0.5963920000067446,,18,4,2026-03-02_10h34.49.132,2026A_exp2,2022.2.4,59.90933321171065,
1000,1,0.0,4.9,0,0,49,49,6,,,,,167.3793422000017,168.01350609998917,168.01350609998917,168.51507399999537,45,45,168.51507399999537,168.51507399999537,168.51507399999537,168.51507399999537,168.51507399999537,168.51507399999537,168.51507399999537,168.51507399999537,168.51507399999537,168.88099979999242,168.88099979999242,168.88099979999242,168.88099979999242,168.88099979999242,168.88099979999242,168.88099979999242,168.88099979999242,168.88099979999242,23,0,,,168.88099979999242,169.08141179999802,1000,169.08141179999802,1000,1000,1000,1000,1,num_2,0.7959619000030216,,18,4,2026-03-02_10h34.49.132,2026A_exp2,2022.2.4,59.90933321171065,
1000,1,6.1,0.0,1,0,50,50,25,,,,,169.89882160001434,170.54947410000023,170.54947410000023,171.0338616000081,45,45,171.0338616000081,171.0338616000081,171.0338616000081,171.0338616000081,171.0338616000081,171.0338616000081,171.0338616000081,171.0338616000081,171.0338616000081,171.40062279999256,171.40062279999256,171.40062279999256,171.40062279999256,171.40062279999256,171.40062279999256,171.40062279999256,171.40062279999256,171.40062279999256,23,0,,,171.40062279999256,171.6004954999953,1000,171.6004954999953,1000,1000,1000,1000,0,num_3,0.9096421000140253,,18,4,2026-03-02_10h34.49.132,2026A_exp2,2022.2.4,59.90933321171065,
1,0,0.0,0.0,0,0,51,51,55,,,,,172.5347094000026,173.18525859998772,173.18525859998772,173.68638970001484,45,45,173.68638970001484,173.68638970001484,173.68638970001484,173.68638970001484,173.68638970001484,173.68638970001484,173.68638970001484,173.68638970001484,173.68638970001484,174.03613019999466,174.03613019999466,174.03613019999466,174.03613019999466,174.03613019999466,174.03613019999466,174.03613019999466,174.03613019999466,174.03613019999466,22,0,,,174.03613019999466,174.23633909999626,0.0,174.23633909999626,0,0.0,0,1,1000,num_1,0.7453259000030812,,18,4,2026-03-02_10h34.49.132,2026A_exp2,2022.2.4,59.90933321171065,
0,0,4.9,0.0,1,0,52,52,67,,,,,175.00412570001208,175.63778930000262,175.63778930000262,176.13905440000235,45,45,176.13905440000235,176.13905440000235,176.13905440000235,176.13905440000235,176.13905440000235,176.13905440000235,176.13905440000235,176.13905440000235,176.13905440000235,176.50533240000368,176.50533240000368,176.50533240000368,176.50533240000368,176.50533240000368,176.50533240000368,176.50533240000368,176.50533240000368,176.50533240000368,23,0,,,176.50533240000368,176.70555620000232,4.9,176.70555620000232,0,4.9,1,0,1000,num_1,0.6284620000224095,,18,4,2026-03-02_10h34.49.132,2026A_exp2,2022.2.4,59.90933321171065,
1,0,0.0,4.9,1,0,53,53,37,,,,,177.3562598999997,178.0068151000014,178.0068151000014,178.4913028999872,45,315,178.4913028999872,178.4913028999872,178.4913028999872,178.4913028999872,178.4913028999872,178.4913028999872,178.4913028999872,178.4913028999872,178.4913028999872,178.85772979998728,178.85772979998728,178.85772979998728,178.85772979998728,178.85772979998728,178.85772979998728,178.85772979998728,178.85772979998728,178.85772979998728,23,0,,,178.85772979998728,179.05761620000703,4.9,179.05761620000703,1,4.9,1,1,1000,num_4,1.5886364000034519,,18,4,2026-03-02_10h34.49.132,2026A_exp2,2022.2.4,59.90933321171065,
1,0,6.1,4.9,1,0,54,54,64,,,,,180.67623959999764,181.3099096000078,181.3099096000078,181.81101510001463,45,315,181.81101510001463,181.81101510001463,181.81101510001463,181.81101510001463,181.81101510001463,181.81101510001463,181.81101510001463,181.81101510001463,181.81101510001463,182.17749420000473,182.17749420000473,182.17749420000473,182.17749420000473,182.17749420000473,182.17749420000473,182.17749420000473,182.17749420000473,182.17749420000473,23,0,,,182.17749420000473,182.3775231000036,4.9,182.3775231000036,1,4.9,1,1,1000,num_4,0.5961820000084117,,18,4,2026-03-02_10h34.49.132,2026A_exp2,2022.2.4,59.90933321171065,
1000,1,4.9,0.0,0,0,55,55,54,,,,,182.99524349998683,183.62915379999322,183.62915379999322,184.1303426999948,45,315,184.1303426999948,184.1303426999948,184.1303426999948,184.1303426999948,184.1303426999948,184.1303426999948,184.1303426999948,184.1303426999948,184.1303426999948,184.49668330000713,184.49668330000713,184.49668330000713,184.49668330000713,184.49668330000713,184.49668330000713,184.49668330000713,184.49668330000713,184.49668330000713,23,0,,,184.49668330000713,184.69774780000444,1000,184.69774780000444,1000,1000,1000,1000,0,num_3,0.5722599000146147,,18,4,2026-03-02_10h34.49.132,2026A_exp2,2022.2.4,59.90933321171065,
1000,1,0.0,0.0,0,0,56,56,17,,,,,185.29769070001203,185.9483287000039,185.9483287000039,186.43250560000888,315,45,186.43250560000888,186.43250560000888,186.43250560000888,186.43250560000888,186.43250560000888,186.43250560000888,186.43250560000888,186.43250560000888,186.43250560000888,186.81625780000468,186.81625780000468,186.81625780000468,186.81625780000468,186.81625780000468,186.81625780000468,186.81625780000468,186.81625780000468,186.81625780000468,24,0,,,186.81625780000468,187.0158250000095,1000,187.0158250000095,1000,1000,1000,1000,1,num_2,0.7899061999924015,,18,4,2026-03-02_10h34.49.132,2026A_exp2,2022.2.4,59.90933321171065,
1,0,0.0,0.0,0,0,57,57,79,,,,,187.83324090001406,188.4839648999914,188.4839648999914,188.96820730000036,45,315,188.96820730000036,188.96820730000036,188.96820730000036,188.96820730000036,188.96820730000036,188.96820730000036,188.96820730000036,188.96820730000036,188.96820730000036,189.33483470001374,189.33483470001374,189.33483470001374,189.33483470001374,189.33483470001374,189.33483470001374,189.33483470001374,189.33483470001374,189.33483470001374,23,0,,,189.33483470001374,189.53484100001515,0.0,189.53484100001515,0,0.0,0,1,1000,num_1,0.895341500028735,,18,4,2026-03-02_10h34.49.132,2026A_exp2,2022.2.4,59.90933321171065,
1,0,6.1,0.0,0,0,58,58,82,,,,,190.45241239998722,191.08631119999336,191.08631119999336,191.5874712000077,45,315,191.5874712000077,191.5874712000077,191.5874712000077,191.5874712000077,191.5874712000077,191.5874712000077,191.5874712000077,191.5874712000077,191.5874712000077,191.95371649999288,191.95371649999288,191.95371649999288,191.95371649999288,191.95371649999288,191.95371649999288,191.95371649999288,191.95371649999288,191.95371649999288,23,0,,,191.95371649999288,192.15398550001555,6.1,192.15398550001555,1,6.1,1,1,1000,num_4,0.5001865000231192,,18,4,2026-03-02_10h34.49.132,2026A_exp2,2022.2.4,59.90933321171065,
0,0,4.9,3.7,0,0,59,59,28,,,,,192.671448100009,193.30535080001573,193.30535080001573,193.806459799991,315,45,193.806459799991,193.806459799991,193.806459799991,193.806459799991,193.806459799991,193.806459799991,193.806459799991,193.806459799991,193.806459799991,194.17276819999097,194.17276819999097,194.17276819999097,194.17276819999097,194.17276819999097,194.17276819999097,194.17276819999097,194.17276819999097,194.17276819999097,23,0,,,194.17276819999097,194.37333410000429,3.7,194.37333410000429,0,3.7,1,0,1000,num_1,0.729033800016623,,18,4,2026-03-02_10h34.49.132,2026A_exp2,2022.2.4,59.90933321171065,
1000,1,0.0,0.0,0,0,60,60,7,,,,,195.1240378000075,195.77465289999964,195.77465289999964,196.2587754999986,45,45,196.2587754999986,196.2587754999986,196.2587754999986,196.2587754999986,196.2587754999986,196.2587754999986,196.2587754999986,196.2587754999986,196.2587754999986,196.6255269999965,196.6255269999965,196.6255269999965,196.6255269999965,196.6255269999965,196.6255269999965,196.6255269999965,196.6255269999965,196.6255269999965,23,0,,,196.6255269999965,196.82583210000303,1000,196.82583210000303,1000,1000,1000,1000,1,num_2,0.996559499995783,,18,4,2026-03-02_10h34.49.132,2026A_exp2,2022.2.4,59.90933321171065,
1000,1,3.7,6.1,1,0,61,61,48,,,,,197.84310070000356,198.4772108999896,198.4772108999896,198.97844949999126,45,315,198.97844949999126,198.97844949999126,198.97844949999126,198.97844949999126,198.97844949999126,198.97844949999126,198.97844949999126,198.97844949999126,198.97844949999126,199.34442000000854,199.34442000000854,199.34442000000854,199.34442000000854,199.34442000000854,199.34442000000854,199.34442000000854,199.34442000000854,199.34442000000854,23,0,,,199.34442000000854,199.5449643000029,1000,199.5449643000029,1000,1000,1000,1000,1,num_2,0.6050507000181824,,18,4,2026-03-02_10h34.49.132,2026A_exp2,2022.2.4,59.90933321171065,
1000,1,6.1,6.1,1,0,62,62,8,,,,,200.1788324000081,200.81289770000149,200.81289770000149,201.31387420001556,315,45,201.31387420001556,201.31387420001556,201.31387420001556,201.31387420001556,201.31387420001556,201.31387420001556,201.31387420001556,201.31387420001556,201.31387420001556,201.68046010000398,201.68046010000398,201.68046010000398,201.68046010000398,201.68046010000398,201.68046010000398,201.68046010000398,201.68046010000398,201.68046010000398,23,0,,,201.68046010000398,201.8806462000066,1000,201.8806462000066,1000,1000,1000,1000,1,num_2,1.3093574999948032,,18,4,2026-03-02_10h34.49.132,2026A_exp2,2022.2.4,59.90933321171065,
1000,1,0.0,3.7,0,0,63,63,46,,,,,203.21546919998946,203.86564669999643,203.86564669999643,204.35027180000907,315,315,204.35027180000907,204.35027180000907,204.35027180000907,204.35027180000907,204.35027180000907,204.35027180000907,204.35027180000907,204.35027180000907,204.35027180000907,204.71620890000486,204.71620890000486,204.71620890000486,204.71620890000486,204.71620890000486,204.71620890000486,204.71620890000486,204.71620890000486,204.71620890000486,23,0,,,204.71620890000486,204.9174794999999,1000,204.9174794999999,1000,1000,1000,1000,1,num_2,0.9600427999976091,,18,4,2026-03-02_10h34.49.132,2026A_exp2,2022.2.4,59.90933321171065,
1000,1,4.9,0.0,1,0,64,64,10,,,,,205.90162459999556,206.5516268000065,206.5516268000065,207.03633900001296,45,315,207.03633900001296,207.03633900001296,207.03633900001296,207.03633900001296,207.03633900001296,207.03633900001296,207.03633900001296,207.03633900001296,207.03633900001296,207.40284679998877,207.40284679998877,207.40284679998877,207.40284679998877,207.40284679998877,207.40284679998877,207.40284679998877,207.40284679998877,207.40284679998877,23,0,,,207.40284679998877,207.60320549999597,1000,207.60320549999597,1000,1000,1000,1000,0,num_3,0.7304600000206847,,18,4,2026-03-02_10h34.49.132,2026A_exp2,2022.2.4,59.90933321171065,
1000,1,6.1,0.0,1,0,65,65,83,,,,,208.35385929999757,209.00433200001135,209.00433200001135,209.50552539998898,315,315,209.50552539998898,209.50552539998898,209.50552539998898,209.50552539998898,209.50552539998898,209.50552539998898,209.50552539998898,209.50552539998898,209.50552539998898,209.855407199997,209.855407199997,209.855407199997,209.855407199997,209.855407199997,209.855407199997,209.855407199997,209.855407199997,209.855407199997,22,0,,,209.855407199997,210.0556862000085,1000,210.0722500999982,1000,1000,1000,1000,0,num_3,0.49335079998127185,,18,4,2026-03-02_10h34.49.132,2026A_exp2,2022.2.4,59.90933321171065,
1,0,0.0,6.1,1,0,66,66,36,,,,,210.5895664000127,211.23997600001167,211.23997600001167,211.7410538000113,45,45,211.7410538000113,211.7410538000113,211.7410538000113,211.7410538000113,211.7410538000113,211.7410538000113,211.7410538000113,211.7410538000113,211.7410538000113,212.10744140000315,212.10744140000315,212.10744140000315,212.10744140000315,212.10744140000315,212.10744140000315,212.10744140000315,212.10744140000315,212.10744140000315,23,0,,,212.10744140000315,212.30745100000058,6.1,212.30745100000058,1,6.1,1,1,1000,num_4,0.7621496000210755,,18,4,2026-03-02_10h34.49.132,2026A_exp2,2022.2.4,59.90933321171065,
1000,1,0.0,0.0,1,0,67,67,9,,,,,213.09193870000308,213.74260050000157,213.74260050000157,214.22713149999618,45,315,214.22713149999618,214.22713149999618,214.22713149999618,214.22713149999618,214.22713149999618,214.22713149999618,214.22713149999618,214.22713149999618,214.22713149999618,214.59329729998717,214.59329729998717,214.59329729998717,214.59329729998717,214.59329729998717,214.59329729998717,214.59329729998717,214.59329729998717,214.59329729998717,23,0,,,214.59329729998717,214.79376960001537,1000,214.79376960001537,1000,1000,1000,1000,1,num_2,1.5165676000178792,,18,4,2026-03-02_10h34.49.132,2026A_exp2,2022.2.4,59.90933321171065,
0,0,0.0,0.0,0,0,68,68,59,,,,,216.3287563000049,216.97917700000107,216.97917700000107,217.4635397999955,45,45,217.4635397999955,217.4635397999955,217.4635397999955,217.4635397999955,217.4635397999955,217.4635397999955,217.4635397999955,217.4635397999955,217.4635397999955,217.83000940000056,217.83000940000056,217.83000940000056,217.83000940000056,217.83000940000056,217.83000940000056,217.83000940000056,217.83000940000056,217.83000940000056,23,0,,,217.83000940000056,218.0300777000084,0.0,218.0300777000084,0,0.0,0,1,1000,num_1,1.2956458000116982,,18,4,2026-03-02_10h34.49.132,2026A_exp2,2022.2.4,59.90933321171065,
1000,1,6.1,6.1,0,0,69,69,16,,,,,219.3481160000083,219.98198599999887,219.98198599999887,220.48294360001455,45,45,220.48294360001455,220.48294360001455,220.48294360001455,220.48294360001455,220.48294360001455,220.48294360001455,220.48294360001455,220.48294360001455,220.48294360001455,220.849421299994,220.849421299994,220.849421299994,220.849421299994,220.849421299994,220.849421299994,220.849421299994,220.849421299994,220.849421299994,23,0,,,220.849421299994,221.04948280000826,1000,221.04948280000826,1000,1000,1000,1000,0,num_3,0.9809097000106703,,18,4,2026-03-02_10h34.49.132,2026A_exp2,2022.2.4,59.90933321171065,
1000,1,4.9,3.7,0,0,70,70,40,,,,,222.05085040000267,222.70114180000382,222.70114180000382,223.20242580000195,45,45,223.20242580000195,223.20242580000195,223.20242580000195,223.20242580000195,223.20242580000195,223.20242580000195,223.20242580000195,223.20242580000195,223.20242580000195,223.56902550000814,223.56902550000814,223.56902550000814,223.56902550000814,223.56902550000814,223.56902550000814,223.56902550000814,223.56902550000814,223.56902550000814,23,0,,,223.56902550000814,223.76953260001028,1000,223.76953260001028,1000,1000,1000,1000,0,num_3,0.5967109000193886,,18,4,2026-03-02_10h34.49.132,2026A_exp2,2022.2.4,59.90933321171065,
1,0,3.7,4.9,1,0,71,71,18,,,,,224.38649790000636,225.03706380000222,225.03706380000222,225.52129699999932,45,315,225.52129699999932,225.52129699999932,225.52129699999932,225.52129699999932,225.52129699999932,225.52129699999932,225.52129699999932,225.52129699999932,225.52129699999932,225.88795460000983,225.88795460000983,225.88795460000983,225.88795460000983,225.88795460000983,225.88795460000983,225.88795460000983,225.88795460000983,225.88795460000983,23,0,,,225.88795460000983,226.08817800000543,4.9,226.08817800000543,1,4.9,1,1,1000,num_4,0.7419244000047911,,18,4,2026-03-02_10h34.49.132,2026A_exp2,2022.2.4,59.90933321171065,
1000,1,4.9,0.0,0,0,72,72,41,,,,,226.8555738000141,227.48965569998836,227.48965569998836,227.9908943999908,45,315,227.9908943999908,227.9908943999908,227.9908943999908,227.9908943999908,227.9908943999908,227.9908943999908,227.9908943999908,227.9908943999908,227.9908943999908,228.35712599998806,228.35712599998806,228.35712599998806,228.35712599998806,228.35712599998806,228.35712599998806,228.35712599998806,228.35712599998806,228.35712599998806,23,0,,,228.35712599998806,228.55754400001024,1000,228.55754400001024,1000,1000,1000,1000,0,num_3,0.9287648000172339,,18,4,2026-03-02_10h34.49.132,2026A_exp2,2022.2.4,59.90933321171065,
1,0,6.1,6.1,1,0,73,73,23,,,,,229.50830549999955,230.1421616000007,230.1421616000007,230.64316810001037,45,45,230.64316810001037,230.64316810001037,230.64316810001037,230.64316810001037,230.64316810001037,230.64316810001037,230.64316810001037,230.64316810001037,230.64316810001037,231.0097286000091,231.0097286000091,231.0097286000091,231.0097286000091,231.0097286000091,231.0097286000091,231.0097286000091,231.0097286000091,231.0097286000091,23,0,,,231.0097286000091,231.21001740000793,6.1,231.21001740000793,1,6.1,1,1,1000,num_4,1.1241190000146162,,18,4,2026-03-02_10h34.49.132,2026A_exp2,2022.2.4,59.90933321171065,
1,0,0.0,0.0,1,0,74,74,49,,,,,232.3611741999921,233.01189990001149,233.01189990001149,233.49632199999178,45,45,233.49632199999178,233.49632199999178,233.49632199999178,233.49632199999178,233.49632199999178,233.49632199999178,233.49632199999178,233.49632199999178,233.49632199999178,233.8626297999872,233.8626297999872,233.8626297999872,233.8626297999872,233.8626297999872,233.8626297999872,233.8626297999872,233.8626297999872,233.8626297999872,23,0,,,233.8626297999872,234.06242870001006,0.0,234.06242870001006,0,0.0,0,1,1000,num_1,0.6153828999958932,,18,4,2026-03-02_10h34.49.132,2026A_exp2,2022.2.4,59.90933321171065,
1000,1,3.7,3.7,0,0,75,75,72,,,,,234.69691249998868,235.33095410000533,235.33095410000533,235.83176249999087,315,315,235.83176249999087,235.83176249999087,235.83176249999087,235.83176249999087,235.83176249999087,235.83176249999087,235.83176249999087,235.83176249999087,235.83176249999087,236.19813100001193,236.19813100001193,236.19813100001193,236.19813100001193,236.19813100001193,236.19813100001193,236.19813100001193,236.19813100001193,236.19813100001193,23,0,,,236.19813100001193,236.39848800000618,1000,236.39848800000618,1000,1000,1000,1000,0,num_3,0.6795536999998149,,18,4,2026-03-02_10h34.49.132,2026A_exp2,2022.2.4,59.90933321171065,
1000,1,3.7,3.7,0,0,76,76,63,,,,,237.09960829999181,237.7495831999986,237.7495831999986,238.23426679999102,315,315,238.23426679999102,238.23426679999102,238.23426679999102,238.23426679999102,238.23426679999102,238.23426679999102,238.23426679999102,238.23426679999102,238.23426679999102,238.60088969999924,238.60088969999924,238.60088969999924,238.60088969999924,238.60088969999924,238.60088969999924,238.60088969999924,238.60088969999924,238.60088969999924,23,0,,,238.60088969999924,238.80069860001095,1000,238.80069860001095,1000,1000,1000,1000,0,num_3,0.43743029999313876,,18,4,2026-03-02_10h34.49.132,2026A_exp2,2022.2.4,59.90933321171065,
1,0,0.0,6.1,0,0,77,77,0,,,,,239.26774849998765,239.90185409999685,239.90185409999685,240.40288219999638,315,315,240.40288219999638,240.40288219999638,240.40288219999638,240.40288219999638,240.40288219999638,240.40288219999638,240.40288219999638,240.40288219999638,240.40288219999638,240.76956220000284,240.76956220000284,240.76956220000284,240.76956220000284,240.76956220000284,240.76956220000284,240.76956220000284,240.76956220000284,240.76956220000284,23,0,,,240.76956220000284,240.9697359999991,0.0,240.9697359999991,0,0.0,0,1,1000,num_1,1.0359452000120655,,18,4,2026-03-02_10h34.49.132,2026A_exp2,2022.2.4,59.90933321171065,
1,0,3.7,0.0,1,0,78,78,12,,,,,242.03740570001537,242.68803590000607,242.68803590000607,243.1724319999921,315,315,243.1724319999921,243.1724319999921,243.1724319999921,243.1724319999921,243.1724319999921,243.1724319999921,243.1724319999921,243.1724319999921,243.1724319999921,243.53863130000536,243.53863130000536,243.53863130000536,243.53863130000536,243.53863130000536,243.53863130000536,243.53863130000536,243.53863130000536,243.53863130000536,23,0,,,243.53863130000536,243.73921120000887,0.0,243.73921120000887,0,0.0,0,1,1000,num_1,0.7067029000027105,,18,4,2026-03-02_10h34.49.132,2026A_exp2,2022.2.4,59.90933321171065,
1,0,4.9,3.7,1,0,79,79,27,,,,,244.4735464999976,245.10749500000384,245.10749500000384,245.60892210001475,315,315,245.60892210001475,245.60892210001475,245.60892210001475,245.60892210001475,245.60892210001475,245.60892210001475,245.60892210001475,245.60892210001475,245.60892210001475,245.97486089999438,245.97486089999438,245.97486089999438,245.97486089999438,245.97486089999438,245.97486089999438,245.97486089999438,245.97486089999438,245.97486089999438,23,0,,,245.97486089999438,246.17662220000057,3.7,246.17662220000057,1,3.7,1,1,1000,num_4,0.5888009000045713,,18,4,2026-03-02_10h34.49.132,2026A_exp2,2022.2.4,59.90933321171065,
1000,1,0.0,0.0,0,0,80,80,15,,,,,246.7921411000134,247.42612009998993,247.42612009998993,247.9272001000063,315,315,247.9272001000063,247.9272001000063,247.9272001000063,247.9272001000063,247.9272001000063,247.9272001000063,247.9272001000063,247.9272001000063,247.9272001000063,248.29422169999452,248.29422169999452,248.29422169999452,248.29422169999452,248.29422169999452,248.29422169999452,248.29422169999452,248.29422169999452,248.29422169999452,23,0,,,248.29422169999452,248.49397569999564,1000,248.49397569999564,1000,1000,1000,1000,1,num_2,0.8560413000232074,,18,4,2026-03-02_10h34.49.132,2026A_exp2,2022.2.4,59.90933321171065,
1,0,0.0,0.0,0,0,81,81,24,,,,,249.37887580000097,250.02849389999756,250.02849389999756,250.51313340000343,45,45,250.51313340000343,250.51313340000343,250.51313340000343,250.51313340000343,250.51313340000343,250.51313340000343,250.51313340000343,250.51313340000343,250.51313340000343,250.88009500000044,250.88009500000044,250.88009500000044,250.88009500000044,250.88009500000044,250.88009500000044,250.88009500000044,250.88009500000044,250.88009500000044,23,0,,,250.88009500000044,251.08002990001114,0.0,251.08002990001114,0,0.0,0,1,1000,num_1,0.7414966000069398,,18,4,2026-03-02_10h34.49.132,2026A_exp2,2022.2.4,59.90933321171065,
1,0,6.1,0.0,1,0,82,82,80,,,,,251.84714440000243,252.48135839999304,252.48135839999304,252.98246830000426,315,315,252.98246830000426,252.98246830000426,252.98246830000426,252.98246830000426,252.98246830000426,252.98246830000426,252.98246830000426,252.98246830000426,252.98246830000426,253.34843300000648,253.34843300000648,253.34843300000648,253.34843300000648,253.34843300000648,253.34843300000648,253.34843300000648,253.34843300000648,253.34843300000648,23,0,,,253.34843300000648,253.548623700015,0.0,253.548623700015,0,0.0,0,1,1000,num_1,0.5295186000003014,,18,4,2026-03-02_10h34.49.132,2026A_exp2,2022.2.4,59.90933321171065,
1,0,3.7,0.0,0,0,83,83,87,,,,,254.09962890000315,254.75031440000748,254.75031440000748,255.23448459999054,45,45,255.23448459999054,255.23448459999054,255.23448459999054,255.23448459999054,255.23448459999054,255.23448459999054,255.23448459999054,255.23448459999054,255.23448459999054,255.60081440000795,255.60081440000795,255.60081440000795,255.60081440000795,255.60081440000795,255.60081440000795,255.60081440000795,255.60081440000795,255.60081440000795,23,0,,,255.60081440000795,255.80114860000322,3.7,255.80114860000322,1,3.7,1,1,1000,num_4,0.6128865000209771,,18,4,2026-03-02_10h34.49.132,2026A_exp2,2022.2.4,59.90933321171065,
1,0,0.0,6.1,1,0,84,84,33,,,,,256.43509240000276,257.06913849999546,257.06913849999546,257.5706857999903,315,45,257.5706857999903,257.5706857999903,257.5706857999903,257.5706857999903,257.5706857999903,257.5706857999903,257.5706857999903,257.5706857999903,257.5706857999903,257.9362909999909,257.9362909999909,257.9362909999909,257.9362909999909,257.9362909999909,257.9362909999909,257.9362909999909,257.9362909999909,257.9362909999909,23,0,,,257.9362909999909,258.13704150001286,6.1,258.13704150001286,1,6.1,1,1,1000,num_4,0.42917940000188537,,18,4,2026-03-02_10h34.49.132,2026A_exp2,2022.2.4,59.90933321171065,
0,0,0.0,3.7,0,0,85,85,34,,,,,258.5875038999948,259.2385848000122,259.2385848000122,259.73928879998857,315,315,259.73928879998857,259.73928879998857,259.73928879998857,259.73928879998857,259.73928879998857,259.73928879998857,259.73928879998857,259.73928879998857,259.73928879998857,260.0889579000068,260.0889579000068,260.0889579000068,260.0889579000068,260.0889579000068,260.0889579000068,260.0889579000068,260.0889579000068,260.0889579000068,22,0,,,260.0889579000068,260.28921170000103,3.7,260.28921170000103,1,3.7,1,1,1000,num_4,0.9963349000026938,,18,4,2026-03-02_10h34.49.132,2026A_exp2,2022.2.4,59.90933321171065,
1000,1,3.7,0.0,1,0,86,86,19,,,,,261.30691760001355,261.95751030000974,261.95751030000974,262.44200790001196,45,45,262.44200790001196,262.44200790001196,262.44200790001196,262.44200790001196,262.44200790001196,262.44200790001196,262.44200790001196,262.44200790001196,262.44200790001196,262.80808909999905,262.80808909999905,262.80808909999905,262.80808909999905,262.80808909999905,262.80808909999905,262.80808909999905,262.80808909999905,262.80808909999905,23,0,,,262.80808909999905,263.00851479999255,1000,263.00851479999255,1000,1000,1000,1000,0,num_3,1.0532746000098996,,18,4,2026-03-02_10h34.49.132,2026A_exp2,2022.2.4,59.90933321171065,
1000,1,0.0,3.7,1,0,87,87,13,,,,,264.09256720001576,264.7431463999965,264.7431463999965,265.2278565999877,315,45,265.2278565999877,265.2278565999877,265.2278565999877,265.2278565999877,265.2278565999877,265.2278565999877,265.2278565999877,265.2278565999877,265.2278565999877,265.5946918000118,265.5946918000118,265.5946918000118,265.5946918000118,265.5946918000118,265.5946918000118,265.5946918000118,265.5946918000118,265.5946918000118,23,0,,,265.5946918000118,265.7946838999924,1000,265.7946838999924,1000,1000,1000,1000,1,num_2,0.6591499999922235,,18,4,2026-03-02_10h34.49.132,2026A_exp2,2022.2.4,59.90933321171065,
1000,1,3.7,0.0,0,0,88,88,56,,,,,266.47831030000816,267.12943160001305,267.12943160001305,267.61357250000583,315,315,267.61357250000583,267.61357250000583,267.61357250000583,267.61357250000583,267.61357250000583,267.61357250000583,267.61357250000583,267.61357250000583,267.61357250000583,267.980043699994,267.980043699994,267.980043699994,267.980043699994,267.980043699994,267.980043699994,267.980043699994,267.980043699994,267.980043699994,23,0,,,267.980043699994,268.1801825000148,1000,268.1801825000148,1000,1000,1000,1000,0,num_3,0.4816245000110939,,18,4,2026-03-02_10h34.49.132,2026A_exp2,2022.2.4,59.90933321171065,
1,0,0.0,6.1,1,0,89,89,31,,,,,268.68081960000563,269.31528640000033,269.31528640000033,269.8156098999898,45,45,269.8156098999898,269.8156098999898,269.8156098999898,269.8156098999898,269.8156098999898,269.8156098999898,269.8156098999898,269.8156098999898,269.8156098999898,270.18213030000334,270.18213030000334,270.18213030000334,270.18213030000334,270.18213030000334,270.18213030000334,270.18213030000334,270.18213030000334,270.18213030000334,23,0,,,270.18213030000334,270.38253920001443,6.1,270.38253920001443,1,6.1,1,1,1000,num_4,0.5750288000272121,,18,4,2026-03-02_10h34.49.132,2026A_exp2,2022.2.4,59.90933321171065,
,,,,,,,,,,,,,,,,,,,,,,,,,,,,,,,,,,,,,,,,,,,,,,,,,,,,270.9855133999954,,,,,,,
