validity,detectorcomp,contrastCW,contrastCCW,precueCWorCCW,block_80trials.thisRepN,block_80trials.thisTrialN,block_80trials.thisN,block_80trials.thisIndex,etRecord.started,etRecord.stopped,text.started,text.stopped,text_4.started,text_4.stopped,text_6.started,text_6.stopped,oriCW,oriCCW,roi_2.started,grating_UR.started,grating_UL.started,grating_LR.started,grating_LL.started,noise_UR.started,noise_UL.started,noise_LR.started,noise_LL.started,roi_2.stopped,grating_UR.stopped,grating_UL.stopped,grating_LR.stopped,grating_LL.stopped,noise_UR.stopped,noise_UL.stopped,noise_LR.stopped,noise_LL.stopped,outframe,roi_2.numLooks,roi_2.timesOn,roi_2.timesOff,text_2.started,text_2.stopped,probedcontrast,key_resp.started,respdetect,relevantContrast,correctDetect,TorFdetect,respCWorCCW,key_resp.keys,key_resp.rt,feedback_display_.started,participantNo,blockNo,date,expName,psychopyVersion,frameRate,
1000,1,0.0,4.9,0,0,0,0,0,3.400002606213093e-05,3.400002606213093e-05,52.46504129981622,54.47138040000573,54.47138040000573,55.119450099999085,55.119450099999085,55.62522929999977,315,45,55.62522929999977,55.62522929999977,55.62522929999977,55.62522929999977,55.62522929999977,55.62522929999977,55.62522929999977,55.62522929999977,55.62522929999977,55.969745399896055,55.969745399896055,55.969745399896055,55.969745399896055,55.969745399896055,55.969745399896055,55.969745399896055,55.969745399896055,55.969745399896055,0,1,[0.0010446000378578901],[0.3678759001195431],55.969745399896055,56.17055369983427,1000,56.17055369983427,1000,1000,1000,1000,1,num_2,1.501948500284925,,34,13,2026-03-13_11h13.00.674,2026A_exp2,2022.2.4,59.92954681852543,
1000,1,3.7,6.1,0,0,1,1,60,,,,,57.688048199983314,58.3388343998231,58.3388343998231,58.839884699787945,315,315,58.839884699787945,58.839884699787945,58.839884699787945,58.839884699787945,58.839884699787945,58.839884699787945,58.839884699787945,58.839884699787945,58.839884699787945,59.206281799823046,59.206281799823046,59.206281799823046,59.206281799823046,59.206281799823046,59.206281799823046,59.206281799823046,59.206281799823046,59.206281799823046,0,1,[0.0012457999400794506],[0.3672090999316424],59.206281799823046,59.40899119991809,1000,59.40899119991809,1000,1000,1000,1000,0,num_3,0.4244927002582699,,34,13,2026-03-13_11h13.00.674,2026A_exp2,2022.2.4,59.92954681852543,
1,0,0.0,0.0,1,0,2,2,38,,,,,59.85688169999048,60.50774939986877,60.50774939986877,61.008580199908465,45,315,61.008580199908465,61.008580199908465,61.008580199908465,61.008580199908465,61.008580199908465,61.008580199908465,61.008580199908465,61.008580199908465,61.008580199908465,61.37500389991328,61.37500389991328,61.37500389991328,61.37500389991328,61.37500389991328,61.37500389991328,61.37500389991328,61.37500389991328,61.37500389991328,0,1,[0.0012373998761177063],[0.3673862998839468],61.37500389991328,61.57527279993519,0.0,61.57527279993519,1,0.0,0,0,1000,num_4,1.4019979001022875,,34,13,2026-03-13_11h13.00.674,2026A_exp2,2022.2.4,59.92954681852543,
1000,1,0.0,3.7,1,0,3,3,88,,,,,62.993275499902666,63.644031199859455,63.644031199859455,64.14505369984545,315,315,64.14505369984545,64.14505369984545,64.14505369984545,64.14505369984545,64.14505369984545,64.14505369984545,64.14505369984545,64.14505369984545,64.14505369984545,64.51152920001186,64.51152920001186,64.51152920001186,64.51152920001186,64.51152920001186,64.51152920001186,64.51152920001186,64.51152920001186,64.51152920001186,0,1,[0.001208100002259016],[0.36699349991977215],64.51152920001186,64.71372150001116,1000,64.71372150001116,1000,1000,1000,1000,1,num_2,0.47192400018684566,,34,13,2026-03-13_11h13.00.674,2026A_exp2,2022.2.4,59.92954681852543,
1000,1,4.9,0.0,1,0,4,4,67,,,,,65.2123314999044,65.86265239981003,65.86265239981003,66.36376909981482,315,45,66.36376909981482,66.36376909981482,66.36376909981482,66.36376909981482,66.36376909981482,66.36376909981482,66.36376909981482,66.36376909981482,66.36376909981482,66.71377149992622,66.71377149992622,66.71377149992622,66.71377149992622,66.71377149992622,66.71377149992622,66.71377149992622,66.71377149992622,66.71377149992622,0,1,[0.0008209999650716782],[0.35096920002251863],66.71377149992622,66.91421590000391,1000,66.93068579980172,1000,1000,1000,1000,0,num_3,0.43088690005242825,,34,13,2026-03-13_11h13.00.674,2026A_exp2,2022.2.4,59.92954681852543,
1,0,3.7,0.0,1,0,5,5,30,,,,,67.38117259996943,68.03186229988933,68.03186229988933,68.53269529994577,45,45,68.53269529994577,68.53269529994577,68.53269529994577,68.53269529994577,68.53269529994577,68.53269529994577,68.53269529994577,68.53269529994577,68.53269529994577,68.89933309983462,68.89933309983462,68.89933309983462,68.89933309983462,68.89933309983462,68.89933309983462,68.89933309983462,68.89933309983462,68.89933309983462,0,1,[0.001724200090393424],[0.3666459999512881],68.89933309983462,69.09918049979024,0.0,69.09918049979024,0,0.0,0,1,1000,num_1,0.6855578001122922,,34,13,2026-03-13_11h13.00.674,2026A_exp2,2022.2.4,59.92954681852543,
1,0,0.0,6.1,1,0,6,6,46,,,,,69.80007669981569,70.45095919980668,70.45095919980668,70.95193099998869,45,45,70.95193099998869,70.95193099998869,70.95193099998869,70.95193099998869,70.95193099998869,70.95193099998869,70.95193099998869,70.95193099998869,70.95193099998869,71.31821019994095,71.31821019994095,71.31821019994095,71.31821019994095,71.31821019994095,71.31821019994095,71.31821019994095,71.31821019994095,71.31821019994095,2,3,"[0.0007696999236941338, 0.2338543999940157, 0.28416120004840195]","[0.21720770001411438, 0.2673762000631541, 0.36761810001917183]",71.31821019994095,71.51851279987022,6.1,71.51851279987022,1,6.1,1,1,1000,num_4,1.10602549999021,,34,13,2026-03-13_11h13.00.674,2026A_exp2,2022.2.4,59.92954681852543,
1,0,0.0,0.0,0,0,7,7,80,,,,,72.65274429996498,73.28680889983661,73.28680889983661,73.78812209982425,315,315,73.78812209982425,73.78812209982425,73.78812209982425,73.78812209982425,73.78812209982425,73.78812209982425,73.78812209982425,73.78812209982425,73.78812209982425,74.15443519991823,74.15443519991823,74.15443519991823,74.15443519991823,74.15443519991823,74.15443519991823,74.15443519991823,74.15443519991823,74.15443519991823,0,1,[0.0012223999947309494],[0.36715810000896454],74.15443519991823,74.35459749982692,0.0,74.35459749982692,0,0.0,0,1,1000,num_1,0.8538810000754893,,34,13,2026-03-13_11h13.00.674,2026A_exp2,2022.2.4,59.92954681852543,
1,0,4.9,4.9,1,0,8,8,9,,,,,75.23894889978692,75.87292709993199,75.87292709993199,76.37410199991427,45,45,76.37410199991427,76.37410199991427,76.37410199991427,76.37410199991427,76.37410199991427,76.37410199991427,76.37410199991427,76.37410199991427,76.37410199991427,76.74038279987872,76.74038279987872,76.74038279987872,76.74038279987872,76.74038279987872,76.74038279987872,76.74038279987872,76.74038279987872,76.74038279987872,0,1,[0.001251300098374486],[0.36719020013697445],76.74038279987872,76.94066979992203,4.9,76.94066979992203,1,4.9,1,1,1000,num_4,1.7478486001491547,,34,13,2026-03-13_11h13.00.674,2026A_exp2,2022.2.4,59.92954681852543,
1000,1,0.0,6.1,1,0,9,9,42,,,,,78.70892259990796,79.35963459988125,79.35963459988125,79.84420880000107,45,45,79.84420880000107,79.84420880000107,79.84420880000107,79.84420880000107,79.84420880000107,79.84420880000107,79.84420880000107,79.84420880000107,79.84420880000107,80.21063239988871,80.21063239988871,80.21063239988871,80.21063239988871,80.21063239988871,80.21063239988871,80.21063239988871,80.21063239988871,80.21063239988871,17,2,"[0.0012079998850822449, 0.08384079998359084]","[0.06721620005555451, 0.11708800005726516]",80.21063239988871,80.41245349985547,1000,80.41245349985547,1000,1000,1000,1000,1,num_2,0.5728646002244204,,34,13,2026-03-13_11h13.00.674,2026A_exp2,2022.2.4,59.92954681852543,
1000,1,4.9,6.1,0,0,10,10,36,,,,,81.01147049991414,81.64524489990436,81.64524489990436,82.14630989986472,315,315,82.14630989986472,82.14630989986472,82.14630989986472,82.14630989986472,82.14630989986472,82.14630989986472,82.14630989986472,82.14630989986472,82.14630989986472,82.51287709991448,82.51287709991448,82.51287709991448,82.51287709991448,82.51287709991448,82.51287709991448,82.51287709991448,82.51287709991448,82.51287709991448,21,2,"[0.15023249993100762, 0.2336631000507623]","[0.16680330014787614, 0.25030170008540154]",82.51287709991448,82.71485889982432,1000,82.71485889982432,1000,1000,1000,1000,1,num_2,0.44604680011980236,,34,13,2026-03-13_11h13.00.674,2026A_exp2,2022.2.4,59.92954681852543,
0,0,3.7,4.9,0,0,11,11,77,,,,,83.18008690001443,83.83079739985988,83.83079739985988,84.33188499999233,45,45,84.33188499999233,84.33188499999233,84.33188499999233,84.33188499999233,84.33188499999233,84.33188499999233,84.33188499999233,84.33188499999233,84.33188499999233,84.69841059995815,84.69841059995815,84.69841059995815,84.69841059995815,84.69841059995815,84.69841059995815,84.69841059995815,84.69841059995815,84.69841059995815,23,0,,,84.69841059995815,84.89862929983065,4.9,84.89862929983065,1,4.9,1,1,1000,num_4,1.2791251002345234,,34,13,2026-03-13_11h13.00.674,2026A_exp2,2022.2.4,59.92954681852543,
1,0,4.9,0.0,0,0,12,12,66,,,,,86.19976849993691,86.85042349994183,86.85042349994183,87.33491360000335,315,45,87.33491360000335,87.33491360000335,87.33491360000335,87.33491360000335,87.33491360000335,87.33491360000335,87.33491360000335,87.33491360000335,87.33491360000335,87.70127059984952,87.70127059984952,87.70127059984952,87.70127059984952,87.70127059984952,87.70127059984952,87.70127059984952,87.70127059984952,87.70127059984952,23,0,,,87.70127059984952,87.90164349996485,4.9,87.90164349996485,1,4.9,1,1,1000,num_4,0.8761035001371056,,34,13,2026-03-13_11h13.00.674,2026A_exp2,2022.2.4,59.92954681852543,
1000,1,0.0,0.0,1,0,13,13,29,,,,,88.80241089989431,89.45487789995968,89.45487789995968,89.93812059983611,45,315,89.93812059983611,89.93812059983611,89.93812059983611,89.93812059983611,89.93812059983611,89.93812059983611,89.93812059983611,89.93812059983611,89.93812059983611,90.30403180001304,90.30403180001304,90.30403180001304,90.30403180001304,90.30403180001304,90.30403180001304,90.30403180001304,90.30403180001304,90.30403180001304,0,1,[0.0018557999283075333],[0.3663792998995632],90.30403180001304,90.50626769987866,1000,90.50626769987866,1000,1000,1000,1000,1,num_2,0.6074652001261711,,34,13,2026-03-13_11h13.00.674,2026A_exp2,2022.2.4,59.92954681852543,
1000,1,0.0,3.7,0,0,14,14,21,,,,,91.1380285997875,91.78888289979659,91.78888289979659,92.2899348998908,45,45,92.2899348998908,92.2899348998908,92.2899348998908,92.2899348998908,92.2899348998908,92.2899348998908,92.2899348998908,92.2899348998908,92.2899348998908,92.65617949981242,92.65617949981242,92.65617949981242,92.65617949981242,92.65617949981242,92.65617949981242,92.65617949981242,92.65617949981242,92.65617949981242,0,1,[0.0012091000098735094],[0.3673757000360638],92.65617949981242,92.85877099982463,1000,92.85877099982463,1000,1000,1000,1000,1,num_2,0.4457416001241654,,34,13,2026-03-13_11h13.00.674,2026A_exp2,2022.2.4,59.92954681852543,
0,0,6.1,0.0,1,0,15,15,52,,,,,93.32373679988086,93.97429609997198,93.97429609997198,94.4753440998029,315,45,94.4753440998029,94.4753440998029,94.4753440998029,94.4753440998029,94.4753440998029,94.4753440998029,94.4753440998029,94.4753440998029,94.4753440998029,94.84186079981737,94.84186079981737,94.84186079981737,94.84186079981737,94.84186079981737,94.84186079981737,94.84186079981737,94.84186079981737,94.84186079981737,0,1,[0.0011783000081777573],[0.3672954000066966],94.84186079981737,95.04199389996938,6.1,95.04199389996938,1,6.1,1,1,1000,num_4,0.6704657999798656,,34,13,2026-03-13_11h13.00.674,2026A_exp2,2022.2.4,59.92954681852543,
1000,1,0.0,0.0,1,0,16,16,55,,,,,95.74259979999624,96.39344819984399,96.39344819984399,96.8778081999626,45,315,96.8778081999626,96.8778081999626,96.8778081999626,96.8778081999626,96.8778081999626,96.8778081999626,96.8778081999626,96.8778081999626,96.8778081999626,97.24433369981125,97.24433369981125,97.24433369981125,97.24433369981125,97.24433369981125,97.24433369981125,97.24433369981125,97.24433369981125,97.24433369981125,23,0,,,97.24433369981125,97.44617469981313,1000,97.44617469981313,1000,1000,1000,1000,1,num_2,0.49126870022155344,,34,13,2026-03-13_11h13.00.674,2026A_exp2,2022.2.4,59.92954681852543,
1000,1,0.0,4.9,1,0,17,17,37,,,,,97.9615288998466,98.61224879999645,98.61224879999645,99.113340199925,45,315,99.113340199925,99.113340199925,99.113340199925,99.113340199925,99.113340199925,99.113340199925,99.113340199925,99.113340199925,99.113340199925,99.47988619981334,99.47988619981334,99.47988619981334,99.47988619981334,99.47988619981334,99.47988619981334,99.47988619981334,99.47988619981334,99.47988619981334,23,0,,,99.47988619981334,99.68199879978783,1000,99.68199879978783,1000,1000,1000,1000,1,num_2,0.48766790027730167,,34,13,2026-03-13_11h13.00.674,2026A_exp2,2022.2.4,59.92954681852543,
0,0,0.0,0.0,1,0,18,18,44,,,,,100.19711779989302,100.84794589993544,100.84794589993544,101.34901889995672,315,45,101.34901889995672,101.34901889995672,101.34901889995672,101.34901889995672,101.34901889995672,101.34901889995672,101.34901889995672,101.34901889995672,101.34901889995672,101.71525519993156,101.71525519993156,101.71525519993156,101.71525519993156,101.71525519993156,101.71525519993156,101.71525519993156,101.71525519993156,101.71525519993156,23,0,,,101.71525519993156,101.91567929997109,0.0,101.91567929997109,0,0.0,0,1,1000,num_1,0.6851364001631737,,34,13,2026-03-13_11h13.00.674,2026A_exp2,2022.2.4,59.92954681852543,
1000,1,3.7,0.0,0,0,19,19,69,,,,,102.61645439988934,103.26692419988103,103.26692419988103,103.76797129982151,315,45,103.76797129982151,103.76797129982151,103.76797129982151,103.76797129982151,103.76797129982151,103.76797129982151,103.76797129982151,103.76797129982151,103.76797129982151,104.13438079995103,104.13438079995103,104.13438079995103,104.13438079995103,104.13438079995103,104.13438079995103,104.13438079995103,104.13438079995103,104.13438079995103,23,0,,,104.13438079995103,104.36879749991931,1000,104.36879749991931,1000,1000,1000,1000,0,num_3,0.48037540004588664,,34,13,2026-03-13_11h13.00.674,2026A_exp2,2022.2.4,59.92954681852543,
0,0,3.7,0.0,0,0,20,20,18,,,,,104.86840649996884,105.51913919998333,105.51913919998333,106.02037259982899,315,315,106.02037259982899,106.02037259982899,106.02037259982899,106.02037259982899,106.02037259982899,106.02037259982899,106.02037259982899,106.02037259982899,106.02037259982899,106.38683999981731,106.38683999981731,106.38683999981731,106.38683999981731,106.38683999981731,106.38683999981731,106.38683999981731,106.38683999981731,106.38683999981731,23,0,,,106.38683999981731,106.58697979990393,0.0,106.58697979990393,1,0.0,0,0,1000,num_4,0.9985464001074433,,34,13,2026-03-13_11h13.00.674,2026A_exp2,2022.2.4,59.92954681852543,
1000,1,0.0,0.0,1,0,21,21,3,,,,,107.60466419998556,108.25529160001315,108.25529160001315,108.73972439998761,45,45,108.73972439998761,108.73972439998761,108.73972439998761,108.73972439998761,108.73972439998761,108.73972439998761,108.73972439998761,108.73972439998761,108.73972439998761,109.10602719988674,109.10602719988674,109.10602719988674,109.10602719988674,109.10602719988674,109.10602719988674,109.10602719988674,109.10602719988674,109.10602719988674,23,0,,,109.10602719988674,109.30815149983391,1000,109.30815149983391,1000,1000,1000,1000,1,num_2,0.5570618002675474,,34,13,2026-03-13_11h13.00.674,2026A_exp2,2022.2.4,59.92954681852543,
1000,1,3.7,3.7,0,0,22,22,59,,,,,109.89036099985242,110.54096809984185,110.54096809984185,111.04196950001642,315,315,111.04196950001642,111.04196950001642,111.04196950001642,111.04196950001642,111.04196950001642,111.04196950001642,111.04196950001642,111.04196950001642,111.04196950001642,111.40839929995127,111.40839929995127,111.40839929995127,111.40839929995127,111.40839929995127,111.40839929995127,111.40839929995127,111.40839929995127,111.40839929995127,23,0,,,111.40839929995127,111.61011089989915,1000,111.61011089989915,1000,1000,1000,1000,1,num_2,0.6550853999797255,,34,13,2026-03-13_11h13.00.674,2026A_exp2,2022.2.4,59.92954681852543,
1,0,6.1,0.0,0,0,23,23,85,,,,,112.29257379984483,112.94328499981202,112.94328499981202,113.44445419986732,315,45,113.44445419986732,113.44445419986732,113.44445419986732,113.44445419986732,113.44445419986732,113.44445419986732,113.44445419986732,113.44445419986732,113.44445419986732,113.81087339995429,113.81087339995429,113.81087339995429,113.81087339995429,113.81087339995429,113.81087339995429,113.81087339995429,113.81087339995429,113.81087339995429,23,0,,,113.81087339995429,114.01107589993626,6.1,114.01107589993626,0,6.1,1,0,1000,num_1,0.5581455000210553,,34,13,2026-03-13_11h13.00.674,2026A_exp2,2022.2.4,59.92954681852543,
1000,1,6.1,4.9,0,0,24,24,81,,,,,114.59506309987046,115.22892989986576,115.22892989986576,115.73008529981598,45,45,115.73008529981598,115.73008529981598,115.73008529981598,115.73008529981598,115.73008529981598,115.73008529981598,115.73008529981598,115.73008529981598,115.73008529981598,116.09639939991757,116.09639939991757,116.09639939991757,116.09639939991757,116.09639939991757,116.09639939991757,116.09639939991757,116.09639939991757,116.09639939991757,22,1,[0.03354960004799068],[0.050361800007522106],116.09639939991757,116.29837889992632,1000,116.29837889992632,1000,1000,1000,1000,0,num_3,0.43114160001277924,,34,13,2026-03-13_11h13.00.674,2026A_exp2,2022.2.4,59.92954681852543,
1000,1,6.1,6.1,1,0,25,25,22,,,,,116.74711139989085,117.39779859990813,117.39779859990813,117.89879639982246,315,315,117.89879639982246,117.89879639982246,117.89879639982246,117.89879639982246,117.89879639982246,117.89879639982246,117.89879639982246,117.89879639982246,117.89879639982246,118.26527789980173,118.26527789980173,118.26527789980173,118.26527789980173,118.26527789980173,118.26527789980173,118.26527789980173,118.26527789980173,118.26527789980173,22,1,[0.06693420000374317],[0.08358579990454018],118.26527789980173,118.46894209994934,1000,118.46894209994934,1000,1000,1000,1000,0,num_3,0.5247042002156377,,34,13,2026-03-13_11h13.00.674,2026A_exp2,2022.2.4,59.92954681852543,
1000,1,4.9,6.1,1,0,26,26,5,,,,,119.01589749986306,119.66675029997714,119.66675029997714,120.16786399995908,45,45,120.16786399995908,120.16786399995908,120.16786399995908,120.16786399995908,120.16786399995908,120.16786399995908,120.16786399995908,120.16786399995908,120.16786399995908,120.51752949994989,120.51752949994989,120.51752949994989,120.51752949994989,120.51752949994989,120.51752949994989,120.51752949994989,120.51752949994989,120.51752949994989,22,0,,,120.51752949994989,120.71901269978844,1000,120.73444789997302,1000,1000,1000,1000,1,num_2,0.5067529000807554,,34,13,2026-03-13_11h13.00.674,2026A_exp2,2022.2.4,59.92954681852543,
1000,1,0.0,3.7,0,0,27,27,76,,,,,121.26854179985821,121.9189559998922,121.9189559998922,122.40343669988215,45,45,122.40343669988215,122.40343669988215,122.40343669988215,122.40343669988215,122.40343669988215,122.40343669988215,122.40343669988215,122.40343669988215,122.40343669988215,122.77049139980227,122.77049139980227,122.77049139980227,122.77049139980227,122.77049139980227,122.77049139980227,122.77049139980227,122.77049139980227,122.77049139980227,19,3,"[0.11664370005019009, 0.21684419992379844, 0.26706509990617633]","[0.13358399993740022, 0.23366339993663132, 0.3004998001269996]",122.77049139980227,122.9716116997879,1000,122.9716116997879,1000,1000,1000,1000,1,num_2,0.46082110004499555,,34,13,2026-03-13_11h13.00.674,2026A_exp2,2022.2.4,59.92954681852543,
1,0,3.7,0.0,0,0,28,28,10,,,,,123.45364069985226,124.10456549981609,124.10456549981609,124.60560339991935,45,45,124.60560339991935,124.60560339991935,124.60560339991935,124.60560339991935,124.60560339991935,124.60560339991935,124.60560339991935,124.60560339991935,124.60560339991935,124.9721542999614,124.9721542999614,124.9721542999614,124.9721542999614,124.9721542999614,124.9721542999614,124.9721542999614,124.9721542999614,124.9721542999614,23,0,,,124.9721542999614,125.1860590998549,3.7,125.1860590998549,0,3.7,1,0,1000,num_1,0.7118269002530724,,34,13,2026-03-13_11h13.00.674,2026A_exp2,2022.2.4,59.92954681852543,
0,0,6.1,3.7,0,0,29,29,49,,,,,125.92286039981991,126.57338680000976,126.57338680000976,127.07467259978876,45,45,127.07467259978876,127.07467259978876,127.07467259978876,127.07467259978876,127.07467259978876,127.07467259978876,127.07467259978876,127.07467259978876,127.07467259978876,127.44115309999324,127.44115309999324,127.44115309999324,127.44115309999324,127.44115309999324,127.44115309999324,127.44115309999324,127.44115309999324,127.44115309999324,14,4,"[0.000713299959897995, 0.11753539997152984, 0.26752089988440275, 0.35093229985795915]","[0.06695629982277751, 0.15082639991305768, 0.28433649986982346, 0.36778409988619387]",127.44115309999324,127.641134099802,3.7,127.641134099802,1,3.7,1,1,1000,num_4,1.791414299979806,,34,13,2026-03-13_11h13.00.674,2026A_exp2,2022.2.4,59.92954681852543,
1000,1,4.9,0.0,0,0,30,30,50,,,,,129.45967169990763,130.11045039980672,130.11045039980672,130.5947687998414,45,45,130.5947687998414,130.5947687998414,130.5947687998414,130.5947687998414,130.5947687998414,130.5947687998414,130.5947687998414,130.5947687998414,130.5947687998414,130.96114969998598,130.96114969998598,130.96114969998598,130.96114969998598,130.96114969998598,130.96114969998598,130.96114969998598,130.96114969998598,130.96114969998598,23,0,,,130.96114969998598,131.1616386999376,1000,131.1616386999376,1000,1000,1000,1000,1,num_2,0.6877298001199961,,34,13,2026-03-13_11h13.00.674,2026A_exp2,2022.2.4,59.92954681852543,
1000,1,0.0,0.0,1,0,31,31,56,,,,,131.87905709980987,132.5295112999156,132.5295112999156,133.03060900000855,45,315,133.03060900000855,133.03060900000855,133.03060900000855,133.03060900000855,133.03060900000855,133.03060900000855,133.03060900000855,133.03060900000855,133.03060900000855,133.3970959999133,133.3970959999133,133.3970959999133,133.3970959999133,133.3970959999133,133.3970959999133,133.3970959999133,133.3970959999133,133.3970959999133,23,0,,,133.3970959999133,133.59913539979607,1000,133.59913539979607,1000,1000,1000,1000,1,num_2,0.578318600077182,,34,13,2026-03-13_11h13.00.674,2026A_exp2,2022.2.4,59.92954681852543,
1000,1,4.9,0.0,1,0,32,32,48,,,,,134.1978233999107,134.84856509999372,134.84856509999372,135.3495736999903,315,45,135.3495736999903,135.3495736999903,135.3495736999903,135.3495736999903,135.3495736999903,135.3495736999903,135.3495736999903,135.3495736999903,135.3495736999903,135.7159545000177,135.7159545000177,135.7159545000177,135.7159545000177,135.7159545000177,135.7159545000177,135.7159545000177,135.7159545000177,135.7159545000177,20,2,"[0.0009602999780327082, 0.10047019994817674]","[0.033732400042936206, 0.11729960003867745]",135.7159545000177,135.91789259994403,1000,135.91789259994403,1000,1000,1000,1000,1,num_2,0.5149605001788586,,34,13,2026-03-13_11h13.00.674,2026A_exp2,2022.2.4,59.92954681852543,
1000,1,0.0,0.0,1,0,33,33,73,,,,,136.45007439982146,137.10076669999398,137.10076669999398,137.6019127999898,45,315,137.6019127999898,137.6019127999898,137.6019127999898,137.6019127999898,137.6019127999898,137.6019127999898,137.6019127999898,137.6019127999898,137.6019127999898,137.96838460001163,137.96838460001163,137.96838460001163,137.96838460001163,137.96838460001163,137.96838460001163,137.96838460001163,137.96838460001163,137.96838460001163,20,3,"[0.10022070002742112, 0.3003518001642078, 0.33378830016590655]","[0.1168677001260221, 0.31719269999302924, 0.3502925999928266]",137.96838460001163,138.17020729999058,1000,138.17020729999058,1000,1000,1000,1000,1,num_2,0.4704140000976622,,34,13,2026-03-13_11h13.00.674,2026A_exp2,2022.2.4,59.92954681852543,
1,0,6.1,6.1,1,0,34,34,47,,,,,138.66885129990987,139.31968849990517,139.31968849990517,139.82081920001656,315,45,139.82081920001656,139.82081920001656,139.82081920001656,139.82081920001656,139.82081920001656,139.82081920001656,139.82081920001656,139.82081920001656,139.82081920001656,140.18717149994336,140.18717149994336,140.18717149994336,140.18717149994336,140.18717149994336,140.18717149994336,140.18717149994336,140.18717149994336,140.18717149994336,22,1,[0.21702459990046918],[0.23386839986778796],140.18717149994336,140.3874490999151,6.1,140.3874490999151,1,6.1,1,1,1000,num_4,1.0380830999929458,,34,13,2026-03-13_11h13.00.674,2026A_exp2,2022.2.4,59.92954681852543,
1000,1,0.0,6.1,0,0,35,35,61,,,,,141.455132199917,142.10572829982266,142.10572829982266,142.59043759992346,315,45,142.59043759992346,142.59043759992346,142.59043759992346,142.59043759992346,142.59043759992346,142.59043759992346,142.59043759992346,142.59043759992346,142.59043759992346,142.95670719980262,142.95670719980262,142.95670719980262,142.95670719980262,142.95670719980262,142.95670719980262,142.95670719980262,142.95670719980262,142.95670719980262,23,0,,,142.95670719980262,143.15826799999923,1000,143.15826799999923,1000,1000,1000,1000,1,num_2,0.4753513000905514,,34,13,2026-03-13_11h13.00.674,2026A_exp2,2022.2.4,59.92954681852543,
1000,1,0.0,0.0,0,0,36,36,57,,,,,143.65719920000993,144.30785769992508,144.30785769992508,144.80899950000457,315,315,144.80899950000457,144.80899950000457,144.80899950000457,144.80899950000457,144.80899950000457,144.80899950000457,144.80899950000457,144.80899950000457,144.80899950000457,145.17553369980305,145.17553369980305,145.17553369980305,145.17553369980305,145.17553369980305,145.17553369980305,145.17553369980305,145.17553369980305,145.17553369980305,22,1,[0.3004994001239538],[0.3171421999577433],145.17553369980305,145.37745399982668,1000,145.37745399982668,1000,1000,1000,1000,1,num_2,0.5435687000863254,,34,13,2026-03-13_11h13.00.674,2026A_exp2,2022.2.4,59.92954681852543,
1000,1,0.0,6.1,0,0,37,37,16,,,,,145.94296409981325,146.59363599983044,146.59363599983044,147.0947576998733,45,45,147.0947576998733,147.0947576998733,147.0947576998733,147.0947576998733,147.0947576998733,147.0947576998733,147.0947576998733,147.0947576998733,147.0947576998733,147.4610636997968,147.4610636997968,147.4610636997968,147.4610636997968,147.4610636997968,147.4610636997968,147.4610636997968,147.4610636997968,147.4610636997968,23,0,,,147.4610636997968,147.6613111998886,1000,147.6613111998886,1000,1000,1000,1000,1,num_2,0.6032914000097662,,34,13,2026-03-13_11h13.00.674,2026A_exp2,2022.2.4,59.92954681852543,
1,0,6.1,0.0,1,0,38,38,17,,,,,148.29520659986883,148.9458314999938,148.9458314999938,149.44694960000925,315,315,149.44694960000925,149.44694960000925,149.44694960000925,149.44694960000925,149.44694960000925,149.44694960000925,149.44694960000925,149.44694960000925,149.44694960000925,149.79676950001158,149.79676950001158,149.79676950001158,149.79676950001158,149.79676950001158,149.79676950001158,149.79676950001158,149.79676950001158,149.79676950001158,22,0,,,149.79676950001158,150.00545979989693,0.0,150.00545979989693,1,0.0,0,0,1000,num_4,1.5071882002521306,,34,13,2026-03-13_11h13.00.674,2026A_exp2,2022.2.4,59.92954681852543,
1000,1,0.0,6.1,1,0,39,39,74,,,,,151.53182789986022,152.18235289980657,152.18235289980657,152.667019699933,315,315,152.667019699933,152.667019699933,152.667019699933,152.667019699933,152.667019699933,152.667019699933,152.667019699933,152.667019699933,152.667019699933,153.03352059982717,153.03352059982717,153.03352059982717,153.03352059982717,153.03352059982717,153.03352059982717,153.03352059982717,153.03352059982717,153.03352059982717,23,0,,,153.03352059982717,153.23526559979655,1000,153.23526559979655,1000,1000,1000,1000,1,num_2,0.6133546000346541,,34,13,2026-03-13_11h13.00.674,2026A_exp2,2022.2.4,59.92954681852543,
1,0,0.0,6.1,1,0,40,40,19,,,,,153.86746499990113,154.51833859994076,154.51833859994076,155.01922029978596,45,315,155.01922029978596,155.01922029978596,155.01922029978596,155.01922029978596,155.01922029978596,155.01922029978596,155.01922029978596,155.01922029978596,155.01922029978596,155.3857712999452,155.3857712999452,155.3857712999452,155.3857712999452,155.3857712999452,155.3857712999452,155.3857712999452,155.3857712999452,155.3857712999452,23,0,,,155.3857712999452,155.58602169994265,6.1,155.58602169994265,1,6.1,1,1,1000,num_4,0.8398282001726329,,34,13,2026-03-13_11h13.00.674,2026A_exp2,2022.2.4,59.92954681852543,
0,0,6.1,0.0,1,0,41,41,25,,,,,156.45349929993972,157.0875450000167,157.0875450000167,157.58856569998898,315,45,157.58856569998898,157.58856569998898,157.58856569998898,157.58856569998898,157.58856569998898,157.58856569998898,157.58856569998898,157.58856569998898,157.58856569998898,157.95498179993592,157.95498179993592,157.95498179993592,157.95498179993592,157.95498179993592,157.95498179993592,157.95498179993592,157.95498179993592,157.95498179993592,23,0,,,157.95498179993592,158.15509769995697,6.1,158.15509769995697,1,6.1,1,1,1000,num_4,3.6454940002877265,,34,13,2026-03-13_11h13.00.674,2026A_exp2,2022.2.4,59.92954681852543,
1000,1,0.0,0.0,0,0,42,42,65,,,,,161.82540089986287,162.476085399976,162.476085399976,162.96051669982262,45,315,162.96051669982262,162.96051669982262,162.96051669982262,162.96051669982262,162.96051669982262,162.96051669982262,162.96051669982262,162.96051669982262,162.96051669982262,163.32689959998243,163.32689959998243,163.32689959998243,163.32689959998243,163.32689959998243,163.32689959998243,163.32689959998243,163.32689959998243,163.32689959998243,22,1,[0.15063829999417067],[0.1675348998978734],163.32689959998243,163.52885359991342,1000,163.52885359991342,1000,1000,1000,1000,1,num_2,0.7437215002719313,,34,13,2026-03-13_11h13.00.674,2026A_exp2,2022.2.4,59.92954681852543,
1,0,0.0,4.9,1,0,43,43,54,,,,,164.29447590000927,164.94529319996946,164.94529319996946,165.44646619982086,45,45,165.44646619982086,165.44646619982086,165.44646619982086,165.44646619982086,165.44646619982086,165.44646619982086,165.44646619982086,165.44646619982086,165.44646619982086,165.79619669984095,165.79619669984095,165.79619669984095,165.79619669984095,165.79619669984095,165.79619669984095,165.79619669984095,165.79619669984095,165.79619669984095,22,0,,,165.79619669984095,165.9963094999548,4.9,165.9963094999548,1,4.9,1,1,1000,num_4,0.6132504001725465,,34,13,2026-03-13_11h13.00.674,2026A_exp2,2022.2.4,59.92954681852543,
1,0,0.0,0.0,1,0,44,44,83,,,,,166.63013820000924,167.28082599979825,167.28082599979825,167.76547300000675,315,315,167.76547300000675,167.76547300000675,167.76547300000675,167.76547300000675,167.76547300000675,167.76547300000675,167.76547300000675,167.76547300000675,167.76547300000675,168.1317871999927,168.1317871999927,168.1317871999927,168.1317871999927,168.1317871999927,168.1317871999927,168.1317871999927,168.1317871999927,168.1317871999927,23,0,,,168.1317871999927,168.3320208999794,0.0,168.3320208999794,1,0.0,0,0,1000,num_4,0.716897200094536,,34,13,2026-03-13_11h13.00.674,2026A_exp2,2022.2.4,59.92954681852543,
1000,1,0.0,0.0,0,0,45,45,7,,,,,169.06632789992727,169.70026359986514,169.70026359986514,170.20117409992963,315,45,170.20117409992963,170.20117409992963,170.20117409992963,170.20117409992963,170.20117409992963,170.20117409992963,170.20117409992963,170.20117409992963,170.20117409992963,170.56758759985678,170.56758759985678,170.56758759985678,170.56758759985678,170.56758759985678,170.56758759985678,170.56758759985678,170.56758759985678,170.56758759985678,23,0,,,170.56758759985678,170.76968219992705,1000,170.76968219992705,1000,1000,1000,1000,1,num_2,0.5752741002943367,,34,13,2026-03-13_11h13.00.674,2026A_exp2,2022.2.4,59.92954681852543,
0,0,0.0,3.7,1,0,46,46,53,,,,,171.36837289994583,172.01902619982138,172.01902619982138,172.52020549983718,45,45,172.52020549983718,172.52020549983718,172.52020549983718,172.52020549983718,172.52020549983718,172.52020549983718,172.52020549983718,172.52020549983718,172.52020549983718,172.88659569993615,172.88659569993615,172.88659569993615,172.88659569993615,172.88659569993615,172.88659569993615,172.88659569993615,172.88659569993615,172.88659569993615,23,0,,,172.88659569993615,173.08670709980652,0.0,173.08670709980652,1,0.0,0,0,1000,num_4,1.4177380001638085,,34,13,2026-03-13_11h13.00.674,2026A_exp2,2022.2.4,59.92954681852543,
1,0,3.7,6.1,1,0,47,47,68,,,,,174.5214527999051,175.1721463999711,175.1721463999711,175.65669379988685,315,45,175.65669379988685,175.65669379988685,175.65669379988685,175.65669379988685,175.65669379988685,175.65669379988685,175.65669379988685,175.65669379988685,175.65669379988685,176.0230894999113,176.0230894999113,176.0230894999113,176.0230894999113,176.0230894999113,176.0230894999113,176.0230894999113,176.0230894999113,176.0230894999113,23,0,,,176.0230894999113,176.2232072998304,6.1,176.2232072998304,1,6.1,1,1,1000,num_4,0.49752179998904467,,34,13,2026-03-13_11h13.00.674,2026A_exp2,2022.2.4,59.92954681852543,
1000,1,0.0,3.7,1,0,48,48,4,,,,,176.74038149998523,177.37428250000812,177.37428250000812,177.87554519996047,315,45,177.87554519996047,177.87554519996047,177.87554519996047,177.87554519996047,177.87554519996047,177.87554519996047,177.87554519996047,177.87554519996047,177.87554519996047,178.24195709987544,178.24195709987544,178.24195709987544,178.24195709987544,178.24195709987544,178.24195709987544,178.24195709987544,178.24195709987544,178.24195709987544,23,0,,,178.24195709987544,178.44422249984927,1000,178.44422249984927,1000,1000,1000,1000,1,num_2,1.1972860000096262,,34,13,2026-03-13_11h13.00.674,2026A_exp2,2022.2.4,59.92954681852543,
1,0,0.0,0.0,1,0,49,49,6,,,,,179.65991739998572,180.31059809983708,180.31059809983708,180.81185069982894,45,315,180.81185069982894,180.81185069982894,180.81185069982894,180.81185069982894,180.81185069982894,180.81185069982894,180.81185069982894,180.81185069982894,180.81185069982894,181.17794279986992,181.17794279986992,181.17794279986992,181.17794279986992,181.17794279986992,181.17794279986992,181.17794279986992,181.17794279986992,181.17794279986992,23,0,,,181.17794279986992,181.37834519986063,0.0,181.37834519986063,1,0.0,0,0,1000,num_4,0.6460016001947224,,34,13,2026-03-13_11h13.00.674,2026A_exp2,2022.2.4,59.92954681852543,
1,0,0.0,4.9,0,0,50,50,70,,,,,182.04593079979531,182.67970539978705,182.67970539978705,183.18084169994108,315,315,183.18084169994108,183.18084169994108,183.18084169994108,183.18084169994108,183.18084169994108,183.18084169994108,183.18084169994108,183.18084169994108,183.18084169994108,183.54707279987633,183.54707279987633,183.54707279987633,183.54707279987633,183.54707279987633,183.54707279987633,183.54707279987633,183.54707279987633,183.54707279987633,23,0,,,183.54707279987633,183.74746340001002,0.0,183.74746340001002,0,0.0,0,1,1000,num_1,0.8300920003093779,,34,13,2026-03-13_11h13.00.674,2026A_exp2,2022.2.4,59.92954681852543,
1000,1,0.0,3.7,0,0,51,51,23,,,,,184.59815029986203,185.24897969979793,185.24897969979793,185.73333640000783,315,315,185.73333640000783,185.73333640000783,185.73333640000783,185.73333640000783,185.73333640000783,185.73333640000783,185.73333640000783,185.73333640000783,185.73333640000783,186.09981889999472,186.09981889999472,186.09981889999472,186.09981889999472,186.09981889999472,186.09981889999472,186.09981889999472,186.09981889999472,186.09981889999472,23,0,,,186.09981889999472,186.29985750000924,1000,186.29985750000924,1000,1000,1000,1000,1,num_2,0.5406778999604285,,34,13,2026-03-13_11h13.00.674,2026A_exp2,2022.2.4,59.92954681852543,
1000,1,3.7,0.0,0,0,52,52,35,,,,,186.86739969998598,187.51796119986102,187.51796119986102,188.0188666000031,45,315,188.0188666000031,188.0188666000031,188.0188666000031,188.0188666000031,188.0188666000031,188.0188666000031,188.0188666000031,188.0188666000031,188.0188666000031,188.3854260998778,188.3854260998778,188.3854260998778,188.3854260998778,188.3854260998778,188.3854260998778,188.3854260998778,188.3854260998778,188.3854260998778,23,0,,,188.3854260998778,188.587130199885,1000,188.587130199885,1000,1000,1000,1000,1,num_2,0.5021669999696314,,34,13,2026-03-13_11h13.00.674,2026A_exp2,2022.2.4,59.92954681852543,
0,0,3.7,0.0,1,0,53,53,1,,,,,189.11949649988674,189.77015260001644,189.77015260001644,190.2711820998229,45,45,190.2711820998229,190.2711820998229,190.2711820998229,190.2711820998229,190.2711820998229,190.2711820998229,190.2711820998229,190.2711820998229,190.2711820998229,190.6376091998536,190.6376091998536,190.6376091998536,190.6376091998536,190.6376091998536,190.6376091998536,190.6376091998536,190.6376091998536,190.6376091998536,23,0,,,190.6376091998536,190.83791579981335,3.7,190.83791579981335,0,3.7,1,0,1000,num_1,0.9465672001242638,,34,13,2026-03-13_11h13.00.674,2026A_exp2,2022.2.4,59.92954681852543,
1000,1,0.0,6.1,0,0,54,54,20,,,,,191.80524959997274,192.45599409984425,192.45599409984425,192.95723619987257,45,315,192.95723619987257,192.95723619987257,192.95723619987257,192.95723619987257,192.95723619987257,192.95723619987257,192.95723619987257,192.95723619987257,192.95723619987257,193.32344529987313,193.32344529987313,193.32344529987313,193.32344529987313,193.32344529987313,193.32344529987313,193.32344529987313,193.32344529987313,193.32344529987313,23,0,,,193.32344529987313,193.52563729998656,1000,193.52563729998656,1000,1000,1000,1000,1,num_2,0.5402697001118213,,34,13,2026-03-13_11h13.00.674,2026A_exp2,2022.2.4,59.92954681852543,
1000,1,6.1,0.0,1,0,55,55,79,,,,,194.09100349992514,194.74183099996299,194.74183099996299,195.24288729997352,315,45,195.24288729997352,195.24288729997352,195.24288729997352,195.24288729997352,195.24288729997352,195.24288729997352,195.24288729997352,195.24288729997352,195.24288729997352,195.6092204998713,195.6092204998713,195.6092204998713,195.6092204998713,195.6092204998713,195.6092204998713,195.6092204998713,195.6092204998713,195.6092204998713,23,0,,,195.6092204998713,195.81133709987625,1000,195.81133709987625,1000,1000,1000,1000,1,num_2,1.3582300001289696,,34,13,2026-03-13_11h13.00.674,2026A_exp2,2022.2.4,59.92954681852543,
1,0,0.0,0.0,1,0,56,56,31,,,,,197.1941018998623,197.84493109979667,197.84493109979667,198.345876700012,45,45,198.345876700012,198.345876700012,198.345876700012,198.345876700012,198.345876700012,198.345876700012,198.345876700012,198.345876700012,198.345876700012,198.71245249989443,198.71245249989443,198.71245249989443,198.71245249989443,198.71245249989443,198.71245249989443,198.71245249989443,198.71245249989443,198.71245249989443,23,0,,,198.71245249989443,198.91256239986978,0.0,198.91256239986978,1,0.0,0,0,1000,num_4,0.9521333000157028,,34,13,2026-03-13_11h13.00.674,2026A_exp2,2022.2.4,59.92954681852543,
0,0,6.1,0.0,0,0,57,57,41,,,,,199.88036449998617,200.53096110001206,200.53096110001206,201.03176419995725,45,315,201.03176419995725,201.03176419995725,201.03176419995725,201.03176419995725,201.03176419995725,201.03176419995725,201.03176419995725,201.03176419995725,201.03176419995725,201.3983186997939,201.3983186997939,201.3983186997939,201.3983186997939,201.3983186997939,201.3983186997939,201.3983186997939,201.3983186997939,201.3983186997939,23,0,,,201.3983186997939,201.59840799984522,0.0,201.59840799984522,1,0.0,0,0,1000,num_4,1.099012600025162,,34,13,2026-03-13_11h13.00.674,2026A_exp2,2022.2.4,59.92954681852543,
1000,1,4.9,0.0,1,0,58,58,12,,,,,202.71612759982236,203.36708389990963,203.36708389990963,203.86816979991272,315,45,203.86816979991272,203.86816979991272,203.86816979991272,203.86816979991272,203.86816979991272,203.86816979991272,203.86816979991272,203.86816979991272,203.86816979991272,204.21784830000252,204.21784830000252,204.21784830000252,204.21784830000252,204.21784830000252,204.21784830000252,204.21784830000252,204.21784830000252,204.21784830000252,22,0,,,204.21784830000252,204.42005599988624,1000,204.42005599988624,1000,1000,1000,1000,1,num_2,0.5737890999298543,,34,13,2026-03-13_11h13.00.674,2026A_exp2,2022.2.4,59.92954681852543,
1000,1,6.1,4.9,0,0,59,59,51,,,,,205.01891679991968,205.66944559989497,205.66944559989497,206.17050309991464,45,315,206.17050309991464,206.17050309991464,206.17050309991464,206.17050309991464,206.17050309991464,206.17050309991464,206.17050309991464,206.17050309991464,206.17050309991464,206.53684989991598,206.53684989991598,206.53684989991598,206.53684989991598,206.53684989991598,206.53684989991598,206.53684989991598,206.53684989991598,206.53684989991598,23,0,,,206.53684989991598,206.7393678999506,1000,206.7393678999506,1000,1000,1000,1000,1,num_2,0.48525950009934604,,34,13,2026-03-13_11h13.00.674,2026A_exp2,2022.2.4,59.92954681852543,
1000,1,6.1,0.0,0,0,60,60,27,,,,,207.2541809999384,207.9048454000149,207.9048454000149,208.4061068999581,45,315,208.4061068999581,208.4061068999581,208.4061068999581,208.4061068999581,208.4061068999581,208.4061068999581,208.4061068999581,208.4061068999581,208.4061068999581,208.77247540000826,208.77247540000826,208.77247540000826,208.77247540000826,208.77247540000826,208.77247540000826,208.77247540000826,208.77247540000826,208.77247540000826,23,0,,,208.77247540000826,208.97480889991857,1000,208.97480889991857,1000,1000,1000,1000,1,num_2,0.5382770001888275,,34,13,2026-03-13_11h13.00.674,2026A_exp2,2022.2.4,59.92954681852543,
1000,1,0.0,3.7,0,0,61,61,43,,,,,209.5397979998961,210.20129309990443,210.20129309990443,210.691687699873,45,45,210.691687699873,210.691687699873,210.691687699873,210.691687699873,210.691687699873,210.691687699873,210.691687699873,210.691687699873,210.691687699873,211.0414483998902,211.0414483998902,211.0414483998902,211.0414483998902,211.0414483998902,211.0414483998902,211.0414483998902,211.0414483998902,211.0414483998902,22,0,,,211.0414483998902,211.24344270001166,1000,211.2582672999706,1000,1000,1000,1000,1,num_2,0.42243449995294213,,34,13,2026-03-13_11h13.00.674,2026A_exp2,2022.2.4,59.92954681852543,
1000,1,0.0,0.0,1,0,62,62,2,,,,,211.70884269988164,212.35931440000422,212.35931440000422,212.86042429995723,45,45,212.86042429995723,212.86042429995723,212.86042429995723,212.86042429995723,212.86042429995723,212.86042429995723,212.86042429995723,212.86042429995723,212.86042429995723,213.21020479989238,213.21020479989238,213.21020479989238,213.21020479989238,213.21020479989238,213.21020479989238,213.21020479989238,213.21020479989238,213.21020479989238,22,0,,,213.21020479989238,213.41198559990153,1000,213.41198559990153,1000,1000,1000,1000,1,num_2,0.5254357999656349,,34,13,2026-03-13_11h13.00.674,2026A_exp2,2022.2.4,59.92954681852543,
1000,1,0.0,0.0,0,0,63,63,45,,,,,213.96094179991633,214.61164359981194,214.61164359981194,215.1127792999614,315,45,215.1127792999614,215.1127792999614,215.1127792999614,215.1127792999614,215.1127792999614,215.1127792999614,215.1127792999614,215.1127792999614,215.1127792999614,215.47913519991562,215.47913519991562,215.47913519991562,215.47913519991562,215.47913519991562,215.47913519991562,215.47913519991562,215.47913519991562,215.47913519991562,22,1,[0.3170733000151813],[0.3338981999550015],215.47913519991562,215.6810092998203,1000,215.6810092998203,1000,1000,1000,1000,1,num_2,0.4885752000845969,,34,13,2026-03-13_11h13.00.674,2026A_exp2,2022.2.4,59.92954681852543,
1,0,0.0,6.1,0,0,64,64,24,,,,,216.19642739999108,216.84710699995048,216.84710699995048,217.34819009993225,45,45,217.34819009993225,217.34819009993225,217.34819009993225,217.34819009993225,217.34819009993225,217.34819009993225,217.34819009993225,217.34819009993225,217.34819009993225,217.69804859999567,217.69804859999567,217.69804859999567,217.69804859999567,217.69804859999567,217.69804859999567,217.69804859999567,217.69804859999567,217.69804859999567,22,0,,,217.69804859999567,217.89825049997307,0.0,217.89825049997307,0,0.0,0,1,1000,num_1,0.7112491000443697,,34,13,2026-03-13_11h13.00.674,2026A_exp2,2022.2.4,59.92954681852543,
1000,1,3.7,0.0,0,0,65,65,86,,,,,218.6323469998315,219.28301979997195,219.28301979997195,219.7673214999959,315,45,219.7673214999959,219.7673214999959,219.7673214999959,219.7673214999959,219.7673214999959,219.7673214999959,219.7673214999959,219.7673214999959,219.7673214999959,220.13387719984166,220.13387719984166,220.13387719984166,220.13387719984166,220.13387719984166,220.13387719984166,220.13387719984166,220.13387719984166,220.13387719984166,23,0,,,220.13387719984166,220.33595879981294,1000,220.33595879981294,1000,1000,1000,1000,1,num_2,0.5528037000913173,,34,13,2026-03-13_11h13.00.674,2026A_exp2,2022.2.4,59.92954681852543,
1000,1,0.0,6.1,1,0,66,66,13,,,,,220.91805959981866,221.56854229979217,221.56854229979217,222.0697398998309,45,315,222.0697398998309,222.0697398998309,222.0697398998309,222.0697398998309,222.0697398998309,222.0697398998309,222.0697398998309,222.0697398998309,222.0697398998309,222.4359949999489,222.4359949999489,222.4359949999489,222.4359949999489,222.4359949999489,222.4359949999489,222.4359949999489,222.4359949999489,222.4359949999489,23,0,,,222.4359949999489,222.63642230001278,1000,222.63642230001278,1000,1000,1000,1000,1,num_2,0.3893937999382615,,34,13,2026-03-13_11h13.00.674,2026A_exp2,2022.2.4,59.92954681852543,
1,0,0.0,0.0,1,0,67,67,33,,,,,223.05325689981692,223.7039639998693,223.7039639998693,224.20521219982766,315,315,224.20521219982766,224.20521219982766,224.20521219982766,224.20521219982766,224.20521219982766,224.20521219982766,224.20521219982766,224.20521219982766,224.20521219982766,224.57156529999338,224.57156529999338,224.57156529999338,224.57156529999338,224.57156529999338,224.57156529999338,224.57156529999338,224.57156529999338,224.57156529999338,23,0,,,224.57156529999338,224.77174469991587,0.0,224.77174469991587,1,0.0,0,0,1000,num_4,0.7734583001583815,,34,13,2026-03-13_11h13.00.674,2026A_exp2,2022.2.4,59.92954681852543,
1,0,0.0,0.0,0,0,68,68,87,,,,,225.5724344998598,226.22314799996093,226.22314799996093,226.70749299996532,45,45,226.70749299996532,226.70749299996532,226.70749299996532,226.70749299996532,226.70749299996532,226.70749299996532,226.70749299996532,226.70749299996532,226.70749299996532,227.07392179989256,227.07392179989256,227.07392179989256,227.07392179989256,227.07392179989256,227.07392179989256,227.07392179989256,227.07392179989256,227.07392179989256,21,1,[0.21709599997848272],[0.23365910002030432],227.07392179989256,227.27418039995246,0.0,227.27418039995246,0,0.0,0,1,1000,num_1,0.6147859001066536,,34,13,2026-03-13_11h13.00.674,2026A_exp2,2022.2.4,59.92954681852543,
1000,1,0.0,0.0,0,0,69,69,89,,,,,227.90815299982205,228.5590055999346,228.5590055999346,229.0433484998066,315,45,229.0433484998066,229.0433484998066,229.0433484998066,229.0433484998066,229.0433484998066,229.0433484998066,229.0433484998066,229.0433484998066,229.0433484998066,229.40977709996514,229.40977709996514,229.40977709996514,229.40977709996514,229.40977709996514,229.40977709996514,229.40977709996514,229.40977709996514,229.40977709996514,22,1,[0.2837833999656141],[0.3003885999787599],229.40977709996514,229.61165879992768,1000,229.61165879992768,1000,1000,1000,1000,1,num_2,0.49402190023101866,,34,13,2026-03-13_11h13.00.674,2026A_exp2,2022.2.4,59.92954681852543,
1,0,3.7,0.0,0,0,70,70,26,,,,,230.12702029990032,230.7778484998271,230.7778484998271,231.27884549996816,45,45,231.27884549996816,231.27884549996816,231.27884549996816,231.27884549996816,231.27884549996816,231.27884549996816,231.27884549996816,231.27884549996816,231.27884549996816,231.6451927998569,231.6451927998569,231.6451927998569,231.6451927998569,231.6451927998569,231.6451927998569,231.6451927998569,231.6451927998569,231.6451927998569,23,0,,,231.6451927998569,231.84559849998914,3.7,231.84559849998914,0,3.7,1,0,1000,num_1,0.5636348000261933,,34,13,2026-03-13_11h13.00.674,2026A_exp2,2022.2.4,59.92954681852543,
1000,1,3.7,4.9,1,0,71,71,71,,,,,232.42928969999775,233.08015489997342,233.08015489997342,233.5644745999016,315,315,233.5644745999016,233.5644745999016,233.5644745999016,233.5644745999016,233.5644745999016,233.5644745999016,233.5644745999016,233.5644745999016,233.5644745999016,233.9309450997971,233.9309450997971,233.9309450997971,233.9309450997971,233.9309450997971,233.9309450997971,233.9309450997971,233.9309450997971,233.9309450997971,23,0,,,233.9309450997971,234.13321459991857,1000,234.13321459991857,1000,1000,1000,1000,1,num_2,0.5553315000142902,,34,13,2026-03-13_11h13.00.674,2026A_exp2,2022.2.4,59.92954681852543,
1000,1,0.0,3.7,0,0,72,72,63,,,,,234.71523329988122,235.34910379978828,235.34910379978828,235.85009309998713,45,45,235.85009309998713,235.85009309998713,235.85009309998713,235.85009309998713,235.85009309998713,235.85009309998713,235.85009309998713,235.85009309998713,235.85009309998713,236.21651579998434,236.21651579998434,236.21651579998434,236.21651579998434,236.21651579998434,236.21651579998434,236.21651579998434,236.21651579998434,236.21651579998434,23,0,,,236.21651579998434,236.41908669983968,1000,236.41908669983968,1000,1000,1000,1000,1,num_2,0.4536161001306027,,34,13,2026-03-13_11h13.00.674,2026A_exp2,2022.2.4,59.92954681852543,
1000,1,3.7,6.1,1,0,73,73,75,,,,,236.90048589999788,237.55126490001567,237.55126490001567,238.0523156998679,45,315,238.0523156998679,238.0523156998679,238.0523156998679,238.0523156998679,238.0523156998679,238.0523156998679,238.0523156998679,238.0523156998679,238.0523156998679,238.4186668000184,238.4186668000184,238.4186668000184,238.4186668000184,238.4186668000184,238.4186668000184,238.4186668000184,238.4186668000184,238.4186668000184,23,0,,,238.4186668000184,238.6207986997906,1000,238.6207986997906,1000,1000,1000,1000,1,num_2,0.9727747000288218,,34,13,2026-03-13_11h13.00.674,2026A_exp2,2022.2.4,59.92954681852543,
1000,1,4.9,3.7,0,0,74,74,28,,,,,239.61999379983172,240.2705081999302,240.2705081999302,240.7718273999635,315,45,240.7718273999635,240.7718273999635,240.7718273999635,240.7718273999635,240.7718273999635,240.7718273999635,240.7718273999635,240.7718273999635,240.7718273999635,241.12148909992538,241.12148909992538,241.12148909992538,241.12148909992538,241.12148909992538,241.12148909992538,241.12148909992538,241.12148909992538,241.12148909992538,20,1,[0.283700899919495],[0.31719659990631044],241.12148909992538,241.3236093998421,1000,241.338571799919,1000,1000,1000,1000,1,num_2,0.5272705003153533,,34,13,2026-03-13_11h13.00.674,2026A_exp2,2022.2.4,59.92954681852543,
1000,1,4.9,3.7,1,0,75,75,78,,,,,241.88898339984007,242.53951309993863,242.53951309993863,243.04070049989969,315,45,243.04070049989969,243.04070049989969,243.04070049989969,243.04070049989969,243.04070049989969,243.04070049989969,243.04070049989969,243.04070049989969,243.04070049989969,243.4070664998144,243.4070664998144,243.4070664998144,243.4070664998144,243.4070664998144,243.4070664998144,243.4070664998144,243.4070664998144,243.4070664998144,23,0,,,243.4070664998144,243.6089076998178,1000,243.6089076998178,1000,1000,1000,1000,1,num_2,0.5524166002869606,,34,13,2026-03-13_11h13.00.674,2026A_exp2,2022.2.4,59.92954681852543,
1000,1,6.1,0.0,0,0,76,76,58,,,,,244.19108839984983,244.84191339998506,244.84191339998506,245.3430096998345,315,315,245.3430096998345,245.3430096998345,245.3430096998345,245.3430096998345,245.3430096998345,245.3430096998345,245.3430096998345,245.3430096998345,245.3430096998345,245.69268849981017,245.69268849981017,245.69268849981017,245.69268849981017,245.69268849981017,245.69268849981017,245.69268849981017,245.69268849981017,245.69268849981017,22,0,,,245.69268849981017,245.89483969984576,1000,245.90964489988983,1000,1000,1000,1000,1,num_2,0.5152698000892997,,34,13,2026-03-13_11h13.00.674,2026A_exp2,2022.2.4,59.92954681852543,
0,0,4.9,0.0,0,0,77,77,40,,,,,246.4433047999628,247.09385369997472,247.09385369997472,247.59528080001473,315,45,247.59528080001473,247.59528080001473,247.59528080001473,247.59528080001473,247.59528080001473,247.59528080001473,247.59528080001473,247.59528080001473,247.59528080001473,247.96165689988993,247.96165689988993,247.96165689988993,247.96165689988993,247.96165689988993,247.96165689988993,247.96165689988993,247.96165689988993,247.96165689988993,23,0,,,247.96165689988993,248.16184199997224,0.0,248.16184199997224,0,0.0,0,1,1000,num_1,0.7267643001396209,,34,13,2026-03-13_11h13.00.674,2026A_exp2,2022.2.4,59.92954681852543,
1,0,4.9,6.1,0,0,78,78,82,,,,,248.9124276000075,249.5632287999615,249.5632287999615,250.04770859982818,45,45,250.04770859982818,250.04770859982818,250.04770859982818,250.04770859982818,250.04770859982818,250.04770859982818,250.04770859982818,250.04770859982818,250.04770859982818,250.41426699981093,250.41426699981093,250.41426699981093,250.41426699981093,250.41426699981093,250.41426699981093,250.41426699981093,250.41426699981093,250.41426699981093,22,1,[0.13368249987252057],[0.15038869995623827],250.41426699981093,250.6236964999698,4.9,250.6236964999698,1,4.9,1,1,1000,num_4,0.8568687001243234,,34,13,2026-03-13_11h13.00.674,2026A_exp2,2022.2.4,59.92954681852543,
1,0,0.0,4.9,0,0,79,79,14,,,,,251.498477099929,252.14899999997579,252.14899999997579,252.65006389981136,315,315,252.65006389981136,252.65006389981136,252.65006389981136,252.65006389981136,252.65006389981136,252.65006389981136,252.65006389981136,252.65006389981136,252.65006389981136,253.01659379992634,253.01659379992634,253.01659379992634,253.01659379992634,253.01659379992634,253.01659379992634,253.01659379992634,253.01659379992634,253.01659379992634,23,0,,,253.01659379992634,253.21675139991567,0.0,253.21675139991567,1,0.0,0,0,1000,num_4,0.7612061002291739,,34,13,2026-03-13_11h13.00.674,2026A_exp2,2022.2.4,59.92954681852543,
1000,1,3.7,0.0,0,0,80,80,39,,,,,254.0011481998954,254.65169400000013,254.65169400000013,255.1526758999098,315,45,255.1526758999098,255.1526758999098,255.1526758999098,255.1526758999098,255.1526758999098,255.1526758999098,255.1526758999098,255.1526758999098,255.1526758999098,255.51919119991362,255.51919119991362,255.51919119991362,255.51919119991362,255.51919119991362,255.51919119991362,255.51919119991362,255.51919119991362,255.51919119991362,23,0,,,255.51919119991362,255.72110879980028,1000,255.72110879980028,1000,1000,1000,1000,0,num_3,0.9118319000117481,,34,13,2026-03-13_11h13.00.674,2026A_exp2,2022.2.4,59.92954681852543,
1000,1,0.0,0.0,0,0,81,81,72,,,,,256.6535914998967,257.3042965999339,257.3042965999339,257.8052470998373,315,45,257.8052470998373,257.8052470998373,257.8052470998373,257.8052470998373,257.8052470998373,257.8052470998373,257.8052470998373,257.8052470998373,257.8052470998373,258.1718448000029,258.1718448000029,258.1718448000029,258.1718448000029,258.1718448000029,258.1718448000029,258.1718448000029,258.1718448000029,258.1718448000029,23,0,,,258.1718448000029,258.37375849997625,1000,258.37375849997625,1000,1000,1000,1000,0,num_3,0.6354287001304328,,34,13,2026-03-13_11h13.00.674,2026A_exp2,2022.2.4,59.92954681852543,
1000,1,6.1,3.7,1,0,82,82,11,,,,,259.03926489991136,259.68997869989835,259.68997869989835,260.19117120001465,315,315,260.19117120001465,260.19117120001465,260.19117120001465,260.19117120001465,260.19117120001465,260.19117120001465,260.19117120001465,260.19117120001465,260.19117120001465,260.54100739979185,260.54100739979185,260.54100739979185,260.54100739979185,260.54100739979185,260.54100739979185,260.54100739979185,260.54100739979185,260.54100739979185,22,0,,,260.54100739979185,260.7429586998187,1000,260.7429586998187,1000,1000,1000,1000,1,num_2,0.7382162001449615,,34,13,2026-03-13_11h13.00.674,2026A_exp2,2022.2.4,59.92954681852543,
1,0,0.0,4.9,0,0,83,83,32,,,,,261.5083735999651,262.15942309983075,262.15942309983075,262.66029659984633,45,45,262.66029659984633,262.66029659984633,262.66029659984633,262.66029659984633,262.66029659984633,262.66029659984633,262.66029659984633,262.66029659984633,262.66029659984633,263.0100535999518,263.0100535999518,263.0100535999518,263.0100535999518,263.0100535999518,263.0100535999518,263.0100535999518,263.0100535999518,263.0100535999518,22,0,,,263.0100535999518,263.21020769979805,0.0,263.21020769979805,0,0.0,0,1,1000,num_1,0.8061780000571162,,34,13,2026-03-13_11h13.00.674,2026A_exp2,2022.2.4,59.92954681852543,
0,0,0.0,0.0,0,0,84,84,15,,,,,264.0442782000173,264.69497289997526,264.69497289997526,265.1794751000125,45,45,265.1794751000125,265.1794751000125,265.1794751000125,265.1794751000125,265.1794751000125,265.1794751000125,265.1794751000125,265.1794751000125,265.1794751000125,265.5457973999437,265.5457973999437,265.5457973999437,265.5457973999437,265.5457973999437,265.5457973999437,265.5457973999437,265.5457973999437,265.5457973999437,23,0,,,265.5457973999437,265.74587519979104,0.0,265.74587519979104,1,0.0,0,0,1000,num_4,0.7986694001592696,,34,13,2026-03-13_11h13.00.674,2026A_exp2,2022.2.4,59.92954681852543,
1000,1,0.0,4.9,0,0,85,85,8,,,,,266.5635016998276,267.2140943999402,267.2140943999402,267.6986866998486,315,45,267.6986866998486,267.6986866998486,267.6986866998486,267.6986866998486,267.6986866998486,267.6986866998486,267.6986866998486,267.6986866998486,267.6986866998486,268.06512899999507,268.06512899999507,268.06512899999507,268.06512899999507,268.06512899999507,268.06512899999507,268.06512899999507,268.06512899999507,268.06512899999507,23,0,,,268.06512899999507,268.2673759998288,1000,268.2673759998288,1000,1000,1000,1000,1,num_2,0.5497810000088066,,34,13,2026-03-13_11h13.00.674,2026A_exp2,2022.2.4,59.92954681852543,
0,0,4.9,0.0,0,0,86,86,84,,,,,268.83242179988883,269.4830350999255,269.4830350999255,269.98422189988196,45,45,269.98422189988196,269.98422189988196,269.98422189988196,269.98422189988196,269.98422189988196,269.98422189988196,269.98422189988196,269.98422189988196,269.98422189988196,270.3507761999499,270.3507761999499,270.3507761999499,270.3507761999499,270.3507761999499,270.3507761999499,270.3507761999499,270.3507761999499,270.3507761999499,23,0,,,270.3507761999499,270.55078339995816,0.0,270.55078339995816,0,0.0,0,1,1000,num_1,0.5066264001652598,,34,13,2026-03-13_11h13.00.674,2026A_exp2,2022.2.4,59.92954681852543,
1000,1,0.0,0.0,0,0,87,87,62,,,,,271.0848425999284,271.73550159996375,271.73550159996375,272.236900099786,45,45,272.236900099786,272.236900099786,272.236900099786,272.236900099786,272.236900099786,272.236900099786,272.236900099786,272.236900099786,272.236900099786,272.5862856998574,272.5862856998574,272.5862856998574,272.5862856998574,272.5862856998574,272.5862856998574,272.5862856998574,272.5862856998574,272.5862856998574,23,0,,,272.5862856998574,272.78835029993206,1000,272.78835029993206,1000,1000,1000,1000,1,num_2,0.3968817002605647,,34,13,2026-03-13_11h13.00.674,2026A_exp2,2022.2.4,59.92954681852543,
1,0,4.9,0.0,1,0,88,88,34,,,,,273.2037021999713,273.85420579998754,273.85420579998754,274.3553527998738,45,45,274.3553527998738,274.3553527998738,274.3553527998738,274.3553527998738,274.3553527998738,274.3553527998738,274.3553527998738,274.3553527998738,274.3553527998738,274.72175209992565,274.72175209992565,274.72175209992565,274.72175209992565,274.72175209992565,274.72175209992565,274.72175209992565,274.72175209992565,274.72175209992565,21,1,[0.21697200019843876],[0.25035030022263527],274.72175209992565,274.9219582998194,0.0,274.9219582998194,1,0.0,0,0,1000,num_4,0.6717660001013428,,34,13,2026-03-13_11h13.00.674,2026A_exp2,2022.2.4,59.92954681852543,
1000,1,0.0,0.0,0,0,89,89,64,,,,,275.62262439983897,276.27327749994583,276.27327749994583,276.75775199988857,315,45,276.75775199988857,276.75775199988857,276.75775199988857,276.75775199988857,276.75775199988857,276.75775199988857,276.75775199988857,276.75775199988857,276.75775199988857,277.1240345998667,277.1240345998667,277.1240345998667,277.1240345998667,277.1240345998667,277.1240345998667,277.1240345998667,277.1240345998667,277.1240345998667,23,0,,,277.1240345998667,277.3261021999642,1000,277.3261021999642,1000,1000,1000,1000,1,num_2,0.49157750024460256,,34,13,2026-03-13_11h13.00.674,2026A_exp2,2022.2.4,59.92954681852543,
,,,,,,,,,,,,,,,,,,,,,,,,,,,,,,,,,,,,,,,,,,,,,,,,,,,,277.8512932998128,,,,,,,
