validity,detectorcomp,contrastCW,contrastCCW,precueCWorCCW,block_80trials.thisRepN,block_80trials.thisTrialN,block_80trials.thisN,block_80trials.thisIndex,etRecord.started,etRecord.stopped,text.started,text.stopped,text_4.started,text_4.stopped,text_6.started,text_6.stopped,oriCW,oriCCW,roi_2.started,grating_UR.started,grating_UL.started,grating_LR.started,grating_LL.started,noise_UR.started,noise_UL.started,noise_LR.started,noise_LL.started,roi_2.stopped,grating_UR.stopped,grating_UL.stopped,grating_LR.stopped,grating_LL.stopped,noise_UR.stopped,noise_UL.stopped,noise_LR.stopped,noise_LL.stopped,outframe,roi_2.numLooks,roi_2.timesOn,roi_2.timesOff,text_2.started,text_2.stopped,probedcontrast,key_resp.started,respdetect,relevantContrast,correctDetect,TorFdetect,respCWorCCW,key_resp.keys,key_resp.rt,feedback_display_.started,participantNo,blockNo,date,expName,psychopyVersion,frameRate,
1,0,0.0,0.0,1,0,0,0,83,5.870009772479534e-05,5.870009772479534e-05,56.05324769997969,58.05781919998117,58.05781919998117,58.69061389984563,58.69061389984563,59.215661599999294,45,315,59.215661599999294,59.215661599999294,59.215661599999294,59.215661599999294,59.215661599999294,59.215661599999294,59.215661599999294,59.215661599999294,59.215661599999294,59.557554400060326,59.557554400060326,59.557554400060326,59.557554400060326,59.557554400060326,59.557554400060326,59.557554400060326,59.557554400060326,59.557554400060326,23,0,,,59.557554400060326,59.75745919998735,0.0,59.75745919998735,1,0.0,0,0,1000,num_4,0.7918385001830757,,32,13,2026-03-12_16h20.56.176,2026A_exp2,2022.2.4,59.87751457153764,
1000,1,0.0,3.7,0,0,1,1,63,,,,,60.574869399890304,61.225577499950305,61.225577499950305,61.727475399849936,45,45,61.727475399849936,61.727475399849936,61.727475399849936,61.727475399849936,61.727475399849936,61.727475399849936,61.727475399849936,61.727475399849936,61.727475399849936,62.09300439991057,62.09300439991057,62.09300439991057,62.09300439991057,62.09300439991057,62.09300439991057,62.09300439991057,62.09300439991057,62.09300439991057,23,0,,,62.09300439991057,62.29328350001015,1000,62.29328350001015,1000,1000,1000,1000,0,num_3,0.6316444000694901,,32,13,2026-03-12_16h20.56.176,2026A_exp2,2022.2.4,59.87751457153764,
1000,1,0.0,6.1,1,0,2,2,13,,,,,62.94409290002659,63.59450909984298,63.59450909984298,64.0801776999142,315,45,64.0801776999142,64.0801776999142,64.0801776999142,64.0801776999142,64.0801776999142,64.0801776999142,64.0801776999142,64.0801776999142,64.0801776999142,64.44548700004816,64.44548700004816,64.44548700004816,64.44548700004816,64.44548700004816,64.44548700004816,64.44548700004816,64.44548700004816,64.44548700004816,5,1,[0.0008280000183731318],[0.29891030001454055],64.44548700004816,64.64580579986796,1000,64.64580579986796,1000,1000,1000,1000,1,num_2,0.42320599989034235,,32,13,2026-03-12_16h20.56.176,2026A_exp2,2022.2.4,59.87751457153764,
1000,1,0.0,0.0,0,0,3,3,65,,,,,65.0965878998395,65.74671759991907,65.74671759991907,66.24773780000396,45,315,66.24773780000396,66.24773780000396,66.24773780000396,66.24773780000396,66.24773780000396,66.24773780000396,66.24773780000396,66.24773780000396,66.24773780000396,66.59790629986674,66.59790629986674,66.59790629986674,66.59790629986674,66.59790629986674,66.59790629986674,66.59790629986674,66.59790629986674,66.59790629986674,22,0,,,66.59790629986674,66.7980650998652,1000,66.8148125000298,1000,1000,1000,1000,0,num_3,0.31111739994958043,,32,13,2026-03-12_16h20.56.176,2026A_exp2,2022.2.4,59.87751457153764,
1000,1,0.0,4.9,0,0,4,4,0,,,,,67.14840089995414,67.79882519994862,67.79882519994862,68.29998030001298,315,45,68.29998030001298,68.29998030001298,68.29998030001298,68.29998030001298,68.29998030001298,68.29998030001298,68.29998030001298,68.29998030001298,68.29998030001298,68.64972450002097,68.64972450002097,68.64972450002097,68.64972450002097,68.64972450002097,68.64972450002097,68.64972450002097,68.64972450002097,68.64972450002097,22,0,,,68.64972450002097,68.8499228998553,1000,68.8499228998553,1000,1000,1000,1000,1,num_2,0.35525229992344975,,32,13,2026-03-12_16h20.56.176,2026A_exp2,2022.2.4,59.87751457153764,
1,0,0.0,4.9,0,0,5,5,70,,,,,69.23382009984925,69.88438259996474,69.88438259996474,70.36885369988158,315,315,70.36885369988158,70.36885369988158,70.36885369988158,70.36885369988158,70.36885369988158,70.36885369988158,70.36885369988158,70.36885369988158,70.36885369988158,70.73528219992295,70.73528219992295,70.73528219992295,70.73528219992295,70.73528219992295,70.73528219992295,70.73528219992295,70.73528219992295,70.73528219992295,23,0,,,70.73528219992295,70.93559739994816,0.0,70.93559739994816,0,0.0,0,1,1000,num_1,0.5740026000421494,,32,13,2026-03-12_16h20.56.176,2026A_exp2,2022.2.4,59.87751457153764,
1000,1,3.7,4.9,1,0,6,6,71,,,,,71.53587349993177,72.17024839995429,72.17024839995429,72.67099140002392,315,45,72.67099140002392,72.67099140002392,72.67099140002392,72.67099140002392,72.67099140002392,72.67099140002392,72.67099140002392,72.67099140002392,72.67099140002392,73.03736099996604,73.03736099996604,73.03736099996604,73.03736099996604,73.03736099996604,73.03736099996604,73.03736099996604,73.03736099996604,73.03736099996604,23,0,,,73.03736099996604,73.23765649995767,1000,73.23765649995767,1000,1000,1000,1000,1,num_2,0.367922900011763,,32,13,2026-03-12_16h20.56.176,2026A_exp2,2022.2.4,59.87751457153764,
1,0,4.9,4.9,1,0,7,7,9,,,,,73.62162790005095,74.27202200004831,74.27202200004831,74.77310430002399,315,45,74.77310430002399,74.77310430002399,74.77310430002399,74.77310430002399,74.77310430002399,74.77310430002399,74.77310430002399,74.77310430002399,74.77310430002399,75.12290610000491,75.12290610000491,75.12290610000491,75.12290610000491,75.12290610000491,75.12290610000491,75.12290610000491,75.12290610000491,75.12290610000491,0,1,[0.0007997001521289349],[0.3508715000934899],75.12290610000491,75.32400100002997,4.9,75.32400100002997,1,4.9,1,1,1000,num_4,0.5210382998920977,,32,13,2026-03-12_16h20.56.176,2026A_exp2,2022.2.4,59.87751457153764,
1000,1,0.0,6.1,0,0,8,8,16,,,,,75.87437009997666,76.5075993000064,76.5075993000064,77.00879150000401,45,315,77.00879150000401,77.00879150000401,77.00879150000401,77.00879150000401,77.00879150000401,77.00879150000401,77.00879150000401,77.00879150000401,77.00879150000401,77.37494729994796,77.37494729994796,77.37494729994796,77.37494729994796,77.37494729994796,77.37494729994796,77.37494729994796,77.37494729994796,77.37494729994796,0,1,[0.000950800022110343],[0.367167100077495],77.37494729994796,77.57519129989669,1000,77.57519129989669,1000,1000,1000,1000,1,num_2,0.35779669997282326,,32,13,2026-03-12_16h20.56.176,2026A_exp2,2022.2.4,59.87751457153764,
0,0,6.1,0.0,1,0,9,9,52,,,,,77.95930729992688,78.61010090005584,78.61010090005584,79.11094479984604,315,45,79.11094479984604,79.11094479984604,79.11094479984604,79.11094479984604,79.11094479984604,79.11094479984604,79.11094479984604,79.11094479984604,79.11094479984604,79.47701120004058,79.47701120004058,79.47701120004058,79.47701120004058,79.47701120004058,79.47701120004058,79.47701120004058,79.47701120004058,79.47701120004058,23,0,,,79.47701120004058,79.6773764998652,6.1,79.6773764998652,1,6.1,1,1,1000,num_4,0.5603912998922169,,32,13,2026-03-12_16h20.56.176,2026A_exp2,2022.2.4,59.87751457153764,
1,0,4.9,0.0,0,0,10,10,66,,,,,80.26237919996493,80.91203189990483,80.91203189990483,81.41329080006108,45,45,81.41329080006108,81.41329080006108,81.41329080006108,81.41329080006108,81.41329080006108,81.41329080006108,81.41329080006108,81.41329080006108,81.41329080006108,81.77930369996466,81.77930369996466,81.77930369996466,81.77930369996466,81.77930369996466,81.77930369996466,81.77930369996466,81.77930369996466,81.77930369996466,23,0,,,81.77930369996466,81.98007169994526,4.9,81.98007169994526,1,4.9,1,1,1000,num_4,0.416967700002715,,32,13,2026-03-12_16h20.56.176,2026A_exp2,2022.2.4,59.87751457153764,
1,0,0.0,4.9,0,0,11,11,14,,,,,82.4134082000237,83.04733920004219,83.04733920004219,83.54839769983664,45,45,83.54839769983664,83.54839769983664,83.54839769983664,83.54839769983664,83.54839769983664,83.54839769983664,83.54839769983664,83.54839769983664,83.54839769983664,83.91482429997995,83.91482429997995,83.91482429997995,83.91482429997995,83.91482429997995,83.91482429997995,83.91482429997995,83.91482429997995,83.91482429997995,2,2,"[0.0007223999127745628, 0.1006199000403285]","[0.06693749991245568, 0.3672034000046551]",83.91482429997995,84.11531809996814,0.0,84.11531809996814,0,0.0,0,1,1000,num_1,0.5064206002280116,,32,13,2026-03-12_16h20.56.176,2026A_exp2,2022.2.4,59.87751457153764,
0,0,0.0,0.0,0,0,12,12,15,,,,,84.649122599978,85.2996783000417,85.2996783000417,85.78405010001734,315,45,85.78405010001734,85.78405010001734,85.78405010001734,85.78405010001734,85.78405010001734,85.78405010001734,85.78405010001734,85.78405010001734,85.78405010001734,86.15047849994153,86.15047849994153,86.15047849994153,86.15047849994153,86.15047849994153,86.15047849994153,86.15047849994153,86.15047849994153,86.15047849994153,23,0,,,86.15047849994153,86.35091569996439,0.0,86.35091569996439,1,0.0,0,0,1000,num_4,0.558489500079304,,32,13,2026-03-12_16h20.56.176,2026A_exp2,2022.2.4,59.87751457153764,
1000,1,0.0,6.1,0,0,13,13,61,,,,,86.93468820000999,87.58529159985483,87.58529159985483,88.07007909985259,315,45,88.07007909985259,88.07007909985259,88.07007909985259,88.07007909985259,88.07007909985259,88.07007909985259,88.07007909985259,88.07007909985259,88.07007909985259,88.43609099998139,88.43609099998139,88.43609099998139,88.43609099998139,88.43609099998139,88.43609099998139,88.43609099998139,88.43609099998139,88.43609099998139,21,2,"[0.15072879986837506, 0.3173495999071747]","[0.16720879985950887, 0.3342208999674767]",88.43609099998139,88.63634520000778,1000,88.63634520000778,1000,1000,1000,1000,1,num_2,0.42524360003881156,,32,13,2026-03-12_16h20.56.176,2026A_exp2,2022.2.4,59.87751457153764,
1,0,3.7,6.1,1,0,14,14,68,,,,,89.08702329988591,89.73731860006228,89.73731860006228,90.22186210006475,315,45,90.22186210006475,90.22186210006475,90.22186210006475,90.22186210006475,90.22186210006475,90.22186210006475,90.22186210006475,90.22186210006475,90.22186210006475,90.58813689998351,90.58813689998351,90.58813689998351,90.58813689998351,90.58813689998351,90.58813689998351,90.58813689998351,90.58813689998351,90.58813689998351,23,0,,,90.58813689998351,90.78848310001194,6.1,90.78848310001194,1,6.1,1,1,1000,num_4,0.48070780001580715,,32,13,2026-03-12_16h20.56.176,2026A_exp2,2022.2.4,59.87751457153764,
1,0,0.0,6.1,1,0,15,15,46,,,,,91.28921029996127,91.9397658999078,91.9397658999078,92.42402229993604,315,315,92.42402229993604,92.42402229993604,92.42402229993604,92.42402229993604,92.42402229993604,92.42402229993604,92.42402229993604,92.42402229993604,92.42402229993604,92.79062850004993,92.79062850004993,92.79062850004993,92.79062850004993,92.79062850004993,92.79062850004993,92.79062850004993,92.79062850004993,92.79062850004993,22,1,[0.20106089999899268],[0.21718610008247197],92.79062850004993,92.99158899998292,6.1,92.99158899998292,1,6.1,1,1,1000,num_4,0.39013809990137815,,32,13,2026-03-12_16h20.56.176,2026A_exp2,2022.2.4,59.87751457153764,
1,0,3.7,0.0,1,0,16,16,30,,,,,93.40785839990713,94.04180709994398,94.04180709994398,94.5431596999988,315,45,94.5431596999988,94.5431596999988,94.5431596999988,94.5431596999988,94.5431596999988,94.5431596999988,94.5431596999988,94.5431596999988,94.5431596999988,94.9093184999656,94.9093184999656,94.9093184999656,94.9093184999656,94.9093184999656,94.9093184999656,94.9093184999656,94.9093184999656,94.9093184999656,23,0,,,94.9093184999656,95.1094781998545,0.0,95.1094781998545,0,0.0,0,1,1000,num_1,0.35973879997618496,,32,13,2026-03-12_16h20.56.176,2026A_exp2,2022.2.4,59.87751457153764,
1000,1,0.0,0.0,1,0,17,17,2,,,,,95.49323490005918,96.12717289989814,96.12717289989814,96.62844530004077,45,315,96.62844530004077,96.62844530004077,96.62844530004077,96.62844530004077,96.62844530004077,96.62844530004077,96.62844530004077,96.62844530004077,96.62844530004077,96.99465600005351,96.99465600005351,96.99465600005351,96.99465600005351,96.99465600005351,96.99465600005351,96.99465600005351,96.99465600005351,96.99465600005351,23,0,,,96.99465600005351,97.19532349985093,1000,97.19532349985093,1000,1000,1000,1000,0,num_3,0.633682600222528,,32,13,2026-03-12_16h20.56.176,2026A_exp2,2022.2.4,59.87751457153764,
1000,1,0.0,0.0,0,0,18,18,62,,,,,97.84565229993314,98.49623159994371,98.49623159994371,98.98061189986765,315,45,98.98061189986765,98.98061189986765,98.98061189986765,98.98061189986765,98.98061189986765,98.98061189986765,98.98061189986765,98.98061189986765,98.98061189986765,99.34720929991454,99.34720929991454,99.34720929991454,99.34720929991454,99.34720929991454,99.34720929991454,99.34720929991454,99.34720929991454,99.34720929991454,21,1,[0.33384259999729693],[0.3675243000034243],99.34720929991454,99.54744969983585,1000,99.54744969983585,1000,1000,1000,1000,0,num_3,0.5373837999068201,,32,13,2026-03-12_16h20.56.176,2026A_exp2,2022.2.4,59.87751457153764,
0,0,4.9,0.0,0,0,19,19,84,,,,,100.11450519994833,100.7657655000221,100.7657655000221,101.24957029987127,315,315,101.24957029987127,101.24957029987127,101.24957029987127,101.24957029987127,101.24957029987127,101.24957029987127,101.24957029987127,101.24957029987127,101.24957029987127,101.61594239994884,101.61594239994884,101.61594239994884,101.61594239994884,101.61594239994884,101.61594239994884,101.61594239994884,101.61594239994884,101.61594239994884,18,2,"[0.133915200131014, 0.21722830017097294]","[0.16697739996016026, 0.26705479994416237]",101.61594239994884,101.81633870000951,0.0,101.81633870000951,0,0.0,0,1,1000,num_1,0.5810587999876589,,32,13,2026-03-12_16h20.56.176,2026A_exp2,2022.2.4,59.87751457153764,
1000,1,6.1,4.9,0,0,20,20,51,,,,,102.4169195999857,103.05085749994032,103.05085749994032,103.55220380006358,45,315,103.55220380006358,103.55220380006358,103.55220380006358,103.55220380006358,103.55220380006358,103.55220380006358,103.55220380006358,103.55220380006358,103.55220380006358,103.91901299986057,103.91901299986057,103.91901299986057,103.91901299986057,103.91901299986057,103.91901299986057,103.91901299986057,103.91901299986057,103.91901299986057,21,2,"[0.233912100084126, 0.3005067999474704]","[0.25042170006781816, 0.3171401000581682]",103.91901299986057,104.11872490006499,1000,104.11872490006499,1000,1000,1000,1000,0,num_3,0.6461676000617445,,32,13,2026-03-12_16h20.56.176,2026A_exp2,2022.2.4,59.87751457153764,
0,0,6.1,0.0,0,0,21,21,41,,,,,104.78593209991232,105.42000419995748,105.42000419995748,105.92100119986571,45,45,105.92100119986571,105.92100119986571,105.92100119986571,105.92100119986571,105.92100119986571,105.92100119986571,105.92100119986571,105.92100119986571,105.92100119986571,106.28757090005092,106.28757090005092,106.28757090005092,106.28757090005092,106.28757090005092,106.28757090005092,106.28757090005092,106.28757090005092,106.28757090005092,0,1,[0.0008990000933408737],[0.3673541999887675],106.28757090005092,106.48744839988649,0.0,106.48744839988649,0,0.0,0,1,1000,num_1,0.5663737000431865,,32,13,2026-03-12_16h20.56.176,2026A_exp2,2022.2.4,59.87751457153764,
0,0,6.1,0.0,1,0,22,22,25,,,,,107.07143069989979,107.70550230005756,107.70550230005756,108.2066516999621,45,315,108.2066516999621,108.2066516999621,108.2066516999621,108.2066516999621,108.2066516999621,108.2066516999621,108.2066516999621,108.2066516999621,108.2066516999621,108.57298289984465,108.57298289984465,108.57298289984465,108.57298289984465,108.57298289984465,108.57298289984465,108.57298289984465,108.57298289984465,108.57298289984465,2,1,[0.033675599843263626],[0.3676383998245001],108.57298289984465,108.77312440006062,6.1,108.77312440006062,1,6.1,1,1,1000,num_4,0.6324000998865813,,32,13,2026-03-12_16h20.56.176,2026A_exp2,2022.2.4,59.87751457153764,
1000,1,0.0,6.1,1,0,23,23,74,,,,,109.42376429983415,110.0577277999837,110.0577277999837,110.55896219983697,315,315,110.55896219983697,110.55896219983697,110.55896219983697,110.55896219983697,110.55896219983697,110.55896219983697,110.55896219983697,110.55896219983697,110.55896219983697,110.92558260005899,110.92558260005899,110.92558260005899,110.92558260005899,110.92558260005899,110.92558260005899,110.92558260005899,110.92558260005899,110.92558260005899,20,2,"[0.0009178998880088329, 0.05044259992428124]","[0.03354969993233681, 0.06681859982199967]",110.92558260005899,111.12577939988114,1000,111.12577939988114,1000,1000,1000,1000,1,num_2,0.5839766999706626,,32,13,2026-03-12_16h20.56.176,2026A_exp2,2022.2.4,59.87751457153764,
1000,1,0.0,3.7,0,0,24,24,43,,,,,111.72622609999962,112.37674009986222,112.37674009986222,112.86159699992277,45,315,112.86159699992277,112.86159699992277,112.86159699992277,112.86159699992277,112.86159699992277,112.86159699992277,112.86159699992277,112.86159699992277,112.86159699992277,113.22769499989226,113.22769499989226,113.22769499989226,113.22769499989226,113.22769499989226,113.22769499989226,113.22769499989226,113.22769499989226,113.22769499989226,15,4,"[0.017618600046262145, 0.13326280005276203, 0.30118590011261404, 0.3672848001588136]","[0.050611100159585476, 0.16670140018686652, 0.35049760015681386, 0.3672877000644803]",113.22769499989226,113.42828979995102,1000,113.42828979995102,1000,1000,1000,1000,0,num_3,2.4806866999715567,,32,13,2026-03-12_16h20.56.176,2026A_exp2,2022.2.4,59.87751457153764,
1000,1,6.1,0.0,0,0,25,25,58,,,,,115.9304986000061,116.58122669998556,116.58122669998556,117.06555909989402,315,315,117.06555909989402,117.06555909989402,117.06555909989402,117.06555909989402,117.06555909989402,117.06555909989402,117.06555909989402,117.06555909989402,117.06555909989402,117.43171789986081,117.43171789986081,117.43171789986081,117.43171789986081,117.43171789986081,117.43171789986081,117.43171789986081,117.43171789986081,117.43171789986081,20,3,"[0.017599300015717745, 0.11681609996594489, 0.31693560001440346]","[0.033892499981448054, 0.13453070004470646, 0.33365299995057285]",117.43171789986081,117.63200980005786,1000,117.63200980005786,1000,1000,1000,1000,0,num_3,0.4134855999145657,,32,13,2026-03-12_16h20.56.176,2026A_exp2,2022.2.4,59.87751457153764,
1000,1,3.7,6.1,1,0,26,26,75,,,,,118.06593209994026,118.71653710003011,118.71653710003011,119.20073290006258,45,45,119.20073290006258,119.20073290006258,119.20073290006258,119.20073290006258,119.20073290006258,119.20073290006258,119.20073290006258,119.20073290006258,119.20073290006258,119.5673360999208,119.5673360999208,119.5673360999208,119.5673360999208,119.5673360999208,119.5673360999208,119.5673360999208,119.5673360999208,119.5673360999208,19,2,"[0.03346380009315908, 0.16831209999509156]","[0.06690509989857674, 0.20051099988631904]",119.5673360999208,119.76756899990141,1000,119.76756899990141,1000,1000,1000,1000,1,num_2,0.5662101998459548,,32,13,2026-03-12_16h20.56.176,2026A_exp2,2022.2.4,59.87751457153764,
1000,1,6.1,3.7,1,0,27,27,11,,,,,120.35164109990001,121.00228689983487,121.00228689983487,121.50348149985075,315,45,121.50348149985075,121.50348149985075,121.50348149985075,121.50348149985075,121.50348149985075,121.50348149985075,121.50348149985075,121.50348149985075,121.50348149985075,121.8698626998812,121.8698626998812,121.8698626998812,121.8698626998812,121.8698626998812,121.8698626998812,121.8698626998812,121.8698626998812,121.8698626998812,8,2,"[0.0012048999778926373, 0.1336074999999255]","[0.1000608999747783, 0.28385209990665317]",121.8698626998812,122.07198300003074,1000,122.07198300003074,1000,1000,1000,1000,1,num_2,0.46159399999305606,,32,13,2026-03-12_16h20.56.176,2026A_exp2,2022.2.4,59.87751457153764,
1000,1,0.0,0.0,1,0,28,28,55,,,,,122.5537821999751,123.20450589992106,123.20450589992106,123.70557960006408,315,315,123.70557960006408,123.70557960006408,123.70557960006408,123.70557960006408,123.70557960006408,123.70557960006408,123.70557960006408,123.70557960006408,123.70557960006408,124.07209599995986,124.07209599995986,124.07209599995986,124.07209599995986,124.07209599995986,124.07209599995986,124.07209599995986,124.07209599995986,124.07209599995986,22,1,[0.01739850011654198],[0.03364900010637939],124.07209599995986,124.27444770000875,1000,124.27444770000875,1000,1000,1000,1000,0,num_3,0.514453399926424,,32,13,2026-03-12_16h20.56.176,2026A_exp2,2022.2.4,59.87751457153764,
1000,1,4.9,0.0,1,0,29,29,12,,,,,124.8060699000489,125.45675350003876,125.45675350003876,125.95776179991663,45,45,125.95776179991663,125.95776179991663,125.95776179991663,125.95776179991663,125.95776179991663,125.95776179991663,125.95776179991663,125.95776179991663,125.95776179991663,126.32421149988659,126.32421149988659,126.32421149988659,126.32421149988659,126.32421149988659,126.32421149988659,126.32421149988659,126.32421149988659,126.32421149988659,23,0,,,126.32421149988659,126.52620229986496,1000,126.52620229986496,1000,1000,1000,1000,0,num_3,0.6869166998658329,,32,13,2026-03-12_16h20.56.176,2026A_exp2,2022.2.4,59.87751457153764,
1000,1,0.0,4.9,1,0,30,30,37,,,,,127.2417752998881,127.90251539996825,127.90251539996825,128.3948282999918,45,45,128.3948282999918,128.3948282999918,128.3948282999918,128.3948282999918,128.3948282999918,128.3948282999918,128.3948282999918,128.3948282999918,128.3948282999918,128.76012099999934,128.76012099999934,128.76012099999934,128.76012099999934,128.76012099999934,128.76012099999934,128.76012099999934,128.76012099999934,128.76012099999934,23,0,,,128.76012099999934,128.962192799896,1000,128.962192799896,1000,1000,1000,1000,1,num_2,0.492057700175792,,32,13,2026-03-12_16h20.56.176,2026A_exp2,2022.2.4,59.87751457153764,
1000,1,6.1,0.0,1,0,31,31,79,,,,,129.47732739988714,130.12829370005056,130.12829370005056,130.6292665998917,315,315,130.6292665998917,130.6292665998917,130.6292665998917,130.6292665998917,130.6292665998917,130.6292665998917,130.6292665998917,130.6292665998917,130.6292665998917,130.99566260003485,130.99566260003485,130.99566260003485,130.99566260003485,130.99566260003485,130.99566260003485,130.99566260003485,130.99566260003485,130.99566260003485,23,0,,,130.99566260003485,131.19799560005777,1000,131.19799560005777,1000,1000,1000,1000,0,num_3,0.3029094999656081,,32,13,2026-03-12_16h20.56.176,2026A_exp2,2022.2.4,59.87751457153764,
1000,1,4.9,0.0,1,0,32,32,67,,,,,131.529364899965,132.18007160001434,132.18007160001434,132.68138780002482,315,45,132.68138780002482,132.68138780002482,132.68138780002482,132.68138780002482,132.68138780002482,132.68138780002482,132.68138780002482,132.68138780002482,132.68138780002482,133.0475879998412,133.0475879998412,133.0475879998412,133.0475879998412,133.0475879998412,133.0475879998412,133.0475879998412,133.0475879998412,133.0475879998412,23,0,,,133.0475879998412,133.24970069993287,1000,133.24970069993287,1000,1000,1000,1000,0,num_3,0.8756062998436391,,32,13,2026-03-12_16h20.56.176,2026A_exp2,2022.2.4,59.87751457153764,
1,0,0.0,0.0,1,0,33,33,38,,,,,134.14871550002135,134.79950809990987,134.79950809990987,135.300322300056,45,315,135.300322300056,135.300322300056,135.300322300056,135.300322300056,135.300322300056,135.300322300056,135.300322300056,135.300322300056,135.300322300056,135.66737989988178,135.66737989988178,135.66737989988178,135.66737989988178,135.66737989988178,135.66737989988178,135.66737989988178,135.66737989988178,135.66737989988178,23,0,,,135.66737989988178,135.86778740002774,0.0,135.86778740002774,0,0.0,0,1,1000,num_1,0.6894288999028504,,32,13,2026-03-12_16h20.56.176,2026A_exp2,2022.2.4,59.87751457153764,
1000,1,4.9,3.7,0,0,34,34,28,,,,,136.5846229000017,137.23524239985272,137.23524239985272,137.73623719997704,45,45,137.73623719997704,137.73623719997704,137.73623719997704,137.73623719997704,137.73623719997704,137.73623719997704,137.73623719997704,137.73623719997704,137.73623719997704,138.10276859998703,138.10276859998703,138.10276859998703,138.10276859998703,138.10276859998703,138.10276859998703,138.10276859998703,138.10276859998703,138.10276859998703,17,4,"[0.05035570007748902, 0.16744800005108118, 0.28380570001900196, 0.3673553999979049]","[0.08374970010481775, 0.2003844000864774, 0.3006585000548512, 0.36736020003445446]",138.10276859998703,138.30513409990817,1000,138.30513409990817,1000,1000,1000,1000,0,num_3,0.5638059000484645,,32,13,2026-03-12_16h20.56.176,2026A_exp2,2022.2.4,59.87751457153764,
1000,1,6.1,4.9,0,0,35,35,81,,,,,138.8867965999525,139.53749429993331,139.53749429993331,140.03874280001037,315,45,140.03874280001037,140.03874280001037,140.03874280001037,140.03874280001037,140.03874280001037,140.03874280001037,140.03874280001037,140.03874280001037,140.03874280001037,140.4050403998699,140.4050403998699,140.4050403998699,140.4050403998699,140.4050403998699,140.4050403998699,140.4050403998699,140.4050403998699,140.4050403998699,19,2,"[0.0012417999096214771, 0.06709169992245734]","[0.04995479993522167, 0.08362269983626902]",140.4050403998699,140.60649779997766,1000,140.60649779997766,1000,1000,1000,1000,0,num_3,0.4387884000316262,,32,13,2026-03-12_16h20.56.176,2026A_exp2,2022.2.4,59.87751457153764,
1000,1,0.0,0.0,0,0,36,36,64,,,,,141.07229809998535,141.72311530006118,141.72311530006118,142.22407289990224,45,315,142.22407289990224,142.22407289990224,142.22407289990224,142.22407289990224,142.22407289990224,142.22407289990224,142.22407289990224,142.22407289990224,142.22407289990224,142.57391200005077,142.57391200005077,142.57391200005077,142.57391200005077,142.57391200005077,142.57391200005077,142.57391200005077,142.57391200005077,142.57391200005077,8,5,"[0.00122779980301857, 0.08390659978613257, 0.1669721999205649, 0.21659429999999702, 0.26720799994654953]","[0.06694559985771775, 0.14983479981310666, 0.19961359980516136, 0.25024339999072254, 0.3006178999785334]",142.57391200005077,142.7761206999421,1000,142.7761206999421,1000,1000,1000,1000,0,num_3,0.8211020999588072,,32,13,2026-03-12_16h20.56.176,2026A_exp2,2022.2.4,59.87751457153764,
0,0,4.9,0.0,0,0,37,37,40,,,,,143.6248631000053,144.27564909984358,144.27564909984358,144.7767687998712,315,315,144.7767687998712,144.7767687998712,144.7767687998712,144.7767687998712,144.7767687998712,144.7767687998712,144.7767687998712,144.7767687998712,144.7767687998712,145.14322980004363,145.14322980004363,145.14322980004363,145.14322980004363,145.14322980004363,145.14322980004363,145.14322980004363,145.14322980004363,145.14322980004363,2,2,"[0.0012844998855143785, 0.18354869983159006]","[0.1502228998579085, 0.36711280001327395]",145.14322980004363,145.34341580001637,0.0,145.34341580001637,0,0.0,0,1,1000,num_1,0.550075100036338,,32,13,2026-03-12_16h20.56.176,2026A_exp2,2022.2.4,59.87751457153764,
0,0,6.1,3.7,0,0,38,38,49,,,,,145.91040529985912,146.56117850006558,146.56117850006558,147.04562549991533,315,315,147.04562549991533,147.04562549991533,147.04562549991533,147.04562549991533,147.04562549991533,147.04562549991533,147.04562549991533,147.04562549991533,147.04562549991533,147.41209609992802,147.41209609992802,147.41209609992802,147.41209609992802,147.41209609992802,147.41209609992802,147.41209609992802,147.41209609992802,147.41209609992802,23,0,,,147.41209609992802,147.6123047999572,3.7,147.6123047999572,0,3.7,1,0,1000,num_1,0.6413095002062619,,32,13,2026-03-12_16h20.56.176,2026A_exp2,2022.2.4,59.87751457153764,
1000,1,0.0,0.0,1,0,39,39,56,,,,,148.27948949998245,148.91770170000382,148.91770170000382,149.42194649996236,315,45,149.42194649996236,149.42194649996236,149.42194649996236,149.42194649996236,149.42194649996236,149.42194649996236,149.42194649996236,149.42194649996236,149.42194649996236,149.78105890005827,149.78105890005827,149.78105890005827,149.78105890005827,149.78105890005827,149.78105890005827,149.78105890005827,149.78105890005827,149.78105890005827,23,0,,,149.78105890005827,149.98291069990955,1000,149.98291069990955,1000,1000,1000,1000,0,num_3,0.5499122999608517,,32,13,2026-03-12_16h20.56.176,2026A_exp2,2022.2.4,59.87751457153764,
1000,1,0.0,0.0,0,0,40,40,72,,,,,150.54847479984164,151.19903809996322,151.19903809996322,151.70020990003832,45,45,151.70020990003832,151.70020990003832,151.70020990003832,151.70020990003832,151.70020990003832,151.70020990003832,151.70020990003832,151.70020990003832,151.70020990003832,152.06671399995685,152.06671399995685,152.06671399995685,152.06671399995685,152.06671399995685,152.06671399995685,152.06671399995685,152.06671399995685,152.06671399995685,14,6,"[0.10003329999744892, 0.1335347001440823, 0.20038980012759566, 0.25019270018674433, 0.30027080001309514, 0.36700480012223125]","[0.11693900008685887, 0.18354200012981892, 0.21700290008448064, 0.28359200013801455, 0.3170539001002908, 0.36700870003551245]",152.06671399995685,152.2688573000487,1000,152.2688573000487,1000,1000,1000,1000,1,num_2,0.9614923999179155,,32,13,2026-03-12_16h20.56.176,2026A_exp2,2022.2.4,59.87751457153764,
0,0,0.0,3.7,1,0,41,41,53,,,,,153.25111859990284,153.90196019993164,153.90196019993164,154.40306539996527,315,45,154.40306539996527,154.40306539996527,154.40306539996527,154.40306539996527,154.40306539996527,154.40306539996527,154.40306539996527,154.40306539996527,154.40306539996527,154.76924239983782,154.76924239983782,154.76924239983782,154.76924239983782,154.76924239983782,154.76924239983782,154.76924239983782,154.76924239983782,154.76924239983782,23,0,,,154.76924239983782,,0.0,154.97930569993332,1,0.0,0,0,1000,num_4,1.0984443000052124,,32,13,2026-03-12_16h20.56.176,2026A_exp2,2022.2.4,59.87751457153764,
0,0,3.7,0.0,1,0,42,42,1,,,,,156.10424100002274,156.73810600000434,156.73810600000434,157.23921309993602,45,315,157.23921309993602,157.23921309993602,157.23921309993602,157.23921309993602,157.23921309993602,157.23921309993602,157.23921309993602,157.23921309993602,157.23921309993602,157.6055904000532,157.6055904000532,157.6055904000532,157.6055904000532,157.6055904000532,157.6055904000532,157.6055904000532,157.6055904000532,157.6055904000532,23,0,,,157.6055904000532,157.80574009986594,3.7,157.80574009986594,1,3.7,1,1,1000,num_4,0.6159546999260783,,32,13,2026-03-12_16h20.56.176,2026A_exp2,2022.2.4,59.87751457153764,
1,0,0.0,6.1,0,0,43,43,24,,,,,158.4395314999856,159.09048240003176,159.09048240003176,159.59157339995727,45,315,159.59157339995727,159.59157339995727,159.59157339995727,159.59157339995727,159.59157339995727,159.59157339995727,159.59157339995727,159.59157339995727,159.59157339995727,159.9412605999969,159.9412605999969,159.9412605999969,159.9412605999969,159.9412605999969,159.9412605999969,159.9412605999969,159.9412605999969,159.9412605999969,22,0,,,159.9412605999969,160.14161869999953,0.0,160.14161869999953,0,0.0,0,1,1000,num_1,0.8000845001079142,,32,13,2026-03-12_16h20.56.176,2026A_exp2,2022.2.4,59.87751457153764,
0,0,0.0,0.0,1,0,44,44,44,,,,,160.95878209988587,161.60948859993368,161.60948859993368,162.0939149998594,45,45,162.0939149998594,162.0939149998594,162.0939149998594,162.0939149998594,162.0939149998594,162.0939149998594,162.0939149998594,162.0939149998594,162.0939149998594,162.4600114999339,162.4600114999339,162.4600114999339,162.4600114999339,162.4600114999339,162.4600114999339,162.4600114999339,162.4600114999339,162.4600114999339,23,0,,,162.4600114999339,162.6607071000617,0.0,162.6607071000617,1,0.0,0,0,1000,num_4,0.5532176000997424,,32,13,2026-03-12_16h20.56.176,2026A_exp2,2022.2.4,59.87751457153764,
1,0,0.0,4.9,0,0,45,45,32,,,,,163.24444839986973,163.89527079998516,163.89527079998516,164.37966890004463,45,45,164.37966890004463,164.37966890004463,164.37966890004463,164.37966890004463,164.37966890004463,164.37966890004463,164.37966890004463,164.37966890004463,164.37966890004463,164.74612109991722,164.74612109991722,164.74612109991722,164.74612109991722,164.74612109991722,164.74612109991722,164.74612109991722,164.74612109991722,164.74612109991722,23,0,,,164.74612109991722,164.94610569998622,0.0,164.94610569998622,0,0.0,0,1,1000,num_1,0.6116517998743802,,32,13,2026-03-12_16h20.56.176,2026A_exp2,2022.2.4,59.87751457153764,
1000,1,0.0,0.0,0,0,46,46,89,,,,,165.58000109996647,166.23054310004227,166.23054310004227,166.7151699999813,45,45,166.7151699999813,166.7151699999813,166.7151699999813,166.7151699999813,166.7151699999813,166.7151699999813,166.7151699999813,166.7151699999813,166.7151699999813,167.08177339984104,167.08177339984104,167.08177339984104,167.08177339984104,167.08177339984104,167.08177339984104,167.08177339984104,167.08177339984104,167.08177339984104,23,0,,,167.08177339984104,167.28372109984048,1000,167.28372109984048,1000,1000,1000,1000,0,num_3,0.7622897999826819,,32,13,2026-03-12_16h20.56.176,2026A_exp2,2022.2.4,59.87751457153764,
0,0,3.7,4.9,0,0,47,47,77,,,,,168.06594739994034,168.7167559999507,168.7167559999507,169.21787069994025,45,45,169.21787069994025,169.21787069994025,169.21787069994025,169.21787069994025,169.21787069994025,169.21787069994025,169.21787069994025,169.21787069994025,169.21787069994025,169.58420599997044,169.58420599997044,169.58420599997044,169.58420599997044,169.58420599997044,169.58420599997044,169.58420599997044,169.58420599997044,169.58420599997044,20,2,"[0.017397999996319413, 0.10024270019493997]","[0.03349740011617541, 0.13367540016770363]",169.58420599997044,169.78431420004927,4.9,169.78431420004927,1,4.9,1,1,1000,num_4,0.6300547001883388,,32,13,2026-03-12_16h20.56.176,2026A_exp2,2022.2.4,59.87751457153764,
1000,1,0.0,4.9,0,0,48,48,8,,,,,170.43505089986138,171.0856053000316,171.0856053000316,171.57016690005548,315,45,171.57016690005548,171.57016690005548,171.57016690005548,171.57016690005548,171.57016690005548,171.57016690005548,171.57016690005548,171.57016690005548,171.57016690005548,171.93655369989574,171.93655369989574,171.93655369989574,171.93655369989574,171.93655369989574,171.93655369989574,171.93655369989574,171.93655369989574,171.93655369989574,21,1,[0.3005550999660045],[0.3339533999096602],171.93655369989574,172.13829070003703,1000,172.13829070003703,1000,1000,1000,1000,1,num_2,0.5307409998495132,,32,13,2026-03-12_16h20.56.176,2026A_exp2,2022.2.4,59.87751457153764,
1000,1,4.9,0.0,1,0,49,49,48,,,,,172.6872538998723,173.33805170003325,173.33805170003325,173.83912490005605,315,315,173.83912490005605,173.83912490005605,173.83912490005605,173.83912490005605,173.83912490005605,173.83912490005605,173.83912490005605,173.83912490005605,173.83912490005605,174.20554029988125,174.20554029988125,174.20554029988125,174.20554029988125,174.20554029988125,174.20554029988125,174.20554029988125,174.20554029988125,174.20554029988125,23,0,,,174.20554029988125,174.4072757998947,1000,174.4072757998947,1000,1000,1000,1000,0,num_3,0.334606199990958,,32,13,2026-03-12_16h20.56.176,2026A_exp2,2022.2.4,59.87751457153764,
1000,1,0.0,0.0,1,0,50,50,73,,,,,174.77261719992384,175.42333769984543,175.42333769984543,175.92446929984726,45,45,175.92446929984726,175.92446929984726,175.92446929984726,175.92446929984726,175.92446929984726,175.92446929984726,175.92446929984726,175.92446929984726,175.92446929984726,176.29083930002525,176.29083930002525,176.29083930002525,176.29083930002525,176.29083930002525,176.29083930002525,176.29083930002525,176.29083930002525,176.29083930002525,23,0,,,176.29083930002525,176.4931628999766,1000,176.4931628999766,1000,1000,1000,1000,0,num_3,0.42388750007376075,,32,13,2026-03-12_16h20.56.176,2026A_exp2,2022.2.4,59.87751457153764,
1000,1,0.0,0.0,1,0,51,51,3,,,,,176.94149979995564,177.59232679987326,177.59232679987326,178.09333309996873,315,45,178.09333309996873,178.09333309996873,178.09333309996873,178.09333309996873,178.09333309996873,178.09333309996873,178.09333309996873,178.09333309996873,178.09333309996873,178.4597757998854,178.4597757998854,178.4597757998854,178.4597757998854,178.4597757998854,178.4597757998854,178.4597757998854,178.4597757998854,178.4597757998854,22,1,[0.36696620006114244],[0.36697109998203814],178.4597757998854,178.6616932998877,1000,178.6616932998877,1000,1000,1000,1000,0,num_3,0.3356736998539418,,32,13,2026-03-12_16h20.56.176,2026A_exp2,2022.2.4,59.87751457153764,
1000,1,4.9,0.0,0,0,52,52,50,,,,,179.0268778000027,179.67760319984518,179.67760319984518,180.17876859987155,45,45,180.17876859987155,180.17876859987155,180.17876859987155,180.17876859987155,180.17876859987155,180.17876859987155,180.17876859987155,180.17876859987155,180.17876859987155,180.5451974000316,180.5451974000316,180.5451974000316,180.5451974000316,180.5451974000316,180.5451974000316,180.5451974000316,180.5451974000316,180.5451974000316,20,1,[0.28361320006661117],[0.31716730003245175],180.5451974000316,180.7534729000181,1000,180.7534729000181,1000,1000,1000,1000,0,num_3,0.35603260016068816,,32,13,2026-03-12_16h20.56.176,2026A_exp2,2022.2.4,59.87751457153764,
1,0,6.1,6.1,1,0,53,53,47,,,,,181.1290060998872,181.77974490006454,181.77974490006454,182.28094989992678,45,45,182.28094989992678,182.28094989992678,182.28094989992678,182.28094989992678,182.28094989992678,182.28094989992678,182.28094989992678,182.28094989992678,182.28094989992678,182.64693859987892,182.64693859987892,182.64693859987892,182.64693859987892,182.64693859987892,182.64693859987892,182.64693859987892,182.64693859987892,182.64693859987892,23,0,,,182.64693859987892,182.84754079999402,6.1,182.84754079999402,1,6.1,1,1,1000,num_4,0.6302801999263465,,32,13,2026-03-12_16h20.56.176,2026A_exp2,2022.2.4,59.87751457153764,
1000,1,0.0,0.0,1,0,54,54,29,,,,,183.4980411999859,184.1488345998805,184.1488345998805,184.63320539984852,315,45,184.63320539984852,184.63320539984852,184.63320539984852,184.63320539984852,184.63320539984852,184.63320539984852,184.63320539984852,184.63320539984852,184.63320539984852,184.99954709992744,184.99954709992744,184.99954709992744,184.99954709992744,184.99954709992744,184.99954709992744,184.99954709992744,184.99954709992744,184.99954709992744,23,0,,,184.99954709992744,185.20211609988473,1000,185.20211609988473,1000,1000,1000,1000,0,num_3,0.3241534000262618,,32,13,2026-03-12_16h20.56.176,2026A_exp2,2022.2.4,59.87751457153764,
1000,1,0.0,3.7,1,0,55,55,4,,,,,185.5501123999711,186.20082090003416,186.20082090003416,186.70201119990088,315,45,186.70201119990088,186.70201119990088,186.70201119990088,186.70201119990088,186.70201119990088,186.70201119990088,186.70201119990088,186.70201119990088,186.70201119990088,187.068433099892,187.068433099892,187.068433099892,187.068433099892,187.068433099892,187.068433099892,187.068433099892,187.068433099892,187.068433099892,23,0,,,187.068433099892,187.27064469992183,1000,187.27064469992183,1000,1000,1000,1000,1,num_2,0.5510726999491453,,32,13,2026-03-12_16h20.56.176,2026A_exp2,2022.2.4,59.87751457153764,
1,0,3.7,0.0,0,0,56,56,10,,,,,187.85252039995976,188.5031818000134,188.5031818000134,189.00421369983815,315,315,189.00421369983815,189.00421369983815,189.00421369983815,189.00421369983815,189.00421369983815,189.00421369983815,189.00421369983815,189.00421369983815,189.00421369983815,189.35402319999412,189.35402319999412,189.35402319999412,189.35402319999412,189.35402319999412,189.35402319999412,189.35402319999412,189.35402319999412,189.35402319999412,4,4,"[0.0012666999828070402, 0.15034960000775754, 0.1837414000183344, 0.23381730006076396]","[0.1335243999492377, 0.16687160008586943, 0.20027829986065626, 0.3505802000872791]",189.35402319999412,189.55425959988497,3.7,189.55425959988497,1,3.7,1,1,1000,num_4,0.547743699979037,,32,13,2026-03-12_16h20.56.176,2026A_exp2,2022.2.4,59.87751457153764,
1000,1,3.7,0.0,0,0,57,57,35,,,,,190.1212879999075,190.75535079999827,190.75535079999827,191.2564890999347,45,315,191.2564890999347,191.2564890999347,191.2564890999347,191.2564890999347,191.2564890999347,191.2564890999347,191.2564890999347,191.2564890999347,191.2564890999347,191.62298489990644,191.62298489990644,191.62298489990644,191.62298489990644,191.62298489990644,191.62298489990644,191.62298489990644,191.62298489990644,191.62298489990644,23,0,,,191.62298489990644,191.8246406998951,1000,191.8246406998951,1000,1000,1000,1000,0,num_3,0.44493819982744753,,32,13,2026-03-12_16h20.56.176,2026A_exp2,2022.2.4,59.87751457153764,
1,0,0.0,6.1,1,0,58,58,19,,,,,192.29023199994117,192.94091270002536,192.94091270002536,193.4418703999836,315,315,193.4418703999836,193.4418703999836,193.4418703999836,193.4418703999836,193.4418703999836,193.4418703999836,193.4418703999836,193.4418703999836,193.4418703999836,193.8084169998765,193.8084169998765,193.8084169998765,193.8084169998765,193.8084169998765,193.8084169998765,193.8084169998765,193.8084169998765,193.8084169998765,15,6,"[0.03310660016722977, 0.15006070001982152, 0.20015750010497868, 0.2500770001206547, 0.283627700060606, 0.36708290013484657]","[0.04993760003708303, 0.18373460019938648, 0.23349160002544522, 0.2668279001954943, 0.3004176001995802, 0.36708800005726516]",193.8084169998765,194.0086399000138,6.1,194.0086399000138,1,6.1,1,1,1000,num_4,0.34098189999349415,,32,13,2026-03-12_16h20.56.176,2026A_exp2,2022.2.4,59.87751457153764,
1000,1,0.0,3.7,0,0,59,59,76,,,,,194.37551479996182,195.02621369995177,195.02621369995177,195.5272740998771,315,45,195.5272740998771,195.5272740998771,195.5272740998771,195.5272740998771,195.5272740998771,195.5272740998771,195.5272740998771,195.5272740998771,195.5272740998771,195.87722159991972,195.87722159991972,195.87722159991972,195.87722159991972,195.87722159991972,195.87722159991972,195.87722159991972,195.87722159991972,195.87722159991972,17,4,"[0.03338619996793568, 0.1002629001159221, 0.25030010007321835, 0.31714490009471774]","[0.06763439998030663, 0.1179583000484854, 0.26703869993798435, 0.3339724999386817]",195.87722159991972,196.0788135000039,1000,196.0788135000039,1000,1000,1000,1000,1,num_2,0.4952153000049293,,32,13,2026-03-12_16h20.56.176,2026A_exp2,2022.2.4,59.87751457153764,
1000,1,0.0,3.7,0,0,60,60,23,,,,,196.59445159998722,197.24570169998333,197.24570169998333,197.7463481000159,315,315,197.7463481000159,197.7463481000159,197.7463481000159,197.7463481000159,197.7463481000159,197.7463481000159,197.7463481000159,197.7463481000159,197.7463481000159,198.11250409996137,198.11250409996137,198.11250409996137,198.11250409996137,198.11250409996137,198.11250409996137,198.11250409996137,198.11250409996137,198.11250409996137,15,4,"[0.03342620003968477, 0.10015029995702207, 0.25040290015749633, 0.3331782000605017]","[0.06647880002856255, 0.13330370001494884, 0.26700530014932156, 0.36656090011820197]",198.11250409996137,198.3149210999254,1000,198.3149210999254,1000,1000,1000,1000,1,num_2,0.5063759000040591,,32,13,2026-03-12_16h20.56.176,2026A_exp2,2022.2.4,59.87751457153764,
0,0,3.7,0.0,0,0,61,61,18,,,,,198.84669719985686,199.49747899989597,199.49747899989597,199.99854559986852,315,315,199.99854559986852,199.99854559986852,199.99854559986852,199.99854559986852,199.99854559986852,199.99854559986852,199.99854559986852,199.99854559986852,199.99854559986852,200.348282400053,200.348282400053,200.348282400053,200.348282400053,200.348282400053,200.348282400053,200.348282400053,200.348282400053,200.348282400053,22,0,,,200.348282400053,200.54853189992718,0.0,200.54853189992718,1,0.0,0,0,1000,num_4,0.5923259002156556,,32,13,2026-03-12_16h20.56.176,2026A_exp2,2022.2.4,59.87751457153764,
1,0,3.7,0.0,0,0,62,62,26,,,,,201.16564749996178,201.816527799936,201.816527799936,202.30083029996604,315,315,202.30083029996604,202.30083029996604,202.30083029996604,202.30083029996604,202.30083029996604,202.30083029996604,202.30083029996604,202.30083029996604,202.30083029996604,202.66729089990258,202.66729089990258,202.66729089990258,202.66729089990258,202.66729089990258,202.66729089990258,202.66729089990258,202.66729089990258,202.66729089990258,22,1,[0.26704880013130605],[0.2839153001550585],202.66729089990258,202.86756589985453,3.7,202.86756589985453,1,3.7,1,1,1000,num_4,0.41008619987405837,,32,13,2026-03-12_16h20.56.176,2026A_exp2,2022.2.4,59.87751457153764,
1000,1,0.0,6.1,0,0,63,63,20,,,,,203.3012742998544,203.95210009999573,203.95210009999573,204.43643069989048,315,45,204.43643069989048,204.43643069989048,204.43643069989048,204.43643069989048,204.43643069989048,204.43643069989048,204.43643069989048,204.43643069989048,204.43643069989048,204.80281409993768,204.80281409993768,204.80281409993768,204.80281409993768,204.80281409993768,204.80281409993768,204.80281409993768,204.80281409993768,204.80281409993768,23,0,,,204.80281409993768,205.00471669994295,1000,205.00471669994295,1000,1000,1000,1000,1,num_2,0.54521289980039,,32,13,2026-03-12_16h20.56.176,2026A_exp2,2022.2.4,59.87751457153764,
1,0,0.0,0.0,1,0,64,64,31,,,,,205.56994830002077,206.22096819989383,206.22096819989383,206.72200259985402,315,45,206.72200259985402,206.72200259985402,206.72200259985402,206.72200259985402,206.72200259985402,206.72200259985402,206.72200259985402,206.72200259985402,206.72200259985402,207.0884134999942,207.0884134999942,207.0884134999942,207.0884134999942,207.0884134999942,207.0884134999942,207.0884134999942,207.0884134999942,207.0884134999942,23,0,,,207.0884134999942,207.28855829988606,0.0,207.28855829988606,0,0.0,0,1,1000,num_1,0.6133608999662101,,32,13,2026-03-12_16h20.56.176,2026A_exp2,2022.2.4,59.87751457153764,
1000,1,0.0,0.0,0,0,65,65,45,,,,,207.92246429994702,208.57324959989637,208.57324959989637,209.0577574998606,315,45,209.0577574998606,209.0577574998606,209.0577574998606,209.0577574998606,209.0577574998606,209.0577574998606,209.0577574998606,209.0577574998606,209.0577574998606,209.42399819986895,209.42399819986895,209.42399819986895,209.42399819986895,209.42399819986895,209.42399819986895,209.42399819986895,209.42399819986895,209.42399819986895,23,0,,,209.42399819986895,209.63709630002268,1000,209.63709630002268,1000,1000,1000,1000,0,num_3,0.6323540001176298,,32,13,2026-03-12_16h20.56.176,2026A_exp2,2022.2.4,59.87751457153764,
1000,1,4.9,3.7,1,0,66,66,78,,,,,210.29160670004785,210.94346620002761,210.94346620002761,211.44356809998862,315,315,211.44356809998862,211.44356809998862,211.44356809998862,211.44356809998862,211.44356809998862,211.44356809998862,211.44356809998862,211.44356809998862,211.44356809998862,211.79309319984168,211.79309319984168,211.79309319984168,211.79309319984168,211.79309319984168,211.79309319984168,211.79309319984168,211.79309319984168,211.79309319984168,22,0,,,211.79309319984168,211.99514799984172,1000,211.99514799984172,1000,1000,1000,1000,0,num_3,0.8899634000845253,,32,13,2026-03-12_16h20.56.176,2026A_exp2,2022.2.4,59.87751457153764,
1000,1,0.0,3.7,0,0,67,67,21,,,,,212.91079179989174,213.54484730004333,213.54484730004333,214.04581229994074,315,315,214.04581229994074,214.04581229994074,214.04581229994074,214.04581229994074,214.04581229994074,214.04581229994074,214.04581229994074,214.04581229994074,214.04581229994074,214.41243599983864,214.41243599983864,214.41243599983864,214.41243599983864,214.41243599983864,214.41243599983864,214.41243599983864,214.41243599983864,214.41243599983864,23,0,,,214.41243599983864,214.61442180001177,1000,214.61442180001177,1000,1000,1000,1000,1,num_2,0.5032645999453962,,32,13,2026-03-12_16h20.56.176,2026A_exp2,2022.2.4,59.87751457153764,
1000,1,0.0,0.0,0,0,68,68,57,,,,,215.14660710003227,215.79708859999664,215.79708859999664,216.2814078000374,45,45,216.2814078000374,216.2814078000374,216.2814078000374,216.2814078000374,216.2814078000374,216.2814078000374,216.2814078000374,216.2814078000374,216.2814078000374,216.64756409986876,216.64756409986876,216.64756409986876,216.64756409986876,216.64756409986876,216.64756409986876,216.64756409986876,216.64756409986876,216.64756409986876,23,0,,,216.64756409986876,216.8501978998538,1000,216.8501978998538,1000,1000,1000,1000,0,num_3,0.3471327000297606,,32,13,2026-03-12_16h20.56.176,2026A_exp2,2022.2.4,59.87751457153764,
1,0,0.0,0.0,0,0,69,69,87,,,,,217.21533160004765,217.8658296999056,217.8658296999056,218.35032309987582,315,45,218.35032309987582,218.35032309987582,218.35032309987582,218.35032309987582,218.35032309987582,218.35032309987582,218.35032309987582,218.35032309987582,218.35032309987582,218.71659559989348,218.71659559989348,218.71659559989348,218.71659559989348,218.71659559989348,218.71659559989348,218.71659559989348,218.71659559989348,218.71659559989348,23,0,,,218.71659559989348,218.91672879992984,0.0,218.91672879992984,1,0.0,0,0,1000,num_4,0.6643075998872519,,32,13,2026-03-12_16h20.56.176,2026A_exp2,2022.2.4,59.87751457153764,
1,0,0.0,4.9,1,0,70,70,54,,,,,219.6008069999516,220.2515072999522,220.2515072999522,220.73593369987793,315,45,220.73593369987793,220.73593369987793,220.73593369987793,220.73593369987793,220.73593369987793,220.73593369987793,220.73593369987793,220.73593369987793,220.73593369987793,221.1024052000139,221.1024052000139,221.1024052000139,221.1024052000139,221.1024052000139,221.1024052000139,221.1024052000139,221.1024052000139,221.1024052000139,23,0,,,221.1024052000139,221.30266020004638,4.9,221.30266020004638,1,4.9,1,1,1000,num_4,0.4313246998935938,,32,13,2026-03-12_16h20.56.176,2026A_exp2,2022.2.4,59.87751457153764,
1,0,0.0,0.0,0,0,71,71,80,,,,,221.75288669997826,222.4036582999397,222.4036582999397,222.887979199877,315,45,222.887979199877,222.887979199877,222.887979199877,222.887979199877,222.887979199877,222.887979199877,222.887979199877,222.887979199877,222.887979199877,223.25452449987642,223.25452449987642,223.25452449987642,223.25452449987642,223.25452449987642,223.25452449987642,223.25452449987642,223.25452449987642,223.25452449987642,23,0,,,223.25452449987642,223.45478859986179,0.0,223.45478859986179,1,0.0,0,0,1000,num_4,1.1982166999951005,,32,13,2026-03-12_16h20.56.176,2026A_exp2,2022.2.4,59.87751457153764,
1000,1,3.7,6.1,0,0,72,72,60,,,,,224.6725452998653,225.323220100021,225.323220100021,225.8077529000584,45,45,225.8077529000584,225.8077529000584,225.8077529000584,225.8077529000584,225.8077529000584,225.8077529000584,225.8077529000584,225.8077529000584,225.8077529000584,226.17414360004477,226.17414360004477,226.17414360004477,226.17414360004477,226.17414360004477,226.17414360004477,226.17414360004477,226.17414360004477,226.17414360004477,14,5,"[0.06721609993837774, 0.1503800000064075, 0.20077409991063178, 0.28408579993993044, 0.3507721999194473]","[0.08367579989135265, 0.16710269986651838, 0.26743320003151894, 0.33419389999471605, 0.36749450000934303]",226.17414360004477,226.37641949998215,1000,226.37641949998215,1000,1000,1000,1000,1,num_2,0.7485263000708073,,32,13,2026-03-12_16h20.56.176,2026A_exp2,2022.2.4,59.87751457153764,
1000,1,0.0,6.1,1,0,73,73,42,,,,,227.141697099898,227.79246510006487,227.79246510006487,228.27670759987086,45,45,228.27670759987086,228.27670759987086,228.27670759987086,228.27670759987086,228.27670759987086,228.27670759987086,228.27670759987086,228.27670759987086,228.27670759987086,228.64332440006547,228.64332440006547,228.64332440006547,228.64332440006547,228.64332440006547,228.64332440006547,228.64332440006547,228.64332440006547,228.64332440006547,23,0,,,228.64332440006547,228.8453863998875,1000,228.8453863998875,1000,1000,1000,1000,1,num_2,0.4484683000482619,,32,13,2026-03-12_16h20.56.176,2026A_exp2,2022.2.4,59.87751457153764,
1000,1,4.9,6.1,0,0,74,74,36,,,,,229.31054769991897,229.9612626999151,229.9612626999151,230.46222950005904,315,315,230.46222950005904,230.46222950005904,230.46222950005904,230.46222950005904,230.46222950005904,230.46222950005904,230.46222950005904,230.46222950005904,230.46222950005904,230.8287108000368,230.8287108000368,230.8287108000368,230.8287108000368,230.8287108000368,230.8287108000368,230.8287108000368,230.8287108000368,230.8287108000368,10,1,[0.16703910008072853],[0.3670972001273185],230.8287108000368,231.03119089989923,1000,231.03119089989923,1000,1000,1000,1000,1,num_2,0.6941031001042575,,32,13,2026-03-12_16h20.56.176,2026A_exp2,2022.2.4,59.87751457153764,
1,0,4.9,0.0,1,0,75,75,34,,,,,231.74628899991512,232.39703230001032,232.39703230001032,232.89865990006365,45,45,232.89865990006365,232.89865990006365,232.89865990006365,232.89865990006365,232.89865990006365,232.89865990006365,232.89865990006365,232.89865990006365,232.89865990006365,233.26438349997625,233.26438349997625,233.26438349997625,233.26438349997625,233.26438349997625,233.26438349997625,233.26438349997625,233.26438349997625,233.26438349997625,23,0,,,233.26438349997625,233.46476719994098,0.0,233.46476719994098,0,0.0,0,1,1000,num_1,0.7096468000672758,,32,13,2026-03-12_16h20.56.176,2026A_exp2,2022.2.4,59.87751457153764,
1000,1,0.0,3.7,1,0,76,76,88,,,,,234.19872660003603,234.8494883000385,234.8494883000385,235.33449029992335,315,45,235.33449029992335,235.33449029992335,235.33449029992335,235.33449029992335,235.33449029992335,235.33449029992335,235.33449029992335,235.33449029992335,235.33449029992335,235.70036299992353,235.70036299992353,235.70036299992353,235.70036299992353,235.70036299992353,235.70036299992353,235.70036299992353,235.70036299992353,235.70036299992353,23,0,,,235.70036299992353,235.90249189990573,1000,235.90249189990573,1000,1000,1000,1000,1,num_2,2.0786617000121623,,32,13,2026-03-12_16h20.56.176,2026A_exp2,2022.2.4,59.87751457153764,
1,0,0.0,0.0,1,0,77,77,33,,,,,238.00254500005394,238.65334780002013,238.65334780002013,239.1543234998826,45,315,239.1543234998826,239.1543234998826,239.1543234998826,239.1543234998826,239.1543234998826,239.1543234998826,239.1543234998826,239.1543234998826,239.1543234998826,239.50409419997595,239.50409419997595,239.50409419997595,239.50409419997595,239.50409419997595,239.50409419997595,239.50409419997595,239.50409419997595,239.50409419997595,22,0,,,239.50409419997595,239.7042161000427,0.0,239.72104580001906,0,0.0,0,1,1000,num_1,0.6604564001318067,,32,13,2026-03-12_16h20.56.176,2026A_exp2,2022.2.4,59.87751457153764,
1000,1,6.1,0.0,0,0,78,78,27,,,,,240.40488459984772,241.0556061998941,241.0556061998941,241.5567642999813,315,315,241.5567642999813,241.5567642999813,241.5567642999813,241.5567642999813,241.5567642999813,241.5567642999813,241.5567642999813,241.5567642999813,241.5567642999813,241.90658689988777,241.90658689988777,241.90658689988777,241.90658689988777,241.90658689988777,241.90658689988777,241.90658689988777,241.90658689988777,241.90658689988777,21,1,[0.2676315000280738],[0.28432280011475086],241.90658689988777,242.1087797000073,1000,242.1087797000073,1000,1000,1000,1000,0,num_3,0.4007034001406282,,32,13,2026-03-12_16h20.56.176,2026A_exp2,2022.2.4,59.87751457153764,
1,0,6.1,0.0,1,0,79,79,17,,,,,242.540617399849,243.19140909984708,243.19140909984708,243.69235410005786,315,315,243.69235410005786,243.69235410005786,243.69235410005786,243.69235410005786,243.69235410005786,243.69235410005786,243.69235410005786,243.69235410005786,243.69235410005786,244.05869530001655,244.05869530001655,244.05869530001655,244.05869530001655,244.05869530001655,244.05869530001655,244.05869530001655,244.05869530001655,244.05869530001655,23,0,,,244.05869530001655,244.25880789989606,0.0,244.25880789989606,0,0.0,0,1,1000,num_1,0.7553250000346452,,32,13,2026-03-12_16h20.56.176,2026A_exp2,2022.2.4,59.87751457153764,
1,0,4.9,6.1,0,0,80,80,82,,,,,245.04288169997744,245.67703230003826,245.67703230003826,246.17812669998966,315,45,246.17812669998966,246.17812669998966,246.17812669998966,246.17812669998966,246.17812669998966,246.17812669998966,246.17812669998966,246.17812669998966,246.17812669998966,246.54453979991376,246.54453979991376,246.54453979991376,246.54453979991376,246.54453979991376,246.54453979991376,246.54453979991376,246.54453979991376,246.54453979991376,18,3,"[0.11683290009386837, 0.18359560007229447, 0.2837263001129031]","[0.1501947999931872, 0.20030159992165864, 0.3171383999288082]",246.54453979991376,246.74469879991375,4.9,246.74469879991375,1,4.9,1,1,1000,num_4,0.7329849998932332,,32,13,2026-03-12_16h20.56.176,2026A_exp2,2022.2.4,59.87751457153764,
1000,1,4.9,6.1,1,0,81,81,5,,,,,247.49561199988239,248.15156619995832,248.15156619995832,248.63039739988744,45,315,248.63039739988744,248.63039739988744,248.63039739988744,248.63039739988744,248.63039739988744,248.63039739988744,248.63039739988744,248.63039739988744,248.63039739988744,248.99691059999168,248.99691059999168,248.99691059999168,248.99691059999168,248.99691059999168,248.99691059999168,248.99691059999168,248.99691059999168,248.99691059999168,23,0,,,248.99691059999168,249.19882629998028,1000,249.19882629998028,1000,1000,1000,1000,1,num_2,0.6311450998764485,,32,13,2026-03-12_16h20.56.176,2026A_exp2,2022.2.4,59.87751457153764,
1000,1,0.0,0.0,0,0,82,82,7,,,,,249.84771639993414,250.49852050002664,250.49852050002664,250.9995380998589,45,45,250.9995380998589,250.9995380998589,250.9995380998589,250.9995380998589,250.9995380998589,250.9995380998589,250.9995380998589,250.9995380998589,250.9995380998589,251.36599299986847,251.36599299986847,251.36599299986847,251.36599299986847,251.36599299986847,251.36599299986847,251.36599299986847,251.36599299986847,251.36599299986847,14,5,"[0.01729610003530979, 0.13369980012066662, 0.20029380009509623, 0.2668108001817018, 0.2997298000846058]","[0.06697340006940067, 0.1502125000115484, 0.2499912001658231, 0.2834835001267493, 0.31632250011898577]",251.36599299986847,251.56795299984515,1000,251.56795299984515,1000,1000,1000,1000,0,num_3,0.5258178000804037,,32,13,2026-03-12_16h20.56.176,2026A_exp2,2022.2.4,59.87751457153764,
1000,1,3.7,0.0,0,0,83,83,39,,,,,252.11668049986474,252.76740329992026,252.76740329992026,253.26847229991108,315,45,253.26847229991108,253.26847229991108,253.26847229991108,253.26847229991108,253.26847229991108,253.26847229991108,253.26847229991108,253.26847229991108,253.26847229991108,253.63491320004687,253.63491320004687,253.63491320004687,253.63491320004687,253.63491320004687,253.63491320004687,253.63491320004687,253.63491320004687,253.63491320004687,21,2,"[0.11714019998908043, 0.36744780000299215]","[0.13372249994426966, 0.36745269992388785]",253.63491320004687,253.8365161998663,1000,253.8365161998663,1000,1000,1000,1000,1,num_2,1.1846346000675112,,32,13,2026-03-12_16h20.56.176,2026A_exp2,2022.2.4,59.87751457153764,
1,0,0.0,0.0,1,0,84,84,6,,,,,255.05301079992205,255.68724139989354,255.68724139989354,256.1881544999778,315,315,256.1881544999778,256.1881544999778,256.1881544999778,256.1881544999778,256.1881544999778,256.1881544999778,256.1881544999778,256.1881544999778,256.1881544999778,256.5543434000574,256.5543434000574,256.5543434000574,256.5543434000574,256.5543434000574,256.5543434000574,256.5543434000574,256.5543434000574,256.5543434000574,23,0,,,256.5543434000574,256.7547835998703,0.0,256.7547835998703,0,0.0,0,1,1000,num_1,0.794860600028187,,32,13,2026-03-12_16h20.56.176,2026A_exp2,2022.2.4,59.87751457153764,
1000,1,3.7,3.7,0,0,85,85,59,,,,,257.5721191999037,258.2229124000296,258.2229124000296,258.7071833999362,315,315,258.7071833999362,258.7071833999362,258.7071833999362,258.7071833999362,258.7071833999362,258.7071833999362,258.7071833999362,258.7071833999362,258.7071833999362,259.07366989995353,259.07366989995353,259.07366989995353,259.07366989995353,259.07366989995353,259.07366989995353,259.07366989995353,259.07366989995353,259.07366989995353,23,0,,,259.07366989995353,259.27641759999096,1000,259.27641759999096,1000,1000,1000,1000,0,num_3,0.46547840000130236,,32,13,2026-03-12_16h20.56.176,2026A_exp2,2022.2.4,59.87751457153764,
1000,1,3.7,0.0,0,0,86,86,69,,,,,259.7575874000322,260.40832709986717,260.40832709986717,260.9095492998604,45,315,260.9095492998604,260.9095492998604,260.9095492998604,260.9095492998604,260.9095492998604,260.9095492998604,260.9095492998604,260.9095492998604,260.9095492998604,261.2592154999729,261.2592154999729,261.2592154999729,261.2592154999729,261.2592154999729,261.2592154999729,261.2592154999729,261.2592154999729,261.2592154999729,12,3,"[0.050274499924853444, 0.16683269990608096, 0.30037599988281727]","[0.11679250001907349, 0.21709499997086823, 0.35047509986907244]",261.2592154999729,261.46104419999756,1000,261.476082299836,1000,1000,1000,1000,0,num_3,0.5930499001406133,,32,13,2026-03-12_16h20.56.176,2026A_exp2,2022.2.4,59.87751457153764,
1000,1,6.1,6.1,1,0,87,87,22,,,,,262.09328519995324,262.7437940998934,262.7437940998934,263.2454263998661,45,45,263.2454263998661,263.2454263998661,263.2454263998661,263.2454263998661,263.2454263998661,263.2454263998661,263.2454263998661,263.2454263998661,263.2454263998661,263.61159270000644,263.61159270000644,263.61159270000644,263.61159270000644,263.61159270000644,263.61159270000644,263.61159270000644,263.61159270000644,263.61159270000644,23,0,,,263.61159270000644,263.81379529996775,1000,263.81379529996775,1000,1000,1000,1000,1,num_2,0.5033869999460876,,32,13,2026-03-12_16h20.56.176,2026A_exp2,2022.2.4,59.87751457153764,
1,0,6.1,0.0,0,0,88,88,85,,,,,264.3486915999092,264.996240099892,264.996240099892,265.49760399991646,45,45,265.49760399991646,265.49760399991646,265.49760399991646,265.49760399991646,265.49760399991646,265.49760399991646,265.49760399991646,265.49760399991646,265.49760399991646,265.8638524999842,265.8638524999842,265.8638524999842,265.8638524999842,265.8638524999842,265.8638524999842,265.8638524999842,265.8638524999842,265.8638524999842,21,1,[0.11661160015501082],[0.15011930000036955],265.8638524999842,266.06405379995704,6.1,266.06405379995704,1,6.1,1,1,1000,num_4,0.7335500998888165,,32,13,2026-03-12_16h20.56.176,2026A_exp2,2022.2.4,59.87751457153764,
1000,1,3.7,0.0,0,0,89,89,86,,,,,266.81501260004006,267.46549510001205,267.46549510001205,267.9665252000559,45,45,267.9665252000559,267.9665252000559,267.9665252000559,267.9665252000559,267.9665252000559,267.9665252000559,267.9665252000559,267.9665252000559,267.9665252000559,268.3330321998801,268.3330321998801,268.3330321998801,268.3330321998801,268.3330321998801,268.3330321998801,268.3330321998801,268.3330321998801,268.3330321998801,23,0,,,268.3330321998801,268.53505029994994,1000,268.53505029994994,1000,1000,1000,1000,0,num_3,1.3984478001948446,,32,13,2026-03-12_16h20.56.176,2026A_exp2,2022.2.4,59.87751457153764,
,,,,,,,,,,,,,,,,,,,,,,,,,,,,,,,,,,,,,,,,,,,,,,,,,,,,269.960410800064,,,,,,,
