validity,detectorcomp,contrastCW,contrastCCW,precueCWorCCW,block_80trials.thisRepN,block_80trials.thisTrialN,block_80trials.thisN,block_80trials.thisIndex,etRecord.started,etRecord.stopped,text.started,text.stopped,text_4.started,text_4.stopped,text_6.started,text_6.stopped,oriCW,oriCCW,roi_2.started,grating_UR.started,grating_UL.started,grating_LR.started,grating_LL.started,noise_UR.started,noise_UL.started,noise_LR.started,noise_LL.started,roi_2.stopped,grating_UR.stopped,grating_UL.stopped,grating_LR.stopped,grating_LL.stopped,noise_UR.stopped,noise_UL.stopped,noise_LR.stopped,noise_LL.stopped,outframe,roi_2.numLooks,roi_2.timesOn,roi_2.timesOff,text_2.started,text_2.stopped,probedcontrast,key_resp.started,respdetect,relevantContrast,correctDetect,TorFdetect,respCWorCCW,key_resp.keys,key_resp.rt,feedback_display_.started,participantNo,blockNo,date,expName,psychopyVersion,frameRate,
1000,1,6.1,3.7,0,0,0,0,18,3.379996633157134e-05,3.379996633157134e-05,65.48585539998021,67.51597940002102,67.51597940002102,68.14037510001799,68.14037510001799,68.66102739999769,315,45,68.66102739999769,68.66102739999769,68.66102739999769,68.66102739999769,68.66102739999769,68.66102739999769,68.66102739999769,68.66102739999769,68.66102739999769,69.00801729998784,69.00801729998784,69.00801729998784,69.00801729998784,69.00801729998784,69.00801729998784,69.00801729998784,69.00801729998784,69.00801729998784,23,0,,,69.00801729998784,69.21527639997657,1000,69.21527639997657,1000,1000,1000,1000,0,num_3,0.6287505999789573,,26,9,2026-03-05_11h00.24.635,2026A_exp2,2022.2.4,59.86658133149028,
1,0,4.9,3.7,0,0,1,1,63,,,,,69.86289129999932,70.509422299976,70.509422299976,71.01073769998038,45,315,71.01073769998038,71.01073769998038,71.01073769998038,71.01073769998038,71.01073769998038,71.01073769998038,71.01073769998038,71.01073769998038,71.01073769998038,71.37703219999094,71.37703219999094,71.37703219999094,71.37703219999094,71.37703219999094,71.37703219999094,71.37703219999094,71.37703219999094,71.37703219999094,12,6,"[0.00075559999095276, 0.10050860000774264, 0.18373659998178482, 0.2672239000094123, 0.3006192999891937, 0.35083439998561516]","[0.06705150002380833, 0.11717420001514256, 0.2170860000187531, 0.28403380000963807, 0.3340551999863237, 0.36746259999927133]",71.37703219999094,71.57718869997188,4.9,71.57718869997188,1,4.9,1,1,1000,num_4,0.7794212999870069,,26,9,2026-03-05_11h00.24.635,2026A_exp2,2022.2.4,59.86658133149028,
1000,1,0.0,6.1,1,0,2,2,69,,,,,72.3779698999715,73.02875009999843,73.02875009999843,73.51300709997304,45,315,73.51300709997304,73.51300709997304,73.51300709997304,73.51300709997304,73.51300709997304,73.51300709997304,73.51300709997304,73.51300709997304,73.51300709997304,73.87950599996839,73.87950599996839,73.87950599996839,73.87950599996839,73.87950599996839,73.87950599996839,73.87950599996839,73.87950599996839,73.87950599996839,23,0,,,73.87950599996839,74.07963049999671,1000,74.07963049999671,1000,1000,1000,1000,1,num_2,0.6761264000087976,,26,9,2026-03-05_11h00.24.635,2026A_exp2,2022.2.4,59.86658133149028,
1000,1,0.0,6.1,1,0,3,3,52,,,,,74.78042149997782,75.43105289997766,75.43105289997766,75.93215800001053,45,315,75.93215800001053,75.93215800001053,75.93215800001053,75.93215800001053,75.93215800001053,75.93215800001053,75.93215800001053,75.93215800001053,75.93215800001053,76.29864140000427,76.29864140000427,76.29864140000427,76.29864140000427,76.29864140000427,76.29864140000427,76.29864140000427,76.29864140000427,76.29864140000427,22,1,[0.3663348999689333],[0.36634079995565116],76.29864140000427,76.50061619997723,1000,76.50061619997723,1000,1000,1000,1000,1,num_2,0.4162443000241183,,26,9,2026-03-05_11h00.24.635,2026A_exp2,2022.2.4,59.86658133149028,
1,0,3.7,3.7,1,0,4,4,86,,,,,76.93247160001192,77.58311309997225,77.58311309997225,78.08431499998551,45,45,78.08431499998551,78.08431499998551,78.08431499998551,78.08431499998551,78.08431499998551,78.08431499998551,78.08431499998551,78.08431499998551,78.08431499998551,78.45075050002197,78.45075050002197,78.45075050002197,78.45075050002197,78.45075050002197,78.45075050002197,78.45075050002197,78.45075050002197,78.45075050002197,0,1,[0.0012238000053912401],[0.3672931999899447],78.45075050002197,78.65085610002279,3.7,78.65085610002279,1,3.7,1,1,1000,num_4,1.0011017000069842,,26,9,2026-03-05_11h00.24.635,2026A_exp2,2022.2.4,59.86658133149028,
1000,1,6.1,0.0,0,0,5,5,59,,,,,79.66864599997643,80.30249029997503,80.30249029997503,80.80346590001136,45,45,80.80346590001136,80.80346590001136,80.80346590001136,80.80346590001136,80.80346590001136,80.80346590001136,80.80346590001136,80.80346590001136,80.80346590001136,81.17003139998997,81.17003139998997,81.17003139998997,81.17003139998997,81.17003139998997,81.17003139998997,81.17003139998997,81.17003139998997,81.17003139998997,23,0,,,81.17003139998997,81.37230629997794,1000,81.37230629997794,1000,1000,1000,1000,0,num_3,0.5757570000132546,,26,9,2026-03-05_11h00.24.635,2026A_exp2,2022.2.4,59.86658133149028,
1,0,3.7,0.0,1,0,6,6,12,,,,,81.97080180002376,82.62146439997014,82.62146439997014,83.12259520002408,315,45,83.12259520002408,83.12259520002408,83.12259520002408,83.12259520002408,83.12259520002408,83.12259520002408,83.12259520002408,83.12259520002408,83.12259520002408,83.48906890000217,83.48906890000217,83.48906890000217,83.48906890000217,83.48906890000217,83.48906890000217,83.48906890000217,83.48906890000217,83.48906890000217,9,3,"[0.0012044000322930515, 0.20024640002520755, 0.2335253999917768]","[0.06682290002936497, 0.21701399999437854, 0.3671637999941595]",83.48906890000217,83.68921300000511,0.0,83.68921300000511,0,0.0,0,1,1000,num_1,1.3239841999602504,,26,9,2026-03-05_11h00.24.635,2026A_exp2,2022.2.4,59.86658133149028,
1000,1,0.0,6.1,0,0,7,7,2,,,,,85.04066900000907,85.69134489999851,85.69134489999851,86.17564079997828,315,315,86.17564079997828,86.17564079997828,86.17564079997828,86.17564079997828,86.17564079997828,86.17564079997828,86.17564079997828,86.17564079997828,86.17564079997828,86.54210640001111,86.54210640001111,86.54210640001111,86.54210640001111,86.54210640001111,86.54210640001111,86.54210640001111,86.54210640001111,86.54210640001111,23,0,,,86.54210640001111,86.7444762000232,1000,86.7444762000232,1000,1000,1000,1000,1,num_2,0.46853110002120957,,26,9,2026-03-05_11h00.24.635,2026A_exp2,2022.2.4,59.86658133149028,
1,0,3.7,0.0,0,0,8,8,8,,,,,87.24281779996818,87.8954443000257,87.8954443000257,88.39466290001292,45,45,88.39466290001292,88.39466290001292,88.39466290001292,88.39466290001292,88.39466290001292,88.39466290001292,88.39466290001292,88.39466290001292,88.39466290001292,88.76083849999122,88.76083849999122,88.76083849999122,88.76083849999122,88.76083849999122,88.76083849999122,88.76083849999122,88.76083849999122,88.76083849999122,23,0,,,88.76083849999122,88.96119870000985,3.7,88.96119870000985,1,3.7,1,1,1000,num_4,0.6834874999476597,,26,9,2026-03-05_11h00.24.635,2026A_exp2,2022.2.4,59.86658133149028,
1000,1,3.7,0.0,0,0,9,9,66,,,,,89.66186069999821,90.31258829997387,90.31258829997387,90.79704189999029,45,45,90.79704189999029,90.79704189999029,90.79704189999029,90.79704189999029,90.79704189999029,90.79704189999029,90.79704189999029,90.79704189999029,90.79704189999029,91.16326429997571,91.16326429997571,91.16326429997571,91.16326429997571,91.16326429997571,91.16326429997571,91.16326429997571,91.16326429997571,91.16326429997571,0,1,[0.0012735999771393836],[0.36704589996952564],91.16326429997571,91.36537569999928,1000,91.36537569999928,1000,1000,1000,1000,0,num_3,0.5828041000058874,,26,9,2026-03-05_11h00.24.635,2026A_exp2,2022.2.4,59.86658133149028,
1,0,0.0,0.0,1,0,10,10,21,,,,,91.96415900002467,92.61482279998017,92.61482279998017,93.11611050000647,315,45,93.11611050000647,93.11611050000647,93.11611050000647,93.11611050000647,93.11611050000647,93.11611050000647,93.11611050000647,93.11611050000647,93.11611050000647,93.48226040002191,93.48226040002191,93.48226040002191,93.48226040002191,93.48226040002191,93.48226040002191,93.48226040002191,93.48226040002191,93.48226040002191,18,5,"[0.04995489999419078, 0.2167161999968812, 0.250044499989599, 0.2835019999765791, 0.35057599999709055]","[0.06681069999467582, 0.23319089994765818, 0.2666943999938667, 0.30021699995268136, 0.3672099999967031]",93.48226040002191,93.68247830000473,0.0,93.68247830000473,0,0.0,0,1,1000,num_1,0.8422775000217371,,26,9,2026-03-05_11h00.24.635,2026A_exp2,2022.2.4,59.86658133149028,
1000,1,0.0,0.0,1,0,11,11,60,,,,,94.54996410000604,95.20087760000024,95.20087760000024,95.70025140000507,45,315,95.70025140000507,95.70025140000507,95.70025140000507,95.70025140000507,95.70025140000507,95.70025140000507,95.70025140000507,95.70025140000507,95.70025140000507,96.05162929999642,96.05162929999642,96.05162929999642,96.05162929999642,96.05162929999642,96.05162929999642,96.05162929999642,96.05162929999642,96.05162929999642,15,5,"[0.004413600021507591, 0.05637040000874549, 0.10693170002195984, 0.14828050002688542, 0.232079999987036]","[0.04395750002004206, 0.07261329999892041, 0.13378769997507334, 0.16517669998575002, 0.2821006000158377]",96.05162929999642,96.265876999998,1000,96.265876999998,1000,1000,1000,1000,1,num_2,0.7627746000071056,,26,9,2026-03-05_11h00.24.635,2026A_exp2,2022.2.4,59.86658133149028,
1000,1,0.0,6.1,0,0,12,12,35,,,,,97.05263069999637,97.70325740001863,97.70325740001863,98.20433009997942,315,45,98.20433009997942,98.20433009997942,98.20433009997942,98.20433009997942,98.20433009997942,98.20433009997942,98.20433009997942,98.20433009997942,98.20433009997942,98.57085020001978,98.57085020001978,98.57085020001978,98.57085020001978,98.57085020001978,98.57085020001978,98.57085020001978,98.57085020001978,98.57085020001978,11,4,"[0.0334281999967061, 0.0667626999784261, 0.18361270002787933, 0.26717360003385693]","[0.0501386999967508, 0.08356370002729818, 0.23367240000516176, 0.3671095999889076]",98.57085020001978,98.77275770000415,1000,98.77275770000415,1000,1000,1000,1000,1,num_2,0.4153360999771394,,26,9,2026-03-05_11h00.24.635,2026A_exp2,2022.2.4,59.86658133149028,
1000,1,0.0,6.1,0,0,13,13,75,,,,,99.20463459996972,99.85536400001729,99.85536400001729,100.35647009999957,315,45,100.35647009999957,100.35647009999957,100.35647009999957,100.35647009999957,100.35647009999957,100.35647009999957,100.35647009999957,100.35647009999957,100.35647009999957,100.72300379996886,100.72300379996886,100.72300379996886,100.72300379996886,100.72300379996886,100.72300379996886,100.72300379996886,100.72300379996886,100.72300379996886,0,1,[0.0012273999745957553],[0.36726699996506795],100.72300379996886,100.92469660000643,1000,100.92469660000643,1000,1000,1000,1000,1,num_2,0.447676700016018,,26,9,2026-03-05_11h00.24.635,2026A_exp2,2022.2.4,59.86658133149028,
0,0,0.0,0.0,0,0,14,14,70,,,,,101.39024169999175,102.0409450000152,102.0409450000152,102.54226149996975,45,45,102.54226149996975,102.54226149996975,102.54226149996975,102.54226149996975,102.54226149996975,102.54226149996975,102.54226149996975,102.54226149996975,102.54226149996975,102.90847760002362,102.90847760002362,102.90847760002362,102.90847760002362,102.90847760002362,102.90847760002362,102.90847760002362,102.90847760002362,102.90847760002362,0,1,[0.0012310000020079315],[0.36729209998156875],102.90847760002362,103.1087617999874,0.0,103.1087617999874,0,0.0,0,1,1000,num_1,0.7595573999569751,,26,9,2026-03-05_11h00.24.635,2026A_exp2,2022.2.4,59.86658133149028,
1000,1,0.0,4.9,1,0,15,15,79,,,,,103.89276299998164,104.5435394999804,104.5435394999804,105.02795999997761,315,45,105.02795999997761,105.02795999997761,105.02795999997761,105.02795999997761,105.02795999997761,105.02795999997761,105.02795999997761,105.02795999997761,105.02795999997761,105.39421459997538,105.39421459997538,105.39421459997538,105.39421459997538,105.39421459997538,105.39421459997538,105.39421459997538,105.39421459997538,105.39421459997538,23,0,,,105.39421459997538,105.59659729996929,1000,105.59659729996929,1000,1000,1000,1000,0,num_3,0.8156299000256695,,26,9,2026-03-05_11h00.24.635,2026A_exp2,2022.2.4,59.86658133149028,
1,0,4.9,3.7,1,0,16,16,10,,,,,106.42867729999125,107.07923560001655,107.07923560001655,107.58048499998404,315,45,107.58048499998404,107.58048499998404,107.58048499998404,107.58048499998404,107.58048499998404,107.58048499998404,107.58048499998404,107.58048499998404,107.58048499998404,107.94684049999341,107.94684049999341,107.94684049999341,107.94684049999341,107.94684049999341,107.94684049999341,107.94684049999341,107.94684049999341,107.94684049999341,23,0,,,107.94684049999341,108.1497023999691,3.7,108.1497023999691,0,3.7,1,0,1000,num_1,0.6394697999930941,,26,9,2026-03-05_11h00.24.635,2026A_exp2,2022.2.4,59.86658133149028,
1000,1,0.0,6.1,0,0,17,17,85,,,,,108.81451789999846,109.46511559997452,109.46511559997452,109.94952369999373,45,45,109.94952369999373,109.94952369999373,109.94952369999373,109.94952369999373,109.94952369999373,109.94952369999373,109.94952369999373,109.94952369999373,109.94952369999373,110.31592859997181,110.31592859997181,110.31592859997181,110.31592859997181,110.31592859997181,110.31592859997181,110.31592859997181,110.31592859997181,110.31592859997181,23,0,,,110.31592859997181,110.51770399999805,1000,110.51770399999805,1000,1000,1000,1000,1,num_2,0.5829101999988779,,26,9,2026-03-05_11h00.24.635,2026A_exp2,2022.2.4,59.86658133149028,
1000,1,0.0,0.0,0,0,18,18,37,,,,,111.11663080001017,111.76725889998488,111.76725889998488,112.26839230000041,315,45,112.26839230000041,112.26839230000041,112.26839230000041,112.26839230000041,112.26839230000041,112.26839230000041,112.26839230000041,112.26839230000041,112.26839230000041,112.6349642999703,112.6349642999703,112.6349642999703,112.6349642999703,112.6349642999703,112.6349642999703,112.6349642999703,112.6349642999703,112.6349642999703,23,0,,,112.6349642999703,112.83673189999536,1000,112.83673189999536,1000,1000,1000,1000,0,num_3,1.3835212999838404,,26,9,2026-03-05_11h00.24.635,2026A_exp2,2022.2.4,59.86658133149028,
1000,1,3.7,4.9,0,0,19,19,64,,,,,114.23637439997401,114.88712560001295,114.88712560001295,115.38821190001909,315,45,115.38821190001909,115.38821190001909,115.38821190001909,115.38821190001909,115.38821190001909,115.38821190001909,115.38821190001909,115.38821190001909,115.38821190001909,115.75470479996875,115.75470479996875,115.75470479996875,115.75470479996875,115.75470479996875,115.75470479996875,115.75470479996875,115.75470479996875,115.75470479996875,23,0,,,115.75470479996875,115.95687100000214,1000,115.95687100000214,1000,1000,1000,1000,0,num_3,0.5282205999828875,,26,9,2026-03-05_11h00.24.635,2026A_exp2,2022.2.4,59.86658133149028,
1000,1,0.0,4.9,0,0,20,20,5,,,,,116.50533050001832,117.1560989000136,117.1560989000136,117.6572196999914,315,315,117.6572196999914,117.6572196999914,117.6572196999914,117.6572196999914,117.6572196999914,117.6572196999914,117.6572196999914,117.6572196999914,117.6572196999914,118.02361430000747,118.02361430000747,118.02361430000747,118.02361430000747,118.02361430000747,118.02361430000747,118.02361430000747,118.02361430000747,118.02361430000747,23,0,,,118.02361430000747,118.22577670001192,1000,118.22577670001192,1000,1000,1000,1000,1,num_2,0.42727610003203154,,26,9,2026-03-05_11h00.24.635,2026A_exp2,2022.2.4,59.86658133149028,
1,0,4.9,6.1,0,0,21,21,33,,,,,118.67444540001452,119.3249115999788,119.3249115999788,119.80925869999919,315,315,119.80925869999919,119.80925869999919,119.80925869999919,119.80925869999919,119.80925869999919,119.80925869999919,119.80925869999919,119.80925869999919,119.80925869999919,120.17586570000276,120.17586570000276,120.17586570000276,120.17586570000276,120.17586570000276,120.17586570000276,120.17586570000276,120.17586570000276,120.17586570000276,21,1,[0.10020430001895875],[0.11694420001003891],120.17586570000276,120.37584120000247,4.9,120.37584120000247,1,4.9,1,1,1000,num_4,0.813231399981305,,26,9,2026-03-05_11h00.24.635,2026A_exp2,2022.2.4,59.86658133149028,
0,0,4.9,4.9,1,0,22,22,48,,,,,121.21038820000831,121.86080710001988,121.86080710001988,122.34512770001311,45,315,122.34512770001311,122.34512770001311,122.34512770001311,122.34512770001311,122.34512770001311,122.34512770001311,122.34512770001311,122.34512770001311,122.34512770001311,122.71150400000624,122.71150400000624,122.71150400000624,122.71150400000624,122.71150400000624,122.71150400000624,122.71150400000624,122.71150400000624,122.71150400000624,23,0,,,122.71150400000624,122.91170970001258,4.9,122.91170970001258,1,4.9,1,1,1000,num_4,0.7413241000031121,,26,9,2026-03-05_11h00.24.635,2026A_exp2,2022.2.4,59.86658133149028,
1000,1,0.0,0.0,0,0,23,23,15,,,,,123.67913000000408,124.3300445000059,124.3300445000059,124.81463019998046,315,315,124.81463019998046,124.81463019998046,124.81463019998046,124.81463019998046,124.81463019998046,124.81463019998046,124.81463019998046,124.81463019998046,124.81463019998046,125.18087739998009,125.18087739998009,125.18087739998009,125.18087739998009,125.18087739998009,125.18087739998009,125.18087739998009,125.18087739998009,125.18087739998009,23,0,,,125.18087739998009,125.38332730002003,1000,125.38332730002003,1000,1000,1000,1000,1,num_2,0.5406311000115238,,26,9,2026-03-05_11h00.24.635,2026A_exp2,2022.2.4,59.86658133149028,
1,0,0.0,0.0,0,0,24,24,51,,,,,125.94814870000118,126.59873869997682,126.59873869997682,127.10004519997165,315,45,127.10004519997165,127.10004519997165,127.10004519997165,127.10004519997165,127.10004519997165,127.10004519997165,127.10004519997165,127.10004519997165,127.10004519997165,127.46626969997305,127.46626969997305,127.46626969997305,127.46626969997305,127.46626969997305,127.46626969997305,127.46626969997305,127.46626969997305,127.46626969997305,23,0,,,127.46626969997305,127.66658179997467,0.0,127.66658179997467,1,0.0,0,0,1000,num_4,0.8495251999702305,,26,9,2026-03-05_11h00.24.635,2026A_exp2,2022.2.4,59.86658133149028,
1000,1,6.1,0.0,0,0,25,25,89,,,,,128.53400370001327,129.18465860001743,129.18465860001743,129.66917720000492,315,45,129.66917720000492,129.66917720000492,129.66917720000492,129.66917720000492,129.66917720000492,129.66917720000492,129.66917720000492,129.66917720000492,129.66917720000492,130.03573699999833,130.03573699999833,130.03573699999833,130.03573699999833,130.03573699999833,130.03573699999833,130.03573699999833,130.03573699999833,130.03573699999833,22,1,[0.1002769999904558],[0.11691909999353811],130.03573699999833,130.23611280001933,1000,130.23611280001933,1000,1000,1000,1000,0,num_3,0.5203206000151113,,26,9,2026-03-05_11h00.24.635,2026A_exp2,2022.2.4,59.86658133149028,
1000,1,6.1,4.9,0,0,26,26,49,,,,,130.786248599994,131.4370461999788,131.4370461999788,131.93817410001066,45,45,131.93817410001066,131.93817410001066,131.93817410001066,131.93817410001066,131.93817410001066,131.93817410001066,131.93817410001066,131.93817410001066,131.93817410001066,132.2879391000024,132.2879391000024,132.2879391000024,132.2879391000024,132.2879391000024,132.2879391000024,132.2879391000024,132.2879391000024,132.2879391000024,22,0,,,132.2879391000024,132.5016581999953,1000,132.5016581999953,1000,1000,1000,1000,0,num_3,0.44754399999510497,,26,9,2026-03-05_11h00.24.635,2026A_exp2,2022.2.4,59.86658133149028,
1,0,4.9,0.0,1,0,27,27,25,,,,,132.97184519999428,133.6226161000086,133.6226161000086,134.12361930002226,45,45,134.12361930002226,134.12361930002226,134.12361930002226,134.12361930002226,134.12361930002226,134.12361930002226,134.12361930002226,134.12361930002226,134.12361930002226,134.48997350002173,134.48997350002173,134.48997350002173,134.48997350002173,134.48997350002173,134.48997350002173,134.48997350002173,134.48997350002173,134.48997350002173,23,0,,,134.48997350002173,134.6902582999901,0.0,134.6902582999901,0,0.0,0,1,1000,num_1,0.7785499999881722,,26,9,2026-03-05_11h00.24.635,2026A_exp2,2022.2.4,59.86658133149028,
1000,1,0.0,4.9,1,0,28,28,55,,,,,135.4908900000155,136.1417492000037,136.1417492000037,136.6261423000251,315,315,136.6261423000251,136.6261423000251,136.6261423000251,136.6261423000251,136.6261423000251,136.6261423000251,136.6261423000251,136.6261423000251,136.6261423000251,136.9925471000024,136.9925471000024,136.9925471000024,136.9925471000024,136.9925471000024,136.9925471000024,136.9925471000024,136.9925471000024,136.9925471000024,23,0,,,136.9925471000024,137.19454810000025,1000,137.19454810000025,1000,1000,1000,1000,1,num_2,0.5618313999730162,,26,9,2026-03-05_11h00.24.635,2026A_exp2,2022.2.4,59.86658133149028,
1,0,0.0,6.1,0,0,29,29,43,,,,,137.77660929999547,138.42734589998145,138.42734589998145,138.92851150000934,315,315,138.92851150000934,138.92851150000934,138.92851150000934,138.92851150000934,138.92851150000934,138.92851150000934,138.92851150000934,138.92851150000934,138.92851150000934,139.29491170000983,139.29491170000983,139.29491170000983,139.29491170000983,139.29491170000983,139.29491170000983,139.29491170000983,139.29491170000983,139.29491170000983,22,1,[0.20021590002579615],[0.2170134999905713],139.29491170000983,139.49509099998977,0.0,139.49509099998977,0,0.0,0,1,1000,num_1,0.653826099995058,,26,9,2026-03-05_11h00.24.635,2026A_exp2,2022.2.4,59.86658133149028,
0,0,6.1,6.1,0,0,30,30,42,,,,,140.17904359998647,140.82962679996854,140.82962679996854,141.3303361000144,315,315,141.3303361000144,141.3303361000144,141.3303361000144,141.3303361000144,141.3303361000144,141.3303361000144,141.3303361000144,141.3303361000144,141.3303361000144,141.68025119998492,141.68025119998492,141.68025119998492,141.68025119998492,141.68025119998492,141.68025119998492,141.68025119998492,141.68025119998492,141.68025119998492,0,1,[0.00429369998164475],[0.3632573999930173],141.68025119998492,141.88073009997606,6.1,141.88073009997606,1,6.1,1,1,1000,num_4,0.9315570000326261,,26,9,2026-03-05_11h00.24.635,2026A_exp2,2022.2.4,59.86658133149028,
1000,1,3.7,6.1,1,0,31,31,29,,,,,142.8316812000121,143.48239740001736,143.48239740001736,143.96687359997304,45,315,143.96687359997304,143.96687359997304,143.96687359997304,143.96687359997304,143.96687359997304,143.96687359997304,143.96687359997304,143.96687359997304,143.96687359997304,144.333292299998,144.333292299998,144.333292299998,144.333292299998,144.333292299998,144.333292299998,144.333292299998,144.333292299998,144.333292299998,11,9,"[0.0012381999986246228, 0.050049399957060814, 0.10018909996142611, 0.13343029998941347, 0.20016199996462092, 0.23362749995430931, 0.28379779995884746, 0.3170595999690704, 0.35036409995518625]","[0.03351539996219799, 0.08341379999183118, 0.11669749999418855, 0.16696699999738485, 0.21692839998286217, 0.2503407999756746, 0.3003305999445729, 0.33369699999457225, 0.36711799999466166]",144.333292299998,144.53550080000423,1000,144.53550080000423,1000,1000,1000,1000,1,num_2,0.9089030000031926,,26,9,2026-03-05_11h00.24.635,2026A_exp2,2022.2.4,59.86658133149028,
1,0,0.0,0.0,1,0,32,32,41,,,,,145.46760500001255,146.11817460000748,146.11817460000748,146.61962920002406,315,45,146.61962920002406,146.61962920002406,146.61962920002406,146.61962920002406,146.61962920002406,146.61962920002406,146.61962920002406,146.61962920002406,146.61962920002406,146.9859464999754,146.9859464999754,146.9859464999754,146.9859464999754,146.9859464999754,146.9859464999754,146.9859464999754,146.9859464999754,146.9859464999754,23,0,,,146.9859464999754,147.1861734999693,0.0,147.1861734999693,1,0.0,0,0,1000,num_4,0.8739742999896407,,26,9,2026-03-05_11h00.24.635,2026A_exp2,2022.2.4,59.86658133149028,
1,0,6.1,3.7,0,0,33,33,31,,,,,148.08702069998253,148.73778359999415,148.73778359999415,149.23872059996938,315,315,149.23872059996938,149.23872059996938,149.23872059996938,149.23872059996938,149.23872059996938,149.23872059996938,149.23872059996938,149.23872059996938,149.23872059996938,149.58852160000242,149.58852160000242,149.58852160000242,149.58852160000242,149.58852160000242,149.58852160000242,149.58852160000242,149.58852160000242,149.58852160000242,22,0,,,149.58852160000242,149.78869830002077,6.1,149.78869830002077,1,6.1,1,1,1000,num_4,1.4471728000207804,,26,9,2026-03-05_11h00.24.635,2026A_exp2,2022.2.4,59.86658133149028,
1,0,0.0,3.7,0,0,34,34,61,,,,,151.2568350000074,151.89074850000907,151.89074850000907,152.39193949999753,45,45,152.39193949999753,152.39193949999753,152.39193949999753,152.39193949999753,152.39193949999753,152.39193949999753,152.39193949999753,152.39193949999753,152.39193949999753,152.75834479997866,152.75834479997866,152.75834479997866,152.75834479997866,152.75834479997866,152.75834479997866,152.75834479997866,152.75834479997866,152.75834479997866,23,0,,,152.75834479997866,152.95842520002043,0.0,152.95842520002043,1,0.0,0,0,1000,num_4,0.870088100025896,,26,9,2026-03-05_11h00.24.635,2026A_exp2,2022.2.4,59.86658133149028,
1,0,3.7,4.9,0,0,35,35,76,,,,,153.85937169997487,154.51009789999807,154.51009789999807,154.9944383999682,315,315,154.9944383999682,154.9944383999682,154.9944383999682,154.9944383999682,154.9944383999682,154.9944383999682,154.9944383999682,154.9944383999682,154.9944383999682,155.3608598000137,155.3608598000137,155.3608598000137,155.3608598000137,155.3608598000137,155.3608598000137,155.3608598000137,155.3608598000137,155.3608598000137,23,0,,,155.3608598000137,155.5611281999736,3.7,155.5611281999736,1,3.7,1,1,1000,num_4,0.8037287999759428,,26,9,2026-03-05_11h00.24.635,2026A_exp2,2022.2.4,59.86658133149028,
1000,1,0.0,0.0,0,0,36,36,87,,,,,156.39540510001825,157.04589329997543,157.04589329997543,157.5302841999801,45,45,157.5302841999801,157.5302841999801,157.5302841999801,157.5302841999801,157.5302841999801,157.5302841999801,157.5302841999801,157.5302841999801,157.5302841999801,157.89683380001225,157.89683380001225,157.89683380001225,157.89683380001225,157.89683380001225,157.89683380001225,157.89683380001225,157.89683380001225,157.89683380001225,23,0,,,157.89683380001225,158.09883390000323,1000,158.09883390000323,1000,1000,1000,1000,0,num_3,0.8251095000305213,,26,9,2026-03-05_11h00.24.635,2026A_exp2,2022.2.4,59.86658133149028,
1000,1,0.0,3.7,0,0,37,37,57,,,,,158.94776690000435,159.59839820000343,159.59839820000343,160.0996676000068,45,45,160.0996676000068,160.0996676000068,160.0996676000068,160.0996676000068,160.0996676000068,160.0996676000068,160.0996676000068,160.0996676000068,160.0996676000068,160.46606559999054,160.46606559999054,160.46606559999054,160.46606559999054,160.46606559999054,160.46606559999054,160.46606559999054,160.46606559999054,160.46606559999054,23,0,,,160.46606559999054,160.66830319998553,1000,160.66830319998553,1000,1000,1000,1000,0,num_3,0.5606865999870934,,26,9,2026-03-05_11h00.24.635,2026A_exp2,2022.2.4,59.86658133149028,
1,0,4.9,3.7,1,0,38,38,26,,,,,161.25007780001033,161.90087630000198,161.90087630000198,162.4017227999866,45,45,162.4017227999866,162.4017227999866,162.4017227999866,162.4017227999866,162.4017227999866,162.4017227999866,162.4017227999866,162.4017227999866,162.4017227999866,162.76831219997257,162.76831219997257,162.76831219997257,162.76831219997257,162.76831219997257,162.76831219997257,162.76831219997257,162.76831219997257,162.76831219997257,23,0,,,162.76831219997257,162.9686172999791,3.7,162.9686172999791,1,3.7,1,1,1000,num_4,0.7871534000150859,,26,9,2026-03-05_11h00.24.635,2026A_exp2,2022.2.4,59.86658133149028,
1,0,4.9,3.7,0,0,39,39,9,,,,,163.78594319999684,164.43665649998002,164.43665649998002,164.92115760000888,315,45,164.92115760000888,164.92115760000888,164.92115760000888,164.92115760000888,164.92115760000888,164.92115760000888,164.92115760000888,164.92115760000888,164.92115760000888,165.2875786999939,165.2875786999939,165.2875786999939,165.2875786999939,165.2875786999939,165.2875786999939,165.2875786999939,165.2875786999939,165.2875786999939,23,0,,,165.2875786999939,165.48775349999778,4.9,165.48775349999778,1,4.9,1,1,1000,num_4,0.7967876000329852,,26,9,2026-03-05_11h00.24.635,2026A_exp2,2022.2.4,59.86658133149028,
1000,1,0.0,6.1,1,0,40,40,19,,,,,166.3051030000206,166.95595530001447,166.95595530001447,167.44025889999466,45,45,167.44025889999466,167.44025889999466,167.44025889999466,167.44025889999466,167.44025889999466,167.44025889999466,167.44025889999466,167.44025889999466,167.44025889999466,167.80656090000411,167.80656090000411,167.80656090000411,167.80656090000411,167.80656090000411,167.80656090000411,167.80656090000411,167.80656090000411,167.80656090000411,23,0,,,167.80656090000411,168.00932309997734,1000,168.00932309997734,1000,1000,1000,1000,1,num_2,0.4591251999954693,,26,9,2026-03-05_11h00.24.635,2026A_exp2,2022.2.4,59.86658133149028,
1,0,6.1,4.9,0,0,41,41,81,,,,,168.49071290000575,169.1413739999989,169.1413739999989,169.64239659998566,45,315,169.64239659998566,169.64239659998566,169.64239659998566,169.64239659998566,169.64239659998566,169.64239659998566,169.64239659998566,169.64239659998566,169.64239659998566,169.99211489997106,169.99211489997106,169.99211489997106,169.99211489997106,169.99211489997106,169.99211489997106,169.99211489997106,169.99211489997106,169.99211489997106,22,0,,,169.99211489997106,170.1924752999912,6.1,170.20909730001586,1,6.1,1,1,1000,num_4,0.6910032999585383,,26,9,2026-03-05_11h00.24.635,2026A_exp2,2022.2.4,59.86658133149028,
1,0,0.0,4.9,1,0,42,42,1,,,,,170.9263278999715,171.57722809998086,171.57722809998086,172.0616770000197,45,315,172.0616770000197,172.0616770000197,172.0616770000197,172.0616770000197,172.0616770000197,172.0616770000197,172.0616770000197,172.0616770000197,172.0616770000197,172.42802469996968,172.42802469996968,172.42802469996968,172.42802469996968,172.42802469996968,172.42802469996968,172.42802469996968,172.42802469996968,172.42802469996968,23,0,,,172.42802469996968,172.62814270000672,4.9,172.62814270000672,1,4.9,1,1,1000,num_4,0.6801624000072479,,26,9,2026-03-05_11h00.24.635,2026A_exp2,2022.2.4,59.86658133149028,
1000,1,0.0,3.7,1,0,43,43,65,,,,,173.3287743999972,173.9793644999736,173.9793644999736,174.46405030001188,45,315,174.46405030001188,174.46405030001188,174.46405030001188,174.46405030001188,174.46405030001188,174.46405030001188,174.46405030001188,174.46405030001188,174.46405030001188,174.83045850001508,174.83045850001508,174.83045850001508,174.83045850001508,174.83045850001508,174.83045850001508,174.83045850001508,174.83045850001508,174.83045850001508,23,0,,,174.83045850001508,175.0325950999977,1000,175.0325950999977,1000,1000,1000,1000,1,num_2,0.49936780001735315,,26,9,2026-03-05_11h00.24.635,2026A_exp2,2022.2.4,59.86658133149028,
1,0,0.0,0.0,0,0,44,44,17,,,,,175.54768129996955,176.19846470002085,176.19846470002085,176.6996190000209,45,315,176.6996190000209,176.6996190000209,176.6996190000209,176.6996190000209,176.6996190000209,176.6996190000209,176.6996190000209,176.6996190000209,176.6996190000209,177.06605329999002,177.06605329999002,177.06605329999002,177.06605329999002,177.06605329999002,177.06605329999002,177.06605329999002,177.06605329999002,177.06605329999002,23,0,,,177.06605329999002,177.26606709999032,0.0,177.26606709999032,1,0.0,0,0,1000,num_4,0.5302165999892168,,26,9,2026-03-05_11h00.24.635,2026A_exp2,2022.2.4,59.86658133149028,
1000,1,0.0,0.0,1,0,45,45,46,,,,,177.81661490001716,178.46735220000846,178.46735220000846,178.96852429996943,315,315,178.96852429996943,178.96852429996943,178.96852429996943,178.96852429996943,178.96852429996943,178.96852429996943,178.96852429996943,178.96852429996943,178.96852429996943,179.33496529998956,179.33496529998956,179.33496529998956,179.33496529998956,179.33496529998956,179.33496529998956,179.33496529998956,179.33496529998956,179.33496529998956,23,0,,,179.33496529998956,179.53683120000642,1000,179.53683120000642,1000,1000,1000,1000,1,num_2,0.515231599973049,,26,9,2026-03-05_11h00.24.635,2026A_exp2,2022.2.4,59.86658133149028,
1,0,0.0,0.0,1,0,46,46,24,,,,,180.0688490999746,180.71950619999552,180.71950619999552,181.22077150002588,315,315,181.22077150002588,181.22077150002588,181.22077150002588,181.22077150002588,181.22077150002588,181.22077150002588,181.22077150002588,181.22077150002588,181.22077150002588,181.57046610000543,181.57046610000543,181.57046610000543,181.57046610000543,181.57046610000543,181.57046610000543,181.57046610000543,181.57046610000543,181.57046610000543,22,0,,,181.57046610000543,181.77068959997268,0.0,181.78745120001258,0,0.0,0,1,1000,num_1,1.3525038000079803,,26,9,2026-03-05_11h00.24.635,2026A_exp2,2022.2.4,59.86658133149028,
1000,1,3.7,4.9,0,0,47,47,80,,,,,183.172168900026,183.82275789999403,183.82275789999403,184.30703149997862,315,45,184.30703149997862,184.30703149997862,184.30703149997862,184.30703149997862,184.30703149997862,184.30703149997862,184.30703149997862,184.30703149997862,184.30703149997862,184.67362949997187,184.67362949997187,184.67362949997187,184.67362949997187,184.67362949997187,184.67362949997187,184.67362949997187,184.67362949997187,184.67362949997187,23,0,,,184.67362949997187,184.87565519998316,1000,184.87565519998316,1000,1000,1000,1000,0,num_3,0.5372126000002027,,26,9,2026-03-05_11h00.24.635,2026A_exp2,2022.2.4,59.86658133149028,
1000,1,0.0,0.0,0,0,48,48,7,,,,,185.44092119997367,186.0917428000248,186.0917428000248,186.59296949999407,45,45,186.59296949999407,186.59296949999407,186.59296949999407,186.59296949999407,186.59296949999407,186.59296949999407,186.59296949999407,186.59296949999407,186.59296949999407,186.9425100000226,186.9425100000226,186.9425100000226,186.9425100000226,186.9425100000226,186.9425100000226,186.9425100000226,186.9425100000226,186.9425100000226,6,3,"[0.032956600014586, 0.09969579998869449, 0.1497609000070952]","[0.04975710000144318, 0.13316750002559274, 0.3504821000387892]",186.9425100000226,187.14457639999455,1000,187.1595254999702,1000,1000,1000,1000,1,num_2,0.580922199995257,,26,9,2026-03-05_11h00.24.635,2026A_exp2,2022.2.4,59.86658133149028,
1000,1,6.1,4.9,0,0,49,49,68,,,,,187.7598359999829,188.4105732999742,188.4105732999742,188.91173019999405,315,45,188.91173019999405,188.91173019999405,188.91173019999405,188.91173019999405,188.91173019999405,188.91173019999405,188.91173019999405,188.91173019999405,188.91173019999405,189.27805349999107,189.27805349999107,189.27805349999107,189.27805349999107,189.27805349999107,189.27805349999107,189.27805349999107,189.27805349999107,189.27805349999107,23,0,,,189.27805349999107,189.48023139999714,1000,189.48023139999714,1000,1000,1000,1000,0,num_3,0.468528299999889,,26,9,2026-03-05_11h00.24.635,2026A_exp2,2022.2.4,59.86658133149028,
1000,1,0.0,0.0,1,0,50,50,23,,,,,189.97883659997024,190.62959590001265,190.62959590001265,191.13069800002268,315,315,191.13069800002268,191.13069800002268,191.13069800002268,191.13069800002268,191.13069800002268,191.13069800002268,191.13069800002268,191.13069800002268,191.13069800002268,191.49696349998703,191.49696349998703,191.49696349998703,191.49696349998703,191.49696349998703,191.49696349998703,191.49696349998703,191.49696349998703,191.49696349998703,23,0,,,191.49696349998703,191.69976970000425,1000,191.69976970000425,1000,1000,1000,1000,1,num_2,0.4572434999863617,,26,9,2026-03-05_11h00.24.635,2026A_exp2,2022.2.4,59.86658133149028,
1000,1,0.0,6.1,1,0,51,51,3,,,,,192.18104809999932,192.83163630001945,192.83163630001945,193.33276149997255,315,315,193.33276149997255,193.33276149997255,193.33276149997255,193.33276149997255,193.33276149997255,193.33276149997255,193.33276149997255,193.33276149997255,193.33276149997255,193.68263809999917,193.68263809999917,193.68263809999917,193.68263809999917,193.68263809999917,193.68263809999917,193.68263809999917,193.68263809999917,193.68263809999917,22,0,,,193.68263809999917,193.8841953999945,1000,193.89955400000326,1000,1000,1000,1000,1,num_2,0.321479799982626,,26,9,2026-03-05_11h00.24.635,2026A_exp2,2022.2.4,59.86658133149028,
1000,1,0.0,0.0,0,0,52,52,6,,,,,194.24975149997044,194.90048509999178,194.90048509999178,195.40143520000856,45,45,195.40143520000856,195.40143520000856,195.40143520000856,195.40143520000856,195.40143520000856,195.40143520000856,195.40143520000856,195.40143520000856,195.40143520000856,195.76804080000147,195.76804080000147,195.76804080000147,195.76804080000147,195.76804080000147,195.76804080000147,195.76804080000147,195.76804080000147,195.76804080000147,23,0,,,195.76804080000147,195.97052520001307,1000,195.97052520001307,1000,1000,1000,1000,1,num_2,0.4500417999806814,,26,9,2026-03-05_11h00.24.635,2026A_exp2,2022.2.4,59.86658133149028,
1000,1,0.0,6.1,1,0,53,53,62,,,,,196.45198279997567,197.10273849999066,197.10273849999066,197.60368880000897,45,45,197.60368880000897,197.60368880000897,197.60368880000897,197.60368880000897,197.60368880000897,197.60368880000897,197.60368880000897,197.60368880000897,197.60368880000897,197.953564299969,197.953564299969,197.953564299969,197.953564299969,197.953564299969,197.953564299969,197.953564299969,197.953564299969,197.953564299969,22,0,,,197.953564299969,198.15512489998946,1000,198.15512489998946,1000,1000,1000,1000,1,num_2,0.4005913999862969,,26,9,2026-03-05_11h00.24.635,2026A_exp2,2022.2.4,59.86658133149028,
1000,1,0.0,4.9,0,0,54,54,74,,,,,198.5707513000234,199.2215807000175,199.2215807000175,199.72244430001592,45,315,199.72244430001592,199.72244430001592,199.72244430001592,199.72244430001592,199.72244430001592,199.72244430001592,199.72244430001592,199.72244430001592,199.72244430001592,200.08904649998294,200.08904649998294,200.08904649998294,200.08904649998294,200.08904649998294,200.08904649998294,200.08904649998294,200.08904649998294,200.08904649998294,20,1,[0.0011977999820373952],[0.03338189999340102],200.08904649998294,200.29144810000435,1000,200.29144810000435,1000,1000,1000,1000,1,num_2,0.4417721999925561,,26,9,2026-03-05_11h00.24.635,2026A_exp2,2022.2.4,59.86658133149028,
1000,1,3.7,0.0,1,0,55,55,54,,,,,200.75627319997875,201.4070249000215,201.4070249000215,201.90803970000707,315,45,201.90803970000707,201.90803970000707,201.90803970000707,201.90803970000707,201.90803970000707,201.90803970000707,201.90803970000707,201.90803970000707,201.90803970000707,202.27447120001307,202.27447120001307,202.27447120001307,202.27447120001307,202.27447120001307,202.27447120001307,202.27447120001307,202.27447120001307,202.27447120001307,23,0,,,202.27447120001307,202.47652510000626,1000,202.47652510000626,1000,1000,1000,1000,0,num_3,0.40855509997345507,,26,9,2026-03-05_11h00.24.635,2026A_exp2,2022.2.4,59.86658133149028,
1,0,3.7,4.9,1,0,56,56,71,,,,,202.9083888999885,203.55914420000045,203.55914420000045,204.0603083000169,45,315,204.0603083000169,204.0603083000169,204.0603083000169,204.0603083000169,204.0603083000169,204.0603083000169,204.0603083000169,204.0603083000169,204.0603083000169,204.42671299999347,204.42671299999347,204.42671299999347,204.42671299999347,204.42671299999347,204.42671299999347,204.42671299999347,204.42671299999347,204.42671299999347,23,0,,,204.42671299999347,204.62695299996994,4.9,204.62695299996994,1,4.9,1,1,1000,num_4,0.7934618000290357,,26,9,2026-03-05_11h00.24.635,2026A_exp2,2022.2.4,59.86658133149028,
1,0,0.0,6.1,0,0,57,57,82,,,,,205.44440039998153,206.09503700002097,206.09503700002097,206.57934709999245,45,315,206.57934709999245,206.57934709999245,206.57934709999245,206.57934709999245,206.57934709999245,206.57934709999245,206.57934709999245,206.57934709999245,206.57934709999245,206.94582590000937,206.94582590000937,206.94582590000937,206.94582590000937,206.94582590000937,206.94582590000937,206.94582590000937,206.94582590000937,206.94582590000937,23,0,,,206.94582590000937,207.14601899997797,0.0,207.14601899997797,0,0.0,0,1,1000,num_1,0.9068398999515921,,26,9,2026-03-05_11h00.24.635,2026A_exp2,2022.2.4,59.86658133149028,
0,0,3.7,6.1,0,0,58,58,73,,,,,208.08210479997797,208.73100620001787,208.73100620001787,209.23203700000886,315,315,209.23203700000886,209.23203700000886,209.23203700000886,209.23203700000886,209.23203700000886,209.23203700000886,209.23203700000886,209.23203700000886,209.23203700000886,209.59846329997526,209.59846329997526,209.59846329997526,209.59846329997526,209.59846329997526,209.59846329997526,209.59846329997526,209.59846329997526,209.59846329997526,23,0,,,209.59846329997526,209.79865559999598,6.1,209.79865559999598,1,6.1,1,1,1000,num_4,0.5491902999929152,,26,9,2026-03-05_11h00.24.635,2026A_exp2,2022.2.4,59.86658133149028,
1,0,3.7,6.1,1,0,59,59,77,,,,,210.36599020002177,211.01647269999376,211.01647269999376,211.5010229999898,315,45,211.5010229999898,211.5010229999898,211.5010229999898,211.5010229999898,211.5010229999898,211.5010229999898,211.5010229999898,211.5010229999898,211.5010229999898,211.8669821000076,211.8669821000076,211.8669821000076,211.8669821000076,211.8669821000076,211.8669821000076,211.8669821000076,211.8669821000076,211.8669821000076,23,0,,,211.8669821000076,212.06767959997524,6.1,212.06767959997524,1,6.1,1,1,1000,num_4,0.4895113000529818,,26,9,2026-03-05_11h00.24.635,2026A_exp2,2022.2.4,59.86658133149028,
1,0,0.0,0.0,0,0,60,60,34,,,,,212.5849911000114,213.23543379997136,213.23543379997136,213.71975739998743,315,315,213.71975739998743,213.71975739998743,213.71975739998743,213.71975739998743,213.71975739998743,213.71975739998743,213.71975739998743,213.71975739998743,213.71975739998743,214.08629489998566,214.08629489998566,214.08629489998566,214.08629489998566,214.08629489998566,214.08629489998566,214.08629489998566,214.08629489998566,214.08629489998566,23,0,,,214.08629489998566,214.2866221999866,0.0,214.2866221999866,0,0.0,0,1,1000,num_1,1.5425867000012659,,26,9,2026-03-05_11h00.24.635,2026A_exp2,2022.2.4,59.86658133149028,
0,0,0.0,3.7,0,0,61,61,47,,,,,215.85493249999126,216.50545360002434,216.50545360002434,216.98973869998008,45,315,216.98973869998008,216.98973869998008,216.98973869998008,216.98973869998008,216.98973869998008,216.98973869998008,216.98973869998008,216.98973869998008,216.98973869998008,217.35640280001098,217.35640280001098,217.35640280001098,217.35640280001098,217.35640280001098,217.35640280001098,217.35640280001098,217.35640280001098,217.35640280001098,23,0,,,217.35640280001098,217.5664391000173,3.7,217.5664391000173,1,3.7,1,1,1000,num_4,0.5016929000266828,,26,9,2026-03-05_11h00.24.635,2026A_exp2,2022.2.4,59.86658133149028,
0,0,6.1,0.0,1,0,62,62,30,,,,,218.09019550000085,218.74091400002362,218.74091400002362,219.22546490002424,315,45,219.22546490002424,219.22546490002424,219.22546490002424,219.22546490002424,219.22546490002424,219.22546490002424,219.22546490002424,219.22546490002424,219.22546490002424,219.59182159998454,219.59182159998454,219.59182159998454,219.59182159998454,219.59182159998454,219.59182159998454,219.59182159998454,219.59182159998454,219.59182159998454,23,0,,,219.59182159998454,219.79199860000517,6.1,219.79199860000517,1,6.1,1,1,1000,num_4,0.6848099999479018,,26,9,2026-03-05_11h00.24.635,2026A_exp2,2022.2.4,59.86658133149028,
1,0,4.9,4.9,0,0,63,63,84,,,,,220.49255610001273,221.14345719997073,221.14345719997073,221.62788059999002,45,45,221.62788059999002,221.62788059999002,221.62788059999002,221.62788059999002,221.62788059999002,221.62788059999002,221.62788059999002,221.62788059999002,221.62788059999002,221.99415029998636,221.99415029998636,221.99415029998636,221.99415029998636,221.99415029998636,221.99415029998636,221.99415029998636,221.99415029998636,221.99415029998636,23,0,,,221.99415029998636,222.19449399999576,4.9,222.19449399999576,1,4.9,1,1,1000,num_4,0.745820099953562,,26,9,2026-03-05_11h00.24.635,2026A_exp2,2022.2.4,59.86658133149028,
1000,1,0.0,0.0,0,0,64,64,67,,,,,222.96175550000044,223.61247669998556,223.61247669998556,224.1102094000089,315,45,224.1102094000089,224.1102094000089,224.1102094000089,224.1102094000089,224.1102094000089,224.1102094000089,224.1102094000089,224.1102094000089,224.1102094000089,224.4634957999806,224.4634957999806,224.4634957999806,224.4634957999806,224.4634957999806,224.4634957999806,224.4634957999806,224.4634957999806,224.4634957999806,23,0,,,224.4634957999806,224.67422250000527,1000,224.67422250000527,1000,1000,1000,1000,1,num_2,0.706595900002867,,26,9,2026-03-05_11h00.24.635,2026A_exp2,2022.2.4,59.86658133149028,
1,0,4.9,0.0,0,0,65,65,4,,,,,225.3975532000186,226.0483018999803,226.0483018999803,226.54945749999024,315,315,226.54945749999024,226.54945749999024,226.54945749999024,226.54945749999024,226.54945749999024,226.54945749999024,226.54945749999024,226.54945749999024,226.54945749999024,226.91586249996908,226.91586249996908,226.91586249996908,226.91586249996908,226.91586249996908,226.91586249996908,226.91586249996908,226.91586249996908,226.91586249996908,23,0,,,226.91586249996908,227.1159328999929,4.9,227.1159328999929,1,4.9,1,1,1000,num_4,0.6646223999559879,,26,9,2026-03-05_11h00.24.635,2026A_exp2,2022.2.4,59.86658133149028,
1000,1,3.7,0.0,1,0,66,66,88,,,,,227.80004479998024,228.4340085000149,228.4340085000149,228.9350165000069,45,45,228.9350165000069,228.9350165000069,228.9350165000069,228.9350165000069,228.9350165000069,228.9350165000069,228.9350165000069,228.9350165000069,228.9350165000069,229.30158939998364,229.30158939998364,229.30158939998364,229.30158939998364,229.30158939998364,229.30158939998364,229.30158939998364,229.30158939998364,229.30158939998364,23,0,,,229.30158939998364,229.5036545000039,1000,229.5036545000039,1000,1000,1000,1000,1,num_2,0.885046599956695,,26,9,2026-03-05_11h00.24.635,2026A_exp2,2022.2.4,59.86658133149028,
1000,1,3.7,0.0,0,0,67,67,32,,,,,230.41917399998056,231.0700388000114,231.0700388000114,231.57112510001753,315,315,231.57112510001753,231.57112510001753,231.57112510001753,231.57112510001753,231.57112510001753,231.57112510001753,231.57112510001753,231.57112510001753,231.57112510001753,231.9376220999984,231.9376220999984,231.9376220999984,231.9376220999984,231.9376220999984,231.9376220999984,231.9376220999984,231.9376220999984,231.9376220999984,23,0,,,231.9376220999984,232.1379564999952,1000,232.1379564999952,1000,1000,1000,1000,0,num_3,0.9792647999711335,,26,9,2026-03-05_11h00.24.635,2026A_exp2,2022.2.4,59.86658133149028,
1000,1,0.0,0.0,1,0,68,68,16,,,,,233.13877129997127,233.78940339997644,233.78940339997644,234.29063559998758,315,315,234.29063559998758,234.29063559998758,234.29063559998758,234.29063559998758,234.29063559998758,234.29063559998758,234.29063559998758,234.29063559998758,234.29063559998758,234.64014680002583,234.64014680002583,234.64014680002583,234.64014680002583,234.64014680002583,234.64014680002583,234.64014680002583,234.64014680002583,234.64014680002583,22,0,,,234.64014680002583,234.8420979999937,1000,234.85708529996919,1000,1000,1000,1000,0,num_3,0.4588552000350319,,26,9,2026-03-05_11h00.24.635,2026A_exp2,2022.2.4,59.86658133149028,
0,0,0.0,3.7,0,0,69,69,83,,,,,235.3408889999846,235.9916288999957,235.9916288999957,236.49281819997123,45,315,236.49281819997123,236.49281819997123,236.49281819997123,236.49281819997123,236.49281819997123,236.49281819997123,236.49281819997123,236.49281819997123,236.49281819997123,236.8591308000032,236.8591308000032,236.8591308000032,236.8591308000032,236.8591308000032,236.8591308000032,236.8591308000032,236.8591308000032,236.8591308000032,23,0,,,236.8591308000032,237.05934290000005,3.7,237.05934290000005,1,3.7,1,1,1000,num_4,0.6492863999446854,,26,9,2026-03-05_11h00.24.635,2026A_exp2,2022.2.4,59.86658133149028,
1000,1,4.9,0.0,0,0,70,70,50,,,,,237.72668109997176,238.37121160002425,238.37121160002425,238.8663265000214,45,45,238.8663265000214,238.8663265000214,238.8663265000214,238.8663265000214,238.8663265000214,238.8663265000214,238.8663265000214,238.8663265000214,238.8663265000214,239.22829669999192,239.22829669999192,239.22829669999192,239.22829669999192,239.22829669999192,239.22829669999192,239.22829669999192,239.22829669999192,239.22829669999192,23,0,,,239.22829669999192,239.4407293999684,1000,239.4407293999684,1000,1000,1000,1000,0,num_3,0.49104469997109845,,26,9,2026-03-05_11h00.24.635,2026A_exp2,2022.2.4,59.86658133149028,
1,0,0.0,0.0,0,0,71,71,44,,,,,239.96200429997407,240.61276519997045,240.61276519997045,241.11402189999353,45,315,241.11402189999353,241.11402189999353,241.11402189999353,241.11402189999353,241.11402189999353,241.11402189999353,241.11402189999353,241.11402189999353,241.11402189999353,241.4636853999691,241.4636853999691,241.4636853999691,241.4636853999691,241.4636853999691,241.4636853999691,241.4636853999691,241.4636853999691,241.4636853999691,22,0,,,241.4636853999691,241.66396269999677,0.0,241.6806901000091,0,0.0,0,1,1000,num_1,1.5239087999798357,,26,9,2026-03-05_11h00.24.635,2026A_exp2,2022.2.4,59.86658133149028,
1000,1,0.0,0.0,1,0,72,72,56,,,,,243.23197899997467,243.8828218000126,243.8828218000126,244.3673588000238,45,45,244.3673588000238,244.3673588000238,244.3673588000238,244.3673588000238,244.3673588000238,244.3673588000238,244.3673588000238,244.3673588000238,244.3673588000238,244.7336528999731,244.7336528999731,244.7336528999731,244.7336528999731,244.7336528999731,244.7336528999731,244.7336528999731,244.7336528999731,244.7336528999731,23,0,,,244.7336528999731,244.93550189997768,1000,244.93550189997768,1000,1000,1000,1000,0,num_3,0.5567695000208914,,26,9,2026-03-05_11h00.24.635,2026A_exp2,2022.2.4,59.86658133149028,
0,0,0.0,4.9,0,0,73,73,14,,,,,245.51773289998528,246.16840580001008,246.16840580001008,246.66956670000218,315,315,246.66956670000218,246.66956670000218,246.66956670000218,246.66956670000218,246.66956670000218,246.66956670000218,246.66956670000218,246.66956670000218,246.66956670000218,247.0360480999807,247.0360480999807,247.0360480999807,247.0360480999807,247.0360480999807,247.0360480999807,247.0360480999807,247.0360480999807,247.0360480999807,23,0,,,247.0360480999807,247.2360789999948,4.9,247.2360789999948,1,4.9,1,1,1000,num_4,0.8004971999907866,,26,9,2026-03-05_11h00.24.635,2026A_exp2,2022.2.4,59.86658133149028,
1,0,3.7,0.0,1,0,74,74,13,,,,,248.05347789998632,248.70429349999176,248.70429349999176,249.18863049999345,315,45,249.18863049999345,249.18863049999345,249.18863049999345,249.18863049999345,249.18863049999345,249.18863049999345,249.18863049999345,249.18863049999345,249.18863049999345,249.5550975999795,249.5550975999795,249.5550975999795,249.5550975999795,249.5550975999795,249.5550975999795,249.5550975999795,249.5550975999795,249.5550975999795,23,0,,,249.5550975999795,249.7553996000206,0.0,249.7553996000206,0,0.0,0,1,1000,num_1,0.704489600029774,,26,9,2026-03-05_11h00.24.635,2026A_exp2,2022.2.4,59.86658133149028,
1,0,4.9,4.9,0,0,75,75,39,,,,,250.48918229999254,251.12350139999762,251.12350139999762,251.6243549999781,315,45,251.6243549999781,251.6243549999781,251.6243549999781,251.6243549999781,251.6243549999781,251.6243549999781,251.6243549999781,251.6243549999781,251.6243549999781,251.991027400014,251.991027400014,251.991027400014,251.991027400014,251.991027400014,251.991027400014,251.991027400014,251.991027400014,251.991027400014,23,0,,,251.991027400014,252.19104140001582,4.9,252.19104140001582,1,4.9,1,1,1000,num_4,0.709494500013534,,26,9,2026-03-05_11h00.24.635,2026A_exp2,2022.2.4,59.86658133149028,
1000,1,0.0,0.0,1,0,76,76,40,,,,,252.92506109998794,253.57579249999253,253.57579249999253,254.0602858000202,315,45,254.0602858000202,254.0602858000202,254.0602858000202,254.0602858000202,254.0602858000202,254.0602858000202,254.0602858000202,254.0602858000202,254.0602858000202,254.42669589997968,254.42669589997968,254.42669589997968,254.42669589997968,254.42669589997968,254.42669589997968,254.42669589997968,254.42669589997968,254.42669589997968,3,3,"[0.0007391000399366021, 0.08384490001481026, 0.1339047999936156]","[0.0671427000197582, 0.10035580000840127, 0.3675202000304125]",254.42669589997968,254.62846450001234,1000,254.62846450001234,1000,1000,1000,1000,1,num_2,0.407513200014364,,26,9,2026-03-05_11h00.24.635,2026A_exp2,2022.2.4,59.86658133149028,
0,0,0.0,0.0,0,0,77,77,22,,,,,255.06057809997583,255.71137360000284,255.71137360000284,256.21244550001575,45,315,256.21244550001575,256.21244550001575,256.21244550001575,256.21244550001575,256.21244550001575,256.21244550001575,256.21244550001575,256.21244550001575,256.21244550001575,256.5788736999966,256.5788736999966,256.5788736999966,256.5788736999966,256.5788736999966,256.5788736999966,256.5788736999966,256.5788736999966,256.5788736999966,23,0,,,256.5788736999966,256.7791314999922,0.0,256.7791314999922,1,0.0,0,0,1000,num_4,1.009762400004547,,26,9,2026-03-05_11h00.24.635,2026A_exp2,2022.2.4,59.86658133149028,
1000,1,0.0,4.9,1,0,78,78,78,,,,,257.81319249997614,258.4639216000214,258.4639216000214,258.9484981999849,45,315,258.9484981999849,258.9484981999849,258.9484981999849,258.9484981999849,258.9484981999849,258.9484981999849,258.9484981999849,258.9484981999849,258.9484981999849,259.3147791000083,259.3147791000083,259.3147791000083,259.3147791000083,259.3147791000083,259.3147791000083,259.3147791000083,259.3147791000083,259.3147791000083,23,0,,,259.3147791000083,259.5167517000227,1000,259.5167517000227,1000,1000,1000,1000,1,num_2,0.688057999999728,,26,9,2026-03-05_11h00.24.635,2026A_exp2,2022.2.4,59.86658133149028,
1,0,6.1,6.1,0,0,79,79,27,,,,,260.23252239997964,260.88310159998946,260.88310159998946,261.3840150000178,315,45,261.3840150000178,261.3840150000178,261.3840150000178,261.3840150000178,261.3840150000178,261.3840150000178,261.3840150000178,261.3840150000178,261.3840150000178,261.75031759997364,261.75031759997364,261.75031759997364,261.75031759997364,261.75031759997364,261.75031759997364,261.75031759997364,261.75031759997364,261.75031759997364,23,0,,,261.75031759997364,261.9507279000245,6.1,261.9507279000245,1,6.1,1,1,1000,num_4,0.9096331000328064,,26,9,2026-03-05_11h00.24.635,2026A_exp2,2022.2.4,59.86658133149028,
0,0,0.0,0.0,1,0,80,80,38,,,,,262.8850089000189,263.5356641000253,263.5356641000253,264.0202636999893,45,45,264.0202636999893,264.0202636999893,264.0202636999893,264.0202636999893,264.0202636999893,264.0202636999893,264.0202636999893,264.0202636999893,264.0202636999893,264.38668419996975,264.38668419996975,264.38668419996975,264.38668419996975,264.38668419996975,264.38668419996975,264.38668419996975,264.38668419996975,264.38668419996975,23,0,,,264.38668419996975,264.5866580000147,0.0,264.5866580000147,0,0.0,0,1,1000,num_1,1.0177736000041477,,26,9,2026-03-05_11h00.24.635,2026A_exp2,2022.2.4,59.86658133149028,
1000,1,0.0,6.1,0,0,81,81,58,,,,,265.62114359997213,266.2718522999785,266.2718522999785,266.75643180002226,315,315,266.75643180002226,266.75643180002226,266.75643180002226,266.75643180002226,266.75643180002226,266.75643180002226,266.75643180002226,266.75643180002226,266.75643180002226,267.12259039998753,267.12259039998753,267.12259039998753,267.12259039998753,267.12259039998753,267.12259039998753,267.12259039998753,267.12259039998753,267.12259039998753,23,0,,,267.12259039998753,267.32465349999256,1000,267.32465349999256,1000,1000,1000,1000,1,num_2,0.4884674000204541,,26,9,2026-03-05_11h00.24.635,2026A_exp2,2022.2.4,59.86658133149028,
1000,1,0.0,0.0,0,0,82,82,72,,,,,267.8399770000251,268.4906920000212,268.4906920000212,268.9917734999908,315,315,268.9917734999908,268.9917734999908,268.9917734999908,268.9917734999908,268.9917734999908,268.9917734999908,268.9917734999908,268.9917734999908,268.9917734999908,269.35824219998904,269.35824219998904,269.35824219998904,269.35824219998904,269.35824219998904,269.35824219998904,269.35824219998904,269.35824219998904,269.35824219998904,2,2,"[0.0014034999767318368, 0.13349909998942167]","[0.10015640000347048, 0.36686180002288893]",269.35824219998904,269.56047299999045,1000,269.56047299999045,1000,1000,1000,1000,1,num_2,0.7239999999874271,,26,9,2026-03-05_11h00.24.635,2026A_exp2,2022.2.4,59.86658133149028,
1000,1,0.0,0.0,0,0,83,83,45,,,,,270.30898560001515,270.95987790002255,270.95987790002255,271.4608898999868,45,45,271.4608898999868,271.4608898999868,271.4608898999868,271.4608898999868,271.4608898999868,271.4608898999868,271.4608898999868,271.4608898999868,271.4608898999868,271.8106707999832,271.8106707999832,271.8106707999832,271.8106707999832,271.8106707999832,271.8106707999832,271.8106707999832,271.8106707999832,271.8106707999832,9,7,"[0.0172131999861449, 0.05020309996325523, 0.11699219996808097, 0.1670223000110127, 0.20030049997149035, 0.2337161999894306, 0.3170358999632299]","[0.03336870000930503, 0.06686929997522384, 0.150000799971167, 0.1836794000118971, 0.2170697000110522, 0.3003303000004962, 0.35049469996010885]",271.8106707999832,272.0127920000232,1000,272.0127920000232,1000,1000,1000,1000,0,num_3,0.6560159000218846,,26,9,2026-03-05_11h00.24.635,2026A_exp2,2022.2.4,59.86658133149028,
1000,1,0.0,4.9,0,0,84,84,53,,,,,272.6948964999756,273.3456187999691,273.3456187999691,273.8467672999832,45,45,273.8467672999832,273.8467672999832,273.8467672999832,273.8467672999832,273.8467672999832,273.8467672999832,273.8467672999832,273.8467672999832,273.8467672999832,274.21308710001176,274.21308710001176,274.21308710001176,274.21308710001176,274.21308710001176,274.21308710001176,274.21308710001176,274.21308710001176,274.21308710001176,23,0,,,274.21308710001176,274.4131739999866,1000,274.4131739999866,1000,1000,1000,1000,1,num_2,0.26274040003772825,,26,9,2026-03-05_11h00.24.635,2026A_exp2,2022.2.4,59.86658133149028,
1,0,3.7,0.0,1,0,85,85,28,,,,,274.6967901000171,275.34770450001815,275.34770450001815,275.8486588000087,315,315,275.8486588000087,275.8486588000087,275.8486588000087,275.8486588000087,275.8486588000087,275.8486588000087,275.8486588000087,275.8486588000087,275.8486588000087,276.2151209000149,276.2151209000149,276.2151209000149,276.2151209000149,276.2151209000149,276.2151209000149,276.2151209000149,276.2151209000149,276.2151209000149,23,0,,,276.2151209000149,276.41535029996885,0.0,276.41535029996885,0,0.0,0,1,1000,num_1,0.7489818999893032,,26,9,2026-03-05_11h00.24.635,2026A_exp2,2022.2.4,59.86658133149028,
1,0,0.0,3.7,1,0,86,86,0,,,,,277.182721899997,277.83335839997744,277.83335839997744,278.31791029998567,315,315,278.31791029998567,278.31791029998567,278.31791029998567,278.31791029998567,278.31791029998567,278.31791029998567,278.31791029998567,278.31791029998567,278.31791029998567,278.68419850000646,278.68419850000646,278.68419850000646,278.68419850000646,278.68419850000646,278.68419850000646,278.68419850000646,278.68419850000646,278.68419850000646,23,0,,,278.68419850000646,278.8844372999738,3.7,278.8844372999738,1,3.7,1,1,1000,num_4,0.6800574000226334,,26,9,2026-03-05_11h00.24.635,2026A_exp2,2022.2.4,59.86658133149028,
1,0,3.7,0.0,1,0,87,87,11,,,,,279.5850321999751,280.235970299982,280.235970299982,280.7201079999795,315,315,280.7201079999795,280.7201079999795,280.7201079999795,280.7201079999795,280.7201079999795,280.7201079999795,280.7201079999795,280.7201079999795,280.7201079999795,281.08668589999434,281.08668589999434,281.08668589999434,281.08668589999434,281.08668589999434,281.08668589999434,281.08668589999434,281.08668589999434,281.08668589999434,23,0,,,281.08668589999434,281.2868914999999,0.0,281.2868914999999,0,0.0,0,1,1000,num_1,1.0371259999810718,,26,9,2026-03-05_11h00.24.635,2026A_exp2,2022.2.4,59.86658133149028,
1000,1,3.7,4.9,1,0,88,88,20,,,,,282.3547160999733,283.0053638999816,283.0053638999816,283.4896568999975,45,45,283.4896568999975,283.4896568999975,283.4896568999975,283.4896568999975,283.4896568999975,283.4896568999975,283.4896568999975,283.4896568999975,283.4896568999975,283.85608019999927,283.85608019999927,283.85608019999927,283.85608019999927,283.85608019999927,283.85608019999927,283.85608019999927,283.85608019999927,283.85608019999927,23,0,,,283.85608019999927,284.05810319999,1000,284.05810319999,1000,1000,1000,1000,1,num_2,0.44999619998270646,,26,9,2026-03-05_11h00.24.635,2026A_exp2,2022.2.4,59.86658133149028,
1000,1,0.0,0.0,0,0,89,89,36,,,,,284.52337419998366,285.1740606999956,285.1740606999956,285.67523420002544,45,315,285.67523420002544,285.67523420002544,285.67523420002544,285.67523420002544,285.67523420002544,285.67523420002544,285.67523420002544,285.67523420002544,285.67523420002544,286.024980999995,286.024980999995,286.024980999995,286.024980999995,286.024980999995,286.024980999995,286.024980999995,286.024980999995,286.024980999995,21,1,[0.20013000001199543],[0.2169249000144191],286.024980999995,286.2269140999997,1000,286.24177049996797,1000,1000,1000,1000,1,num_2,0.6590504999621771,,26,9,2026-03-05_11h00.24.635,2026A_exp2,2022.2.4,59.86658133149028,
,,,,,,,,,,,,,,,,,,,,,,,,,,,,,,,,,,,,,,,,,,,,,,,,,,,,286.9337830999866,,,,,,,
