validity,detectorcomp,contrastCW,contrastCCW,precueCWorCCW,block_80trials.thisRepN,block_80trials.thisTrialN,block_80trials.thisN,block_80trials.thisIndex,etRecord.started,etRecord.stopped,text.started,text.stopped,text_4.started,text_4.stopped,text_6.started,text_6.stopped,oriCW,oriCCW,roi_2.started,grating_UR.started,grating_UL.started,grating_LR.started,grating_LL.started,noise_UR.started,noise_UL.started,noise_LR.started,noise_LL.started,roi_2.stopped,grating_UR.stopped,grating_UL.stopped,grating_LR.stopped,grating_LL.stopped,noise_UR.stopped,noise_UL.stopped,noise_LR.stopped,noise_LL.stopped,outframe,roi_2.numLooks,roi_2.timesOn,roi_2.timesOff,text_2.started,text_2.stopped,probedcontrast,key_resp.started,respdetect,relevantContrast,correctDetect,TorFdetect,respCWorCCW,key_resp.keys,key_resp.rt,feedback_display_.started,participantNo,blockNo,date,expName,psychopyVersion,frameRate,
1,0,0.0,0.0,0,0,0,0,87,7.840001489967108e-05,7.840001489967108e-05,45.165221800038125,47.169874700019136,47.169874700019136,47.80190100002801,47.80190100002801,48.32188430003589,45,315,48.32188430003589,48.32188430003589,48.32188430003589,48.32188430003589,48.32188430003589,48.32188430003589,48.32188430003589,48.32188430003589,48.32188430003589,48.66958019998856,48.66958019998856,48.66958019998856,48.66958019998856,48.66958019998856,48.66958019998856,48.66958019998856,48.66958019998856,48.66958019998856,23,0,,,48.66958019998856,48.86979970004177,0.0,48.86979970004177,0,0.0,0,1,1000,num_1,1.1839749999926426,,26,13,2026-03-05_11h19.59.401,2026A_exp2,2022.2.4,59.945461629420194,
1000,1,0.0,0.0,0,0,1,1,72,,,,,50.07326860004105,50.721620200027246,50.721620200027246,51.22266580001451,315,45,51.22266580001451,51.22266580001451,51.22266580001451,51.22266580001451,51.22266580001451,51.22266580001451,51.22266580001451,51.22266580001451,51.22266580001451,51.58916760003194,51.58916760003194,51.58916760003194,51.58916760003194,51.58916760003194,51.58916760003194,51.58916760003194,51.58916760003194,51.58916760003194,23,0,,,51.58916760003194,51.79417489998741,1000,51.79417489998741,1000,1000,1000,1000,1,num_2,0.7549322999548167,,26,13,2026-03-05_11h19.59.401,2026A_exp2,2022.2.4,59.945461629420194,
1000,1,6.1,3.7,1,0,2,2,11,,,,,52.57321589998901,53.22411599999759,53.22411599999759,53.72514809999848,315,315,53.72514809999848,53.72514809999848,53.72514809999848,53.72514809999848,53.72514809999848,53.72514809999848,53.72514809999848,53.72514809999848,53.72514809999848,54.074949000030756,54.074949000030756,54.074949000030756,54.074949000030756,54.074949000030756,54.074949000030756,54.074949000030756,54.074949000030756,54.074949000030756,22,0,,,54.074949000030756,54.277152800001204,1000,54.277152800001204,1000,1000,1000,1000,0,num_3,0.5122258000192232,,26,13,2026-03-05_11h19.59.401,2026A_exp2,2022.2.4,59.945461629420194,
1,0,4.9,0.0,1,0,3,3,34,,,,,54.80914299999131,55.4595422000275,55.4595422000275,55.96092320000753,315,315,55.96092320000753,55.96092320000753,55.96092320000753,55.96092320000753,55.96092320000753,55.96092320000753,55.96092320000753,55.96092320000753,55.96092320000753,56.31055120000383,56.31055120000383,56.31055120000383,56.31055120000383,56.31055120000383,56.31055120000383,56.31055120000383,56.31055120000383,56.31055120000383,3,2,"[0.0010917999898083508, 0.16724779998185113]","[0.11714109999593347, 0.35091159999137744]",56.31055120000383,56.51058619999094,0.0,56.51058619999094,0,0.0,0,1,1000,num_1,0.6705595999956131,,26,13,2026-03-05_11h19.59.401,2026A_exp2,2022.2.4,59.945461629420194,
1000,1,3.7,0.0,0,0,4,4,69,,,,,57.21165040001506,57.8620968000032,57.8620968000032,58.363206000009086,315,315,58.363206000009086,58.363206000009086,58.363206000009086,58.363206000009086,58.363206000009086,58.363206000009086,58.363206000009086,58.363206000009086,58.363206000009086,58.72951269999612,58.72951269999612,58.72951269999612,58.72951269999612,58.72951269999612,58.72951269999612,58.72951269999612,58.72951269999612,58.72951269999612,0,1,[0.0007371999672614038],[0.3673302999814041],58.72951269999612,58.93155820004176,1000,58.93155820004176,1000,1000,1000,1000,0,num_3,0.48182640003506094,,26,13,2026-03-05_11h19.59.401,2026A_exp2,2022.2.4,59.945461629420194,
1000,1,0.0,3.7,1,0,5,5,4,,,,,59.430411000037566,60.08093729999382,60.08093729999382,60.58193179999944,45,45,60.58193179999944,60.58193179999944,60.58193179999944,60.58193179999944,60.58193179999944,60.58193179999944,60.58193179999944,60.58193179999944,60.58193179999944,60.94851409998955,60.94851409998955,60.94851409998955,60.94851409998955,60.94851409998955,60.94851409998955,60.94851409998955,60.94851409998955,60.94851409998955,1,2,"[0.001296199974603951, 0.13350269995862618]","[0.11694659997010604, 0.36723009997513145]",60.94851409998955,61.15028480003821,1000,61.15028480003821,1000,1000,1000,1000,1,num_2,0.4236223000334576,,26,13,2026-03-05_11h19.59.401,2026A_exp2,2022.2.4,59.945461629420194,
1,0,4.9,4.9,1,0,6,6,9,,,,,61.59908060001908,62.249832100002095,62.249832100002095,62.750839299988,315,45,62.750839299988,62.750839299988,62.750839299988,62.750839299988,62.750839299988,62.750839299988,62.750839299988,62.750839299988,62.750839299988,63.10048280004412,63.10048280004412,63.10048280004412,63.10048280004412,63.10048280004412,63.10048280004412,63.10048280004412,63.10048280004412,63.10048280004412,16,3,"[0.1833015000447631, 0.26711450004950166, 0.35050630004843697]","[0.2003149000229314, 0.3338839000207372, 0.350511800032109]",63.10048280004412,63.30088659998728,4.9,63.30088659998728,1,4.9,1,1,1000,num_4,1.153009400004521,,26,13,2026-03-05_11h19.59.401,2026A_exp2,2022.2.4,59.945461629420194,
0,0,6.1,0.0,1,0,7,7,52,,,,,64.4852138000424,65.13587629998801,65.13587629998801,65.62044170004083,45,315,65.62044170004083,65.62044170004083,65.62044170004083,65.62044170004083,65.62044170004083,65.62044170004083,65.62044170004083,65.62044170004083,65.62044170004083,65.98687710001832,65.98687710001832,65.98687710001832,65.98687710001832,65.98687710001832,65.98687710001832,65.98687710001832,65.98687710001832,65.98687710001832,23,0,,,65.98687710001832,66.18707250000443,6.1,66.18707250000443,0,6.1,1,0,1000,num_1,0.7146623999578878,,26,13,2026-03-05_11h19.59.401,2026A_exp2,2022.2.4,59.945461629420194,
0,0,3.7,0.0,0,0,8,8,18,,,,,66.92097600002307,67.57164450001437,67.57164450001437,68.05611150001641,315,45,68.05611150001641,68.05611150001641,68.05611150001641,68.05611150001641,68.05611150001641,68.05611150001641,68.05611150001641,68.05611150001641,68.05611150001641,68.42265970003791,68.42265970003791,68.42265970003791,68.42265970003791,68.42265970003791,68.42265970003791,68.42265970003791,68.42265970003791,68.42265970003791,23,0,,,68.42265970003791,68.62285869999323,0.0,68.62285869999323,0,0.0,0,1,1000,num_1,0.7578609000192955,,26,13,2026-03-05_11h19.59.401,2026A_exp2,2022.2.4,59.945461629420194,
1000,1,3.7,0.0,0,0,9,9,39,,,,,69.40738320001401,70.05747420003172,70.05747420003172,70.54255519999424,315,45,70.54255519999424,70.54255519999424,70.54255519999424,70.54255519999424,70.54255519999424,70.54255519999424,70.54255519999424,70.54255519999424,70.54255519999424,70.90838229999645,70.90838229999645,70.90838229999645,70.90838229999645,70.90838229999645,70.90838229999645,70.90838229999645,70.90838229999645,70.90838229999645,23,0,,,70.90838229999645,71.11028429999715,1000,71.11028429999715,1000,1000,1000,1000,0,num_3,0.582218199968338,,26,13,2026-03-05_11h19.59.401,2026A_exp2,2022.2.4,59.945461629420194,
1,0,0.0,0.0,1,0,10,10,33,,,,,71.7090744000161,72.35988050000742,72.35988050000742,72.86107010004343,315,45,72.86107010004343,72.86107010004343,72.86107010004343,72.86107010004343,72.86107010004343,72.86107010004343,72.86107010004343,72.86107010004343,72.86107010004343,73.22744849999435,73.22744849999435,73.22744849999435,73.22744849999435,73.22744849999435,73.22744849999435,73.22744849999435,73.22744849999435,73.22744849999435,0,1,[0.0010004000505432487],[0.3675382000510581],73.22744849999435,73.42760679998901,0.0,73.42760679998901,0,0.0,0,1,1000,num_1,1.5296496999799274,,26,13,2026-03-05_11h19.59.401,2026A_exp2,2022.2.4,59.945461629420194,
0,0,0.0,0.0,0,0,11,11,15,,,,,74.97901790001197,75.61302660004003,75.61302660004003,76.11417760001495,315,315,76.11417760001495,76.11417760001495,76.11417760001495,76.11417760001495,76.11417760001495,76.11417760001495,76.11417760001495,76.11417760001495,76.11417760001495,76.48071370000253,76.48071370000253,76.48071370000253,76.48071370000253,76.48071370000253,76.48071370000253,76.48071370000253,76.48071370000253,76.48071370000253,23,0,,,76.48071370000253,76.68092489999253,0.0,76.68092489999253,1,0.0,0,0,1000,num_4,1.5643623999785632,,26,13,2026-03-05_11h19.59.401,2026A_exp2,2022.2.4,59.945461629420194,
1000,1,4.9,0.0,1,0,12,12,48,,,,,78.2657800000161,78.9163062000298,78.9163062000298,79.40118740004255,45,315,79.40118740004255,79.40118740004255,79.40118740004255,79.40118740004255,79.40118740004255,79.40118740004255,79.40118740004255,79.40118740004255,79.40118740004255,79.76712340000086,79.76712340000086,79.76712340000086,79.76712340000086,79.76712340000086,79.76712340000086,79.76712340000086,79.76712340000086,79.76712340000086,23,0,,,79.76712340000086,79.96729540004162,1000,79.96729540004162,1000,1000,1000,1000,0,num_3,0.4538081999635324,,26,13,2026-03-05_11h19.59.401,2026A_exp2,2022.2.4,59.945461629420194,
1000,1,0.0,0.0,1,0,13,13,2,,,,,80.45125470001949,81.08548440004233,81.08548440004233,81.5860930000199,315,315,81.5860930000199,81.5860930000199,81.5860930000199,81.5860930000199,81.5860930000199,81.5860930000199,81.5860930000199,81.5860930000199,81.5860930000199,81.95322640001541,81.95322640001541,81.95322640001541,81.95322640001541,81.95322640001541,81.95322640001541,81.95322640001541,81.95322640001541,81.95322640001541,0,1,[0.0007518000202253461],[0.3671037000021897],81.95322640001541,82.1528568000067,1000,82.1528568000067,1000,1000,1000,1000,1,num_2,2.091744900040794,,26,13,2026-03-05_11h19.59.401,2026A_exp2,2022.2.4,59.945461629420194,
1000,1,3.7,4.9,1,0,14,14,71,,,,,84.2715492999996,84.90555230004247,84.90555230004247,85.40880450000986,315,315,85.40880450000986,85.40880450000986,85.40880450000986,85.40880450000986,85.40880450000986,85.40880450000986,85.40880450000986,85.40880450000986,85.40880450000986,85.77346170000965,85.77346170000965,85.77346170000965,85.77346170000965,85.77346170000965,85.77346170000965,85.77346170000965,85.77346170000965,85.77346170000965,23,0,,,85.77346170000965,85.97549079998862,1000,85.97549079998862,1000,1000,1000,1000,1,num_2,0.8451795000000857,,26,13,2026-03-05_11h19.59.401,2026A_exp2,2022.2.4,59.945461629420194,
1000,1,0.0,6.1,0,0,15,15,16,,,,,86.84090230002766,87.49171950004529,87.49171950004529,87.99283370003104,45,315,87.99283370003104,87.99283370003104,87.99283370003104,87.99283370003104,87.99283370003104,87.99283370003104,87.99283370003104,87.99283370003104,87.99283370003104,88.35930350003764,88.35930350003764,88.35930350003764,88.35930350003764,88.35930350003764,88.35930350003764,88.35930350003764,88.35930350003764,88.35930350003764,21,1,[0.3504061999847181],[0.36698260001139715],88.35930350003764,88.56170600000769,1000,88.56170600000769,1000,1000,1000,1000,1,num_2,0.55616670002928,,26,13,2026-03-05_11h19.59.401,2026A_exp2,2022.2.4,59.945461629420194,
1000,1,4.9,3.7,0,0,16,16,28,,,,,89.14333880000049,89.79384880000725,89.79384880000725,90.29538080003113,315,315,90.29538080003113,90.29538080003113,90.29538080003113,90.29538080003113,90.29538080003113,90.29538080003113,90.29538080003113,90.29538080003113,90.29538080003113,90.64487550000194,90.64487550000194,90.64487550000194,90.64487550000194,90.64487550000194,90.64487550000194,90.64487550000194,90.64487550000194,90.64487550000194,22,0,,,90.64487550000194,90.84674240002641,1000,90.84674240002641,1000,1000,1000,1000,0,num_3,0.6620597000000998,,26,13,2026-03-05_11h19.59.401,2026A_exp2,2022.2.4,59.945461629420194,
1000,1,3.7,6.1,1,0,17,17,75,,,,,91.52902940002969,92.17974380002124,92.17974380002124,92.68085930001689,45,315,92.68085930001689,92.68085930001689,92.68085930001689,92.68085930001689,92.68085930001689,92.68085930001689,92.68085930001689,92.68085930001689,92.68085930001689,93.04711700003827,93.04711700003827,93.04711700003827,93.04711700003827,93.04711700003827,93.04711700003827,93.04711700003827,93.04711700003827,93.04711700003827,23,0,,,93.04711700003827,93.24969630001578,1000,93.24969630001578,1000,1000,1000,1000,1,num_2,1.715329999977257,,26,13,2026-03-05_11h19.59.401,2026A_exp2,2022.2.4,59.945461629420194,
1000,1,6.1,0.0,0,0,18,18,27,,,,,94.98276819998864,95.63313880003989,95.63313880003989,96.13420620001853,45,315,96.13420620001853,96.13420620001853,96.13420620001853,96.13420620001853,96.13420620001853,96.13420620001853,96.13420620001853,96.13420620001853,96.13420620001853,96.50054460001411,96.50054460001411,96.50054460001411,96.50054460001411,96.50054460001411,96.50054460001411,96.50054460001411,96.50054460001411,96.50054460001411,4,1,[0.0012456999975256622],[0.3168739000102505],96.50054460001411,96.70262180001009,1000,96.70262180001009,1000,1000,1000,1000,0,num_3,0.4140973999747075,,26,13,2026-03-05_11h19.59.401,2026A_exp2,2022.2.4,59.945461629420194,
1,0,6.1,6.1,1,0,19,19,47,,,,,97.1345399999991,97.78535840002587,97.78535840002587,98.28648469998734,45,45,98.28648469998734,98.28648469998734,98.28648469998734,98.28648469998734,98.28648469998734,98.28648469998734,98.28648469998734,98.28648469998734,98.28648469998734,98.65284470003098,98.65284470003098,98.65284470003098,98.65284470003098,98.65284470003098,98.65284470003098,98.65284470003098,98.65284470003098,98.65284470003098,0,1,[0.0012461000005714595],[0.36725120001938194],98.65284470003098,98.85296899999958,6.1,98.85296899999958,0,6.1,1,0,1000,num_1,1.0249008999671787,,26,13,2026-03-05_11h19.59.401,2026A_exp2,2022.2.4,59.945461629420194,
1,0,4.9,0.0,0,0,20,20,66,,,,,99.90394370001741,100.5546386000351,100.5546386000351,101.03923070000019,315,45,101.03923070000019,101.03923070000019,101.03923070000019,101.03923070000019,101.03923070000019,101.03923070000019,101.03923070000019,101.03923070000019,101.03923070000019,101.40549760003341,101.40549760003341,101.40549760003341,101.40549760003341,101.40549760003341,101.40549760003341,101.40549760003341,101.40549760003341,101.40549760003341,11,3,"[0.0012018000124953687, 0.06708140001865104, 0.3173991999938153]","[0.05011549999471754, 0.15053819998865947, 0.3676471000071615]",101.40549760003341,101.60582220001379,4.9,101.60582220001379,1,4.9,1,1,1000,num_4,1.95133969996823,,26,13,2026-03-05_11h19.59.401,2026A_exp2,2022.2.4,59.945461629420194,
1000,1,0.0,0.0,0,0,21,21,89,,,,,103.57427159999497,104.22510780004086,104.22510780004086,104.72592040000018,45,315,104.72592040000018,104.72592040000018,104.72592040000018,104.72592040000018,104.72592040000018,104.72592040000018,104.72592040000018,104.72592040000018,104.72592040000018,105.0759970000363,105.0759970000363,105.0759970000363,105.0759970000363,105.0759970000363,105.0759970000363,105.0759970000363,105.0759970000363,105.0759970000363,22,0,,,105.0759970000363,105.27798519999487,1000,105.27798519999487,1000,1000,1000,1000,0,num_3,1.6396957999677397,,26,13,2026-03-05_11h19.59.401,2026A_exp2,2022.2.4,59.945461629420194,
1000,1,0.0,0.0,1,0,22,22,3,,,,,106.94450199999847,107.59506359999068,107.59506359999068,108.0961471000337,315,45,108.0961471000337,108.0961471000337,108.0961471000337,108.0961471000337,108.0961471000337,108.0961471000337,108.0961471000337,108.0961471000337,108.0961471000337,108.46244420000585,108.46244420000585,108.46244420000585,108.46244420000585,108.46244420000585,108.46244420000585,108.46244420000585,108.46244420000585,108.46244420000585,0,1,[0.001245100051164627],[0.3668397000292316],108.46244420000585,108.6648987000226,1000,108.6648987000226,1000,1000,1000,1000,1,num_2,0.6202833999996074,,26,13,2026-03-05_11h19.59.401,2026A_exp2,2022.2.4,59.945461629420194,
1,0,0.0,6.1,1,0,23,23,46,,,,,109.31347260001348,109.96418469998753,109.96418469998753,110.46529040002497,315,315,110.46529040002497,110.46529040002497,110.46529040002497,110.46529040002497,110.46529040002497,110.46529040002497,110.46529040002497,110.46529040002497,110.46529040002497,110.81485030002659,110.81485030002659,110.81485030002659,110.81485030002659,110.81485030002659,110.81485030002659,110.81485030002659,110.81485030002659,110.81485030002659,1,2,"[0.0012227999977767467, 0.10025820002192631]","[0.08314510004129261, 0.3505248000146821]",110.81485030002659,111.01509689999511,6.1,111.03189420001581,1,6.1,1,1,1000,num_4,0.6453999999794178,,26,13,2026-03-05_11h19.59.401,2026A_exp2,2022.2.4,59.945461629420194,
1000,1,0.0,4.9,0,0,24,24,8,,,,,111.69910860003438,112.34994690003805,112.34994690003805,112.83435820002342,315,45,112.83435820002342,112.83435820002342,112.83435820002342,112.83435820002342,112.83435820002342,112.83435820002342,112.83435820002342,112.83435820002342,112.83435820002342,113.20077540003695,113.20077540003695,113.20077540003695,113.20077540003695,113.20077540003695,113.20077540003695,113.20077540003695,113.20077540003695,113.20077540003695,0,1,[0.0010996999917551875],[0.3673514999682084],113.20077540003695,113.40278020000551,1000,113.40278020000551,1000,1000,1000,1000,1,num_2,0.5617067000130191,,26,13,2026-03-05_11h19.59.401,2026A_exp2,2022.2.4,59.945461629420194,
1000,1,6.1,4.9,0,0,25,25,81,,,,,113.98474949999945,114.63523459999124,114.63523459999124,115.13653250003699,315,45,115.13653250003699,115.13653250003699,115.13653250003699,115.13653250003699,115.13653250003699,115.13653250003699,115.13653250003699,115.13653250003699,115.13653250003699,115.48637830000371,115.48637830000371,115.48637830000371,115.48637830000371,115.48637830000371,115.48637830000371,115.48637830000371,115.48637830000371,115.48637830000371,22,0,,,115.48637830000371,115.68908199999714,1000,115.68908199999714,1000,1000,1000,1000,1,num_2,0.6766644000308588,,26,13,2026-03-05_11h19.59.401,2026A_exp2,2022.2.4,59.945461629420194,
1000,1,0.0,6.1,0,0,26,26,20,,,,,116.38715750002302,117.03778070001863,117.03778070001863,117.53893820004305,45,45,117.53893820004305,117.53893820004305,117.53893820004305,117.53893820004305,117.53893820004305,117.53893820004305,117.53893820004305,117.53893820004305,117.53893820004305,117.90557530004298,117.90557530004298,117.90557530004298,117.90557530004298,117.90557530004298,117.90557530004298,117.90557530004298,117.90557530004298,117.90557530004298,23,0,,,117.90557530004298,118.10779139999067,1000,118.10779139999067,1000,1000,1000,1000,1,num_2,0.48090980004053563,,26,13,2026-03-05_11h19.59.401,2026A_exp2,2022.2.4,59.945461629420194,
1,0,0.0,0.0,1,0,27,27,38,,,,,118.60600480000721,119.25678880000487,119.25678880000487,119.75794640003005,45,45,119.75794640003005,119.75794640003005,119.75794640003005,119.75794640003005,119.75794640003005,119.75794640003005,119.75794640003005,119.75794640003005,119.75794640003005,120.12432659999467,120.12432659999467,120.12432659999467,120.12432659999467,120.12432659999467,120.12432659999467,120.12432659999467,120.12432659999467,120.12432659999467,0,1,[0.001198899990413338],[0.36706419999245554],120.12432659999467,120.32462510000914,0.0,120.32462510000914,1,0.0,0,0,1000,num_4,0.6799054999719374,,26,13,2026-03-05_11h19.59.401,2026A_exp2,2022.2.4,59.945461629420194,
0,0,3.7,4.9,0,0,28,28,77,,,,,121.02499520004494,121.67594570002984,121.67594570002984,122.16037400002824,45,45,122.16037400002824,122.16037400002824,122.16037400002824,122.16037400002824,122.16037400002824,122.16037400002824,122.16037400002824,122.16037400002824,122.16037400002824,122.5267360000289,122.5267360000289,122.5267360000289,122.5267360000289,122.5267360000289,122.5267360000289,122.5267360000289,122.5267360000289,122.5267360000289,23,0,,,122.5267360000289,122.72693160001654,4.9,122.72693160001654,0,4.9,1,0,1000,num_1,0.7743950999574736,,26,13,2026-03-05_11h19.59.401,2026A_exp2,2022.2.4,59.945461629420194,
1,0,0.0,4.9,1,0,29,29,54,,,,,123.52758440002799,124.17840000003343,124.17840000003343,124.6793993000174,315,45,124.6793993000174,124.6793993000174,124.6793993000174,124.6793993000174,124.6793993000174,124.6793993000174,124.6793993000174,124.6793993000174,124.6793993000174,125.02925120003056,125.02925120003056,125.02925120003056,125.02925120003056,125.02925120003056,125.02925120003056,125.02925120003056,125.02925120003056,125.02925120003056,22,1,[0.3166958999936469],[0.33340960001805797],125.02925120003056,125.229286900023,4.9,125.24609030003194,0,4.9,1,0,1000,num_1,0.7744677999871783,,26,13,2026-03-05_11h19.59.401,2026A_exp2,2022.2.4,59.945461629420194,
1,0,0.0,0.0,0,0,30,30,80,,,,,126.04674870002782,126.69765640003607,126.69765640003607,127.18189110001549,45,315,127.18189110001549,127.18189110001549,127.18189110001549,127.18189110001549,127.18189110001549,127.18189110001549,127.18189110001549,127.18189110001549,127.18189110001549,127.54840190004325,127.54840190004325,127.54840190004325,127.54840190004325,127.54840190004325,127.54840190004325,127.54840190004325,127.54840190004325,127.54840190004325,23,0,,,127.54840190004325,127.74858370004222,0.0,127.74858370004222,0,0.0,0,1,1000,num_1,1.3278757000225596,,26,13,2026-03-05_11h19.59.401,2026A_exp2,2022.2.4,59.945461629420194,
1000,1,3.7,0.0,0,0,31,31,86,,,,,129.09977170004277,129.7447753000306,129.7447753000306,130.23666669998784,45,315,130.23666669998784,130.23666669998784,130.23666669998784,130.23666669998784,130.23666669998784,130.23666669998784,130.23666669998784,130.23666669998784,130.23666669998784,130.6014269000152,130.6014269000152,130.6014269000152,130.6014269000152,130.6014269000152,130.6014269000152,130.6014269000152,130.6014269000152,130.6014269000152,23,0,,,130.6014269000152,130.81218290003017,1000,130.81218290003017,1000,1000,1000,1000,0,num_3,0.5444254000321962,,26,13,2026-03-05_11h19.59.401,2026A_exp2,2022.2.4,59.945461629420194,
1000,1,0.0,4.9,0,0,32,32,0,,,,,131.38552050001454,132.0362935999874,132.0362935999874,132.53741190000437,45,315,132.53741190000437,132.53741190000437,132.53741190000437,132.53741190000437,132.53741190000437,132.53741190000437,132.53741190000437,132.53741190000437,132.53741190000437,132.90379459998803,132.90379459998803,132.90379459998803,132.90379459998803,132.90379459998803,132.90379459998803,132.90379459998803,132.90379459998803,132.90379459998803,0,1,[0.0011938000097870827],[0.36723329999949783],132.90379459998803,133.10588310001185,1000,133.10588310001185,1000,1000,1000,1000,1,num_2,0.4588705000351183,,26,13,2026-03-05_11h19.59.401,2026A_exp2,2022.2.4,59.945461629420194,
0,0,0.0,0.0,1,0,33,33,44,,,,,133.58770660002483,134.2384941999917,134.2384941999917,134.7394797000452,45,315,134.7394797000452,134.7394797000452,134.7394797000452,134.7394797000452,134.7394797000452,134.7394797000452,134.7394797000452,134.7394797000452,134.7394797000452,135.08915419998812,135.08915419998812,135.08915419998812,135.08915419998812,135.08915419998812,135.08915419998812,135.08915419998812,135.08915419998812,135.08915419998812,22,0,,,135.08915419998812,135.28944070002763,0.0,135.28944070002763,0,0.0,0,1,1000,num_1,1.1320853000506759,,26,13,2026-03-05_11h19.59.401,2026A_exp2,2022.2.4,59.945461629420194,
1,0,0.0,4.9,0,0,34,34,70,,,,,136.44047930004308,137.09132980002323,137.09132980002323,137.57574270002078,45,315,137.57574270002078,137.57574270002078,137.57574270002078,137.57574270002078,137.57574270002078,137.57574270002078,137.57574270002078,137.57574270002078,137.57574270002078,137.94208910001907,137.94208910001907,137.94208910001907,137.94208910001907,137.94208910001907,137.94208910001907,137.94208910001907,137.94208910001907,137.94208910001907,23,0,,,137.94208910001907,138.1421704000095,0.0,138.1421704000095,0,0.0,0,1,1000,num_1,0.6468822999740951,,26,13,2026-03-05_11h19.59.401,2026A_exp2,2022.2.4,59.945461629420194,
1000,1,4.9,0.0,1,0,35,35,67,,,,,138.80960750003578,139.4602109999978,139.4602109999978,139.94480530003784,45,45,139.94480530003784,139.94480530003784,139.94480530003784,139.94480530003784,139.94480530003784,139.94480530003784,139.94480530003784,139.94480530003784,139.94480530003784,140.31111320003401,140.31111320003401,140.31111320003401,140.31111320003401,140.31111320003401,140.31111320003401,140.31111320003401,140.31111320003401,140.31111320003401,23,0,,,140.31111320003401,140.51345500000753,1000,140.51345500000753,1000,1000,1000,1000,0,num_3,0.5479992000036873,,26,13,2026-03-05_11h19.59.401,2026A_exp2,2022.2.4,59.945461629420194,
1000,1,3.7,6.1,0,0,36,36,60,,,,,141.07847030000994,141.7292639000225,141.7292639000225,142.23041550000198,45,45,142.23041550000198,142.23041550000198,142.23041550000198,142.23041550000198,142.23041550000198,142.23041550000198,142.23041550000198,142.23041550000198,142.23041550000198,142.58005970000522,142.58005970000522,142.58005970000522,142.58005970000522,142.58005970000522,142.58005970000522,142.58005970000522,142.58005970000522,142.58005970000522,22,0,,,142.58005970000522,142.7802759000333,1000,142.79682859999593,1000,1000,1000,1000,1,num_2,0.6163524999865331,,26,13,2026-03-05_11h19.59.401,2026A_exp2,2022.2.4,59.945461629420194,
1000,1,4.9,6.1,0,0,37,37,36,,,,,143.43094430002384,144.08170280000195,144.08170280000195,144.58272990002297,45,315,144.58272990002297,144.58272990002297,144.58272990002297,144.58272990002297,144.58272990002297,144.58272990002297,144.58272990002297,144.58272990002297,144.58272990002297,144.9491836000234,144.9491836000234,144.9491836000234,144.9491836000234,144.9491836000234,144.9491836000234,144.9491836000234,144.9491836000234,144.9491836000234,23,0,,,144.9491836000234,145.15162459999556,1000,145.15162459999556,1000,1000,1000,1000,1,num_2,0.7170034000300802,,26,13,2026-03-05_11h19.59.401,2026A_exp2,2022.2.4,59.945461629420194,
1000,1,0.0,0.0,1,0,38,38,55,,,,,145.90004820004106,146.55070760002127,146.55070760002127,147.03504460002296,45,45,147.03504460002296,147.03504460002296,147.03504460002296,147.03504460002296,147.03504460002296,147.03504460002296,147.03504460002296,147.03504460002296,147.03504460002296,147.40151850000257,147.40151850000257,147.40151850000257,147.40151850000257,147.40151850000257,147.40151850000257,147.40151850000257,147.40151850000257,147.40151850000257,23,0,,,147.40151850000257,147.60167880001245,1000,147.60167880001245,1000,1000,1000,1000,1,num_2,0.5716943999868818,,26,13,2026-03-05_11h19.59.401,2026A_exp2,2022.2.4,59.945461629420194,
1,0,3.7,0.0,0,0,39,39,10,,,,,148.20259010000154,148.85291220003273,148.85291220003273,149.33725859998958,315,45,149.33725859998958,149.33725859998958,149.33725859998958,149.33725859998958,149.33725859998958,149.33725859998958,149.33725859998958,149.33725859998958,149.33725859998958,149.70386589999544,149.70386589999544,149.70386589999544,149.70386589999544,149.70386589999544,149.70386589999544,149.70386589999544,149.70386589999544,149.70386589999544,23,0,,,149.70386589999544,149.90421599999536,3.7,149.90421599999536,1,3.7,1,1,1000,num_4,0.5810368999955244,,26,13,2026-03-05_11h19.59.401,2026A_exp2,2022.2.4,59.945461629420194,
1000,1,0.0,0.0,0,0,40,40,7,,,,,150.5046229000436,,151.1552803000086,151.6397249000147,315,45,151.6397249000147,151.6397249000147,151.6397249000147,151.6397249000147,151.6397249000147,151.6397249000147,151.6397249000147,151.6397249000147,151.6397249000147,152.0062547000125,152.0062547000125,152.0062547000125,152.0062547000125,152.0062547000125,152.0062547000125,152.0062547000125,152.0062547000125,152.0062547000125,23,0,,,152.0062547000125,152.20830360002583,1000,152.20830360002583,1000,1000,1000,1000,1,num_2,0.4843533000093885,,26,13,2026-03-05_11h19.59.401,2026A_exp2,2022.2.4,59.945461629420194,
1,0,0.0,6.1,0,0,41,41,24,,,,,152.72338179999497,153.37430990004214,153.37430990004214,153.87541169999167,315,315,153.87541169999167,153.87541169999167,153.87541169999167,153.87541169999167,153.87541169999167,153.87541169999167,153.87541169999167,153.87541169999167,153.87541169999167,154.24166739999782,154.24166739999782,154.24166739999782,154.24166739999782,154.24166739999782,154.24166739999782,154.24166739999782,154.24166739999782,154.24166739999782,23,0,,,154.24166739999782,154.44182920001913,0.0,154.44182920001913,1,0.0,0,0,1000,num_4,1.4116295999847353,,26,13,2026-03-05_11h19.59.401,2026A_exp2,2022.2.4,59.945461629420194,
1000,1,4.9,0.0,1,0,42,42,12,,,,,155.87675850000232,156.52746310003567,156.52746310003567,157.01168749999488,45,315,157.01168749999488,157.01168749999488,157.01168749999488,157.01168749999488,157.01168749999488,157.01168749999488,157.01168749999488,157.01168749999488,157.01168749999488,157.37815639999462,157.37815639999462,157.37815639999462,157.37815639999462,157.37815639999462,157.37815639999462,157.37815639999462,157.37815639999462,157.37815639999462,23,0,,,157.37815639999462,157.58032579999417,1000,157.58032579999417,1000,1000,1000,1000,0,num_3,0.5206071000429802,,26,13,2026-03-05_11h19.59.401,2026A_exp2,2022.2.4,59.945461629420194,
1000,1,0.0,3.7,0,0,43,43,76,,,,,158.12926930002868,158.77948090003338,158.77948090003338,159.26405420002993,315,45,159.26405420002993,159.26405420002993,159.26405420002993,159.26405420002993,159.26405420002993,159.26405420002993,159.26405420002993,159.26405420002993,159.26405420002993,159.63045659998897,159.63045659998897,159.63045659998897,159.63045659998897,159.63045659998897,159.63045659998897,159.63045659998897,159.63045659998897,159.63045659998897,23,0,,,159.63045659998897,159.83228949998738,1000,159.83228949998738,1000,1000,1000,1000,1,num_2,0.44422330002998933,,26,13,2026-03-05_11h19.59.401,2026A_exp2,2022.2.4,59.945461629420194,
1000,1,4.9,3.7,1,0,44,44,78,,,,,160.29796440002974,160.94835560000502,160.94835560000502,,45,45,161.4495039000176,161.4495039000176,161.4495039000176,161.4495039000176,161.4495039000176,161.4495039000176,161.4495039000176,161.4495039000176,161.4495039000176,161.79935530002695,161.79935530002695,161.79935530002695,161.79935530002695,161.79935530002695,161.79935530002695,161.79935530002695,161.79935530002695,161.79935530002695,22,0,,,161.79935530002695,162.00144040002488,1000,162.00144040002488,1000,1000,1000,1000,1,num_2,0.4834322999813594,,26,13,2026-03-05_11h19.59.401,2026A_exp2,2022.2.4,59.945461629420194,
0,0,6.1,3.7,0,0,45,45,49,,,,,162.50009169999976,163.1507270000293,163.1507270000293,163.65173660003347,315,315,163.65173660003347,163.65173660003347,163.65173660003347,163.65173660003347,163.65173660003347,163.65173660003347,163.65173660003347,163.65173660003347,163.65173660003347,164.01825040002586,164.01825040002586,164.01825040002586,164.01825040002586,164.01825040002586,164.01825040002586,164.01825040002586,164.01825040002586,164.01825040002586,23,0,,,164.01825040002586,164.21843160002027,3.7,164.21843160002027,0,3.7,1,0,1000,num_1,0.7551808999851346,,26,13,2026-03-05_11h19.59.401,2026A_exp2,2022.2.4,59.945461629420194,
0,0,0.0,3.7,1,0,46,46,53,,,,,165.00242030003574,165.65323190001072,165.65323190001072,166.1542369000381,315,315,166.1542369000381,166.1542369000381,166.1542369000381,166.1542369000381,166.1542369000381,166.1542369000381,166.1542369000381,166.1542369000381,166.1542369000381,166.52071820001584,166.52071820001584,166.52071820001584,166.52071820001584,166.52071820001584,166.52071820001584,166.52071820001584,166.52071820001584,166.52071820001584,23,0,,,166.52071820001584,166.7209321000264,0.0,166.7209321000264,0,0.0,0,1,1000,num_1,0.7001411999808624,,26,13,2026-03-05_11h19.59.401,2026A_exp2,2022.2.4,59.945461629420194,
1,0,0.0,0.0,1,0,47,47,6,,,,,167.43819010001607,168.08899210003437,168.08899210003437,168.5732907000347,315,315,168.5732907000347,168.5732907000347,168.5732907000347,168.5732907000347,168.5732907000347,168.5732907000347,168.5732907000347,168.5732907000347,168.5732907000347,168.93968400004087,168.93968400004087,168.93968400004087,168.93968400004087,168.93968400004087,168.93968400004087,168.93968400004087,168.93968400004087,168.93968400004087,23,0,,,168.93968400004087,169.13983790000202,0.0,169.13983790000202,1,0.0,0,0,1000,num_4,0.745647799980361,,26,13,2026-03-05_11h19.59.401,2026A_exp2,2022.2.4,59.945461629420194,
0,0,3.7,0.0,1,0,48,48,1,,,,,169.90714890003437,170.5579601000063,170.5579601000063,171.04251140000997,45,45,171.04251140000997,171.04251140000997,171.04251140000997,171.04251140000997,171.04251140000997,171.04251140000997,171.04251140000997,171.04251140000997,171.04251140000997,171.4088696000399,171.4088696000399,171.4088696000399,171.4088696000399,171.4088696000399,171.4088696000399,171.4088696000399,171.4088696000399,171.4088696000399,23,0,,,171.4088696000399,171.60922280000523,3.7,171.60922280000523,1,3.7,1,1,1000,num_4,0.827309200016316,,26,13,2026-03-05_11h19.59.401,2026A_exp2,2022.2.4,59.945461629420194,
1000,1,6.1,0.0,0,0,49,49,58,,,,,172.45991949999006,173.11088729999028,173.11088729999028,173.59489170002053,45,315,173.59489170002053,173.59489170002053,173.59489170002053,173.59489170002053,173.59489170002053,173.59489170002053,173.59489170002053,173.59489170002053,173.59489170002053,173.96143590001157,173.96143590001157,173.96143590001157,173.96143590001157,173.96143590001157,173.96143590001157,173.96143590001157,173.96143590001157,173.96143590001157,23,0,,,173.96143590001157,174.16368050000165,1000,174.16368050000165,1000,1000,1000,1000,0,num_3,0.5451421000179835,,26,13,2026-03-05_11h19.59.401,2026A_exp2,2022.2.4,59.945461629420194,
1000,1,0.0,6.1,1,0,50,50,13,,,,,174.72884739999427,175.37960280000698,175.37960280000698,175.8807313000434,315,45,175.8807313000434,175.8807313000434,175.8807313000434,175.8807313000434,175.8807313000434,175.8807313000434,175.8807313000434,175.8807313000434,175.8807313000434,176.24710780003807,176.24710780003807,176.24710780003807,176.24710780003807,176.24710780003807,176.24710780003807,176.24710780003807,176.24710780003807,176.24710780003807,23,0,,,176.24710780003807,176.44895500002895,1000,176.44895500002895,1000,1000,1000,1000,1,num_2,0.49938619998283684,,26,13,2026-03-05_11h19.59.401,2026A_exp2,2022.2.4,59.945461629420194,
1000,1,0.0,3.7,0,0,51,51,63,,,,,176.96452510001836,177.6151635000133,177.6151635000133,178.1163019000087,45,45,178.1163019000087,178.1163019000087,178.1163019000087,178.1163019000087,178.1163019000087,178.1163019000087,178.1163019000087,178.1163019000087,178.1163019000087,178.46595969999908,178.46595969999908,178.46595969999908,178.46595969999908,178.46595969999908,178.46595969999908,178.46595969999908,178.46595969999908,178.46595969999908,22,0,,,178.46595969999908,178.6682707000291,1000,178.6682707000291,1000,1000,1000,1000,1,num_2,0.5212083999649622,,26,13,2026-03-05_11h19.59.401,2026A_exp2,2022.2.4,59.945461629420194,
1000,1,0.0,3.7,1,0,52,52,88,,,,,179.21666860004188,179.86740799999097,179.86740799999097,180.36858190002386,45,45,180.36858190002386,180.36858190002386,180.36858190002386,180.36858190002386,180.36858190002386,180.36858190002386,180.36858190002386,180.36858190002386,180.36858190002386,180.73474620003253,180.73474620003253,180.73474620003253,180.73474620003253,180.73474620003253,180.73474620003253,180.73474620003253,180.73474620003253,180.73474620003253,23,0,,,180.73474620003253,180.9366079000174,1000,180.9366079000174,1000,1000,1000,1000,1,num_2,0.4366673000040464,,26,13,2026-03-05_11h19.59.401,2026A_exp2,2022.2.4,59.945461629420194,
1000,1,0.0,3.7,0,0,53,53,43,,,,,181.40220030001365,182.05326330004027,182.05326330004027,182.55407670000568,315,45,182.55407670000568,182.55407670000568,182.55407670000568,182.55407670000568,182.55407670000568,182.55407670000568,182.55407670000568,182.55407670000568,182.55407670000568,182.92044750001514,182.92044750001514,182.92044750001514,182.92044750001514,182.92044750001514,182.92044750001514,182.92044750001514,182.92044750001514,182.92044750001514,23,0,,,182.92044750001514,183.12097730004461,1000,183.12097730004461,1000,1000,1000,1000,1,num_2,0.5638630999601446,,26,13,2026-03-05_11h19.59.401,2026A_exp2,2022.2.4,59.945461629420194,
1,0,0.0,0.0,1,0,54,54,83,,,,,183.70441440003924,184.35518710000906,184.35518710000906,184.85616950003896,45,315,184.85616950003896,184.85616950003896,184.85616950003896,184.85616950003896,184.85616950003896,184.85616950003896,184.85616950003896,184.85616950003896,184.85616950003896,185.22256170003675,185.22256170003675,185.22256170003675,185.22256170003675,185.22256170003675,185.22256170003675,185.22256170003675,185.22256170003675,185.22256170003675,23,0,,,185.22256170003675,185.42285620002076,0.0,185.42285620002076,1,0.0,0,0,1000,num_4,1.101776499999687,,26,13,2026-03-05_11h19.59.401,2026A_exp2,2022.2.4,59.945461629420194,
1,0,0.0,4.9,0,0,55,55,32,,,,,186.5409155000234,187.19138390000444,187.19138390000444,187.67585210001562,45,315,187.67585210001562,187.67585210001562,187.67585210001562,187.67585210001562,187.67585210001562,187.67585210001562,187.67585210001562,187.67585210001562,187.67585210001562,188.04229420004413,188.04229420004413,188.04229420004413,188.04229420004413,188.04229420004413,188.04229420004413,188.04229420004413,188.04229420004413,188.04229420004413,23,0,,,188.04229420004413,188.2423821000266,0.0,188.2423821000266,0,0.0,0,1,1000,num_1,1.034701100026723,,26,13,2026-03-05_11h19.59.401,2026A_exp2,2022.2.4,59.945461629420194,
1000,1,0.0,0.0,1,0,56,56,56,,,,,189.29334530001506,189.9442222000216,189.9442222000216,190.42848770000273,315,315,190.42848770000273,190.42848770000273,190.42848770000273,190.42848770000273,190.42848770000273,190.42848770000273,190.42848770000273,190.42848770000273,190.42848770000273,190.79488599998876,190.79488599998876,190.79488599998876,190.79488599998876,190.79488599998876,190.79488599998876,190.79488599998876,190.79488599998876,190.79488599998876,23,0,,,190.79488599998876,190.99725479999324,1000,190.99725479999324,1000,1000,1000,1000,1,num_2,1.0070871000061743,,26,13,2026-03-05_11h19.59.401,2026A_exp2,2022.2.4,59.945461629420194,
1000,1,0.0,3.7,0,0,57,57,23,,,,,192.03121360001387,192.68020659999456,192.68020659999456,193.18124120001448,315,45,193.18124120001448,193.18124120001448,193.18124120001448,193.18124120001448,193.18124120001448,193.18124120001448,193.18124120001448,193.18124120001448,193.18124120001448,193.53087499999674,193.53087499999674,193.53087499999674,193.53087499999674,193.53087499999674,193.53087499999674,193.53087499999674,193.53087499999674,193.53087499999674,22,0,,,193.53087499999674,193.73132600000827,1000,193.73132600000827,1000,1000,1000,1000,1,num_2,2.2731891000294127,,26,13,2026-03-05_11h19.59.401,2026A_exp2,2022.2.4,59.945461629420194,
1,0,3.7,0.0,0,0,58,58,26,,,,,196.0334624000243,196.68422910000663,196.68422910000663,197.20067140000174,45,315,197.20067140000174,197.20067140000174,197.20067140000174,197.20067140000174,197.20067140000174,197.20067140000174,197.20067140000174,197.20067140000174,197.20067140000174,197.55178909999086,197.55178909999086,197.55178909999086,197.55178909999086,197.55178909999086,197.55178909999086,197.55178909999086,197.55178909999086,197.55178909999086,23,0,,,197.55178909999086,197.7518155000289,3.7,197.7518155000289,1,3.7,1,1,1000,num_4,0.8927408000454307,,26,13,2026-03-05_11h19.59.401,2026A_exp2,2022.2.4,59.945461629420194,
0,0,4.9,0.0,0,0,59,59,84,,,,,198.66933130001416,199.320212599996,199.320212599996,199.80458729999373,315,315,199.80458729999373,199.80458729999373,199.80458729999373,199.80458729999373,199.80458729999373,199.80458729999373,199.80458729999373,199.80458729999373,199.80458729999373,200.17068730003666,200.17068730003666,200.17068730003666,200.17068730003666,200.17068730003666,200.17068730003666,200.17068730003666,200.17068730003666,200.17068730003666,23,0,,,200.17068730003666,200.37115650001215,0.0,200.37115650001215,0,0.0,0,1,1000,num_1,0.7300153000396676,,26,13,2026-03-05_11h19.59.401,2026A_exp2,2022.2.4,59.945461629420194,
1,0,3.7,6.1,1,0,60,60,68,,,,,201.1217514000018,201.77272390003782,201.77272390003782,202.27378170000156,315,45,202.27378170000156,202.27378170000156,202.27378170000156,202.27378170000156,202.27378170000156,202.27378170000156,202.27378170000156,202.27378170000156,202.27378170000156,202.623577499995,202.623577499995,202.623577499995,202.623577499995,202.623577499995,202.623577499995,202.623577499995,202.623577499995,202.623577499995,22,0,,,202.623577499995,202.8236149000004,6.1,202.8236149000004,1,6.1,1,1,1000,num_4,0.6942250999854878,,26,13,2026-03-05_11h19.59.401,2026A_exp2,2022.2.4,59.945461629420194,
1000,1,3.7,0.0,0,0,61,61,35,,,,,203.54091700003482,204.1917337999912,204.1917337999912,204.6761523000314,315,315,204.6761523000314,204.6761523000314,204.6761523000314,204.6761523000314,204.6761523000314,204.6761523000314,204.6761523000314,204.6761523000314,204.6761523000314,205.04257690004306,205.04257690004306,205.04257690004306,205.04257690004306,205.04257690004306,205.04257690004306,205.04257690004306,205.04257690004306,205.04257690004306,0,1,[0.0012066999915987253],[0.3671452000271529],205.04257690004306,205.244316300028,1000,205.244316300028,1000,1000,1000,1000,0,num_3,0.6481130999745801,,26,13,2026-03-05_11h19.59.401,2026A_exp2,2022.2.4,59.945461629420194,
1000,1,6.1,4.9,0,0,62,62,51,,,,,205.91032120003365,206.5606656000018,206.5606656000018,207.04502770002,315,45,207.04502770002,207.04502770002,207.04502770002,207.04502770002,207.04502770002,207.04502770002,207.04502770002,207.04502770002,207.04502770002,207.4115759000415,207.4115759000415,207.4115759000415,207.4115759000415,207.4115759000415,207.4115759000415,207.4115759000415,207.4115759000415,207.4115759000415,0,1,[0.0012209000415168703],[0.36716880003223196],207.4115759000415,207.61355970002478,1000,207.61355970002478,1000,1000,1000,1000,0,num_3,0.46381849999306723,,26,13,2026-03-05_11h19.59.401,2026A_exp2,2022.2.4,59.945461629420194,
1000,1,3.7,3.7,0,0,63,63,59,,,,,208.09544420003658,208.74624190002214,208.74624190002214,209.24737620004453,315,45,209.24737620004453,209.24737620004453,209.24737620004453,209.24737620004453,209.24737620004453,209.24737620004453,209.24737620004453,209.24737620004453,209.24737620004453,209.5971096000285,209.5971096000285,209.5971096000285,209.5971096000285,209.5971096000285,209.5971096000285,209.5971096000285,209.5971096000285,209.5971096000285,0,1,[0.0012122999760322273],[0.35045079997507855],209.5971096000285,209.79931620002026,1000,209.79931620002026,1000,1000,1000,1000,0,num_3,0.606489599973429,,26,13,2026-03-05_11h19.59.401,2026A_exp2,2022.2.4,59.945461629420194,
1000,1,0.0,3.7,0,0,64,64,21,,,,,210.43134300003294,211.08181050000712,211.08181050000712,211.5662691000034,45,315,211.5662691000034,211.5662691000034,211.5662691000034,211.5662691000034,211.5662691000034,211.5662691000034,211.5662691000034,211.5662691000034,211.5662691000034,211.93263250001473,211.93263250001473,211.93263250001473,211.93263250001473,211.93263250001473,211.93263250001473,211.93263250001473,211.93263250001473,211.93263250001473,10,4,"[0.0012830000487156212, 0.21701750002102926, 0.26670950005063787, 0.3672585000167601]","[0.15027160005411133, 0.25023490004241467, 0.2835380000178702, 0.3672628000495024]",211.93263250001473,212.1330529000261,1000,212.1330529000261,1000,1000,1000,1000,1,num_2,0.7678501000045799,,26,13,2026-03-05_11h19.59.401,2026A_exp2,2022.2.4,59.945461629420194,
1,0,0.0,6.1,1,0,65,65,19,,,,,212.9170177000342,213.56779990001814,213.56779990001814,214.06883679999737,45,45,214.06883679999737,214.06883679999737,214.06883679999737,214.06883679999737,214.06883679999737,214.06883679999737,214.06883679999737,214.06883679999737,214.06883679999737,214.4353867000318,214.4353867000318,214.4353867000318,214.4353867000318,214.4353867000318,214.4353867000318,214.4353867000318,214.4353867000318,214.4353867000318,23,0,,,214.4353867000318,214.63535120000597,6.1,214.63535120000597,1,6.1,1,1,1000,num_4,0.6418027000036091,,26,13,2026-03-05_11h19.59.401,2026A_exp2,2022.2.4,59.945461629420194,
1,0,0.0,4.9,0,0,66,66,14,,,,,215.30274700000882,215.9534832999925,215.9534832999925,216.45443280000472,315,315,216.45443280000472,216.45443280000472,216.45443280000472,216.45443280000472,216.45443280000472,216.45443280000472,216.45443280000472,216.45443280000472,216.45443280000472,216.8043297000113,216.8043297000113,216.8043297000113,216.8043297000113,216.8043297000113,216.8043297000113,216.8043297000113,216.8043297000113,216.8043297000113,14,4,"[0.06697879999410361, 0.10024959995644167, 0.13346689997706562, 0.16696279996540397]","[0.08344979997491464, 0.1171260999981314, 0.15042530000209808, 0.2503389999619685]",216.8043297000113,217.00445300003048,0.0,217.00445300003048,0,0.0,0,1,1000,num_1,0.8720850000390783,,26,13,2026-03-05_11h19.59.401,2026A_exp2,2022.2.4,59.945461629420194,
1000,1,0.0,0.0,1,0,67,67,73,,,,,217.90522790001705,218.5560916000395,218.5560916000395,219.04038810002385,45,45,219.04038810002385,219.04038810002385,219.04038810002385,219.04038810002385,219.04038810002385,219.04038810002385,219.04038810002385,219.04038810002385,219.04038810002385,219.406964600028,219.406964600028,219.406964600028,219.406964600028,219.406964600028,219.406964600028,219.406964600028,219.406964600028,219.406964600028,23,0,,,219.406964600028,219.60897430003388,1000,219.60897430003388,1000,1000,1000,1000,1,num_2,0.8354692999855615,,26,13,2026-03-05_11h19.59.401,2026A_exp2,2022.2.4,59.945461629420194,
1000,1,0.0,6.1,1,0,68,68,42,,,,,220.47473310003988,221.12538819998736,221.12538819998736,221.60964550002245,45,315,221.60964550002245,221.60964550002245,221.60964550002245,221.60964550002245,221.60964550002245,221.60964550002245,221.60964550002245,221.60964550002245,221.60964550002245,221.97623050003313,221.97623050003313,221.97623050003313,221.97623050003313,221.97623050003313,221.97623050003313,221.97623050003313,221.97623050003313,221.97623050003313,23,0,,,221.97623050003313,222.17831749998732,1000,222.17831749998732,1000,1000,1000,1000,1,num_2,0.49084100004984066,,26,13,2026-03-05_11h19.59.401,2026A_exp2,2022.2.4,59.945461629420194,
1000,1,0.0,0.0,0,0,69,69,45,,,,,222.69357770000352,223.34409910003887,223.34409910003887,223.8449882999994,315,315,223.8449882999994,223.8449882999994,223.8449882999994,223.8449882999994,223.8449882999994,223.8449882999994,223.8449882999994,223.8449882999994,223.8449882999994,224.19499700004235,224.19499700004235,224.19499700004235,224.19499700004235,224.19499700004235,224.19499700004235,224.19499700004235,224.19499700004235,224.19499700004235,0,1,[0.0008664000197313726],[0.35105530003784224],224.19499700004235,224.39719839999452,1000,224.39719839999452,1000,1000,1000,1000,1,num_2,0.5041088000289164,,26,13,2026-03-05_11h19.59.401,2026A_exp2,2022.2.4,59.945461629420194,
0,0,6.1,0.0,0,0,70,70,41,,,,,224.9292199999909,225.5796607999946,225.5796607999946,226.08079989999533,315,45,226.08079989999533,226.08079989999533,226.08079989999533,226.08079989999533,226.08079989999533,226.08079989999533,226.08079989999533,226.08079989999533,226.08079989999533,226.44724950002274,226.44724950002274,226.44724950002274,226.44724950002274,226.44724950002274,226.44724950002274,226.44724950002274,226.44724950002274,226.44724950002274,15,1,[0.216998899995815],[0.3505017000134103],226.44724950002274,226.64714580000145,0.0,226.64714580000145,0,0.0,0,1,1000,num_1,0.8934009000076912,,26,13,2026-03-05_11h19.59.401,2026A_exp2,2022.2.4,59.945461629420194,
1,0,4.9,6.1,0,0,71,71,82,,,,,227.56490749999648,228.21571030002087,228.21571030002087,228.70040110003902,45,45,228.70040110003902,228.70040110003902,228.70040110003902,228.70040110003902,228.70040110003902,228.70040110003902,228.70040110003902,228.70040110003902,228.70040110003902,229.0667017000378,229.0667017000378,229.0667017000378,229.0667017000378,229.0667017000378,229.0667017000378,229.0667017000378,229.0667017000378,229.0667017000378,0,1,[0.0011717999586835504],[0.36691260000225157],229.0667017000378,229.26678529998753,4.9,229.26678529998753,1,4.9,1,1,1000,num_4,0.9696491999784485,,26,13,2026-03-05_11h19.59.401,2026A_exp2,2022.2.4,59.945461629420194,
1000,1,0.0,6.1,1,0,72,72,74,,,,,230.26768610003637,230.9184391000308,230.9184391000308,231.40276020002784,315,315,231.40276020002784,231.40276020002784,231.40276020002784,231.40276020002784,231.40276020002784,231.40276020002784,231.40276020002784,231.40276020002784,231.40276020002784,231.76927520002937,231.76927520002937,231.76927520002937,231.76927520002937,231.76927520002937,231.76927520002937,231.76927520002937,231.76927520002937,231.76927520002937,0,1,[0.0012083000037819147],[0.3671228000312112],231.76927520002937,231.97166540002218,1000,231.97166540002218,1000,1000,1000,1000,1,num_2,0.6096567999920808,,26,13,2026-03-05_11h19.59.401,2026A_exp2,2022.2.4,59.945461629420194,
1000,1,4.9,0.0,0,0,73,73,50,,,,,232.60330250003608,233.25416479998967,233.25416479998967,233.7553559000371,315,315,233.7553559000371,233.7553559000371,233.7553559000371,233.7553559000371,233.7553559000371,233.7553559000371,233.7553559000371,233.7553559000371,233.7553559000371,234.12157870002557,234.12157870002557,234.12157870002557,234.12157870002557,234.12157870002557,234.12157870002557,234.12157870002557,234.12157870002557,234.12157870002557,23,0,,,234.12157870002557,234.32415910001146,1000,234.32415910001146,1000,1000,1000,1000,0,num_3,0.48875620000762865,,26,13,2026-03-05_11h19.59.401,2026A_exp2,2022.2.4,59.945461629420194,
1000,1,6.1,6.1,1,0,74,74,22,,,,,234.83885689999443,235.48973540001316,235.48973540001316,235.9739822000265,315,315,235.9739822000265,235.9739822000265,235.9739822000265,235.9739822000265,235.9739822000265,235.9739822000265,235.9739822000265,235.9739822000265,235.9739822000265,236.34057290002238,236.34057290002238,236.34057290002238,236.34057290002238,236.34057290002238,236.34057290002238,236.34057290002238,236.34057290002238,236.34057290002238,1,2,"[0.0011965999729000032, 0.10023059998638928]","[0.08346669998718426, 0.36720759997842833]",236.34057290002238,236.54263620002894,1000,236.54263620002894,1000,1000,1000,1000,0,num_3,0.41485699999611825,,26,13,2026-03-05_11h19.59.401,2026A_exp2,2022.2.4,59.945461629420194,
1000,1,0.0,0.0,0,0,75,75,57,,,,,236.97440280002775,237.62507820001338,237.62507820001338,238.12622090004152,45,45,238.12622090004152,238.12622090004152,238.12622090004152,238.12622090004152,238.12622090004152,238.12622090004152,238.12622090004152,238.12622090004152,238.12622090004152,238.47601829998894,238.47601829998894,238.47601829998894,238.47601829998894,238.47601829998894,238.47601829998894,238.47601829998894,238.47601829998894,238.47601829998894,0,1,[0.0010455999872647226],[0.350640399963595],238.47601829998894,238.6778903999948,1000,238.69298089999938,1000,1000,1000,1000,0,num_3,0.456888800021261,,26,13,2026-03-05_11h19.59.401,2026A_exp2,2022.2.4,59.945461629420194,
0,0,6.1,0.0,1,0,76,76,25,,,,,239.17690030002268,239.82745660003275,239.82745660003275,240.31165640003746,45,45,240.31165640003746,240.31165640003746,240.31165640003746,240.31165640003746,240.31165640003746,240.31165640003746,240.31165640003746,240.31165640003746,240.31165640003746,240.67816420004237,240.67816420004237,240.67816420004237,240.67816420004237,240.67816420004237,240.67816420004237,240.67816420004237,240.67816420004237,240.67816420004237,23,0,,,240.67816420004237,240.87825539999176,6.1,240.87825539999176,1,6.1,1,1,1000,num_4,0.6466438000206836,,26,13,2026-03-05_11h19.59.401,2026A_exp2,2022.2.4,59.945461629420194,
1000,1,0.0,6.1,0,0,77,77,61,,,,,241.5456206999952,242.1964144000085,242.1964144000085,242.68083900003694,315,315,242.68083900003694,242.68083900003694,242.68083900003694,242.68083900003694,242.68083900003694,242.68083900003694,242.68083900003694,242.68083900003694,242.68083900003694,243.04727610002737,243.04727610002737,243.04727610002737,243.04727610002737,243.04727610002737,243.04727610002737,243.04727610002737,243.04727610002737,243.04727610002737,0,1,[0.0012462000013329089],[0.3671567999990657],243.04727610002737,243.27558270003647,1000,243.27558270003647,1000,1000,1000,1000,1,num_2,0.40981390001252294,,26,13,2026-03-05_11h19.59.401,2026A_exp2,2022.2.4,59.945461629420194,
1000,1,0.0,0.0,0,0,78,78,62,,,,,243.71442700002808,244.36515379999764,244.36515379999764,244.86628940002993,45,315,244.86628940002993,244.86628940002993,244.86628940002993,244.86628940002993,244.86628940002993,244.86628940002993,244.86628940002993,244.86628940002993,244.86628940002993,245.23291070002597,245.23291070002597,245.23291070002597,245.23291070002597,245.23291070002597,245.23291070002597,245.23291070002597,245.23291070002597,245.23291070002597,0,1,[0.0011907999869436026],[0.3669651999953203],245.23291070002597,245.43469389999518,1000,245.43469389999518,1000,1000,1000,1000,1,num_2,0.6184560999972746,,26,13,2026-03-05_11h19.59.401,2026A_exp2,2022.2.4,59.945461629420194,
1000,1,0.0,0.0,1,0,79,79,29,,,,,246.08349869999802,246.73432400001911,246.73432400001911,247.23530629999004,315,45,247.23530629999004,247.23530629999004,247.23530629999004,247.23530629999004,247.23530629999004,247.23530629999004,247.23530629999004,247.23530629999004,247.23530629999004,247.60171370004537,247.60171370004537,247.60171370004537,247.60171370004537,247.60171370004537,247.60171370004537,247.60171370004537,247.60171370004537,247.60171370004537,0,1,[0.0012276999768801033],[0.3672582999570295],247.60171370004537,247.80407420004485,1000,247.80407420004485,1000,1000,1000,1000,1,num_2,0.48964430001797155,,26,13,2026-03-05_11h19.59.401,2026A_exp2,2022.2.4,59.945461629420194,
1,0,6.1,0.0,0,0,80,80,85,,,,,248.31914969999343,248.9696563000325,248.9696563000325,249.4813770999899,45,315,249.4813770999899,249.4813770999899,249.4813770999899,249.4813770999899,249.4813770999899,249.4813770999899,249.4813770999899,249.4813770999899,249.4813770999899,249.8374293000088,249.8374293000088,249.8374293000088,249.8374293000088,249.8374293000088,249.8374293000088,249.8374293000088,249.8374293000088,249.8374293000088,0,1,[0.0033166000503115356],[0.36541810003109276],249.8374293000088,250.03873460000614,6.1,250.03873460000614,1,6.1,1,1,1000,num_4,0.62984010000946,,26,13,2026-03-05_11h19.59.401,2026A_exp2,2022.2.4,59.945461629420194,
1,0,6.1,0.0,1,0,81,81,17,,,,,250.6880226000212,251.33884979999857,251.33884979999857,251.84003409999423,45,315,251.84003409999423,251.84003409999423,251.84003409999423,251.84003409999423,251.84003409999423,251.84003409999423,251.84003409999423,251.84003409999423,251.84003409999423,252.20639020000817,252.20639020000817,252.20639020000817,252.20639020000817,252.20639020000817,252.20639020000817,252.20639020000817,252.20639020000817,252.20639020000817,0,1,[0.0012192000285722315],[0.36681450001196936],252.20639020000817,252.4065324999974,0.0,252.4065324999974,0,0.0,0,1,1000,num_1,0.8467559000127949,,26,13,2026-03-05_11h19.59.401,2026A_exp2,2022.2.4,59.945461629420194,
1000,1,4.9,6.1,1,0,82,82,5,,,,,253.27393830002984,253.92464069998823,253.92464069998823,254.40912760002539,315,45,254.40912760002539,254.40912760002539,254.40912760002539,254.40912760002539,254.40912760002539,254.40912760002539,254.40912760002539,254.40912760002539,254.40912760002539,254.77561870001955,254.77561870001955,254.77561870001955,254.77561870001955,254.77561870001955,254.77561870001955,254.77561870001955,254.77561870001955,254.77561870001955,0,1,[0.0012054999824613333],[0.3670664000092074],254.77561870001955,254.9779948000214,1000,254.9779948000214,1000,1000,1000,1000,1,num_2,0.4107172000221908,,26,13,2026-03-05_11h19.59.401,2026A_exp2,2022.2.4,59.945461629420194,
0,0,4.9,0.0,0,0,83,83,40,,,,,255.40963460004423,256.0602098000236,256.0602098000236,256.56122820003657,45,45,256.56122820003657,256.56122820003657,256.56122820003657,256.56122820003657,256.56122820003657,256.56122820003657,256.56122820003657,256.56122820003657,256.56122820003657,256.9273952000076,256.9273952000076,256.9273952000076,256.9273952000076,256.9273952000076,256.9273952000076,256.9273952000076,256.9273952000076,256.9273952000076,6,3,"[0.0012928000069223344, 0.1333969000261277, 0.2835003000218421]","[0.11673400003928691, 0.2334719000500627, 0.3502526000374928]",256.9273952000076,257.12787590001244,0.0,257.12787590001244,0,0.0,0,1,1000,num_1,0.653041600016877,,26,13,2026-03-05_11h19.59.401,2026A_exp2,2022.2.4,59.945461629420194,
1000,1,6.1,0.0,1,0,84,84,79,,,,,257.811950000003,258.46264570002677,258.46264570002677,258.94709090003744,45,45,258.94709090003744,258.94709090003744,258.94709090003744,258.94709090003744,258.94709090003744,258.94709090003744,258.94709090003744,258.94709090003744,258.94709090003744,259.31343099998776,259.31343099998776,259.31343099998776,259.31343099998776,259.31343099998776,259.31343099998776,259.31343099998776,259.31343099998776,259.31343099998776,0,1,[0.0011955999652855098],[0.3669364000088535],259.31343099998776,259.51603960001376,1000,259.51603960001376,1000,1000,1000,1000,0,num_3,0.5849479999742471,,26,13,2026-03-05_11h19.59.401,2026A_exp2,2022.2.4,59.945461629420194,
1,0,0.0,0.0,1,0,85,85,31,,,,,260.13092680001864,260.78147730004275,260.78147730004275,261.28285170003073,45,315,261.28285170003073,261.28285170003073,261.28285170003073,261.28285170003073,261.28285170003073,261.28285170003073,261.28285170003073,261.28285170003073,261.28285170003073,261.63246620004065,261.63246620004065,261.63246620004065,261.63246620004065,261.63246620004065,261.63246620004065,261.63246620004065,261.63246620004065,261.63246620004065,22,0,,,261.63246620004065,261.8327871999936,0.0,261.8492910999921,1,0.0,0,0,1000,num_4,0.8994939999538474,,26,13,2026-03-05_11h19.59.401,2026A_exp2,2022.2.4,59.945461629420194,
1000,1,0.0,0.0,0,0,86,86,64,,,,,262.7668847999885,263.41760849999264,263.41760849999264,263.9019168000086,45,315,263.9019168000086,263.9019168000086,263.9019168000086,263.9019168000086,263.9019168000086,263.9019168000086,263.9019168000086,263.9019168000086,263.9019168000086,264.2684871000238,264.2684871000238,264.2684871000238,264.2684871000238,264.2684871000238,264.2684871000238,264.2684871000238,264.2684871000238,264.2684871000238,0,1,[0.0010963999666273594],[0.3672249999945052],264.2684871000238,264.47085570002673,1000,264.47085570002673,1000,1000,1000,1000,1,num_2,0.502455799956806,,26,13,2026-03-05_11h19.59.401,2026A_exp2,2022.2.4,59.945461629420194,
1000,1,0.0,4.9,1,0,87,87,37,,,,,265.00254760001553,265.65306570002576,265.65306570002576,266.15426030004164,45,45,266.15426030004164,266.15426030004164,266.15426030004164,266.15426030004164,266.15426030004164,266.15426030004164,266.15426030004164,266.15426030004164,266.15426030004164,266.52069570001913,266.52069570001913,266.52069570001913,266.52069570001913,266.52069570001913,266.52069570001913,266.52069570001913,266.52069570001913,266.52069570001913,0,1,[0.0012458999990485609],[0.3671402999898419],266.52069570001913,266.7230940000154,1000,266.7230940000154,1000,1000,1000,1000,1,num_2,0.5455839000060223,,26,13,2026-03-05_11h19.59.401,2026A_exp2,2022.2.4,59.945461629420194,
1,0,3.7,0.0,1,0,88,88,30,,,,,267.2883847000194,267.93871770001715,267.93871770001715,268.4398730000248,45,45,268.4398730000248,268.4398730000248,268.4398730000248,268.4398730000248,268.4398730000248,268.4398730000248,268.4398730000248,268.4398730000248,268.4398730000248,268.80622239998775,268.80622239998775,268.80622239998775,268.80622239998775,268.80622239998775,268.80622239998775,268.80622239998775,268.80622239998775,268.80622239998775,23,0,,,268.80622239998775,269.00642540003173,0.0,269.00642540003173,0,0.0,0,1,1000,num_1,0.7267484000185505,,26,13,2026-03-05_11h19.59.401,2026A_exp2,2022.2.4,59.945461629420194,
1000,1,0.0,0.0,0,0,89,89,65,,,,,269.75727649999317,270.4079252000083,270.4079252000083,270.8922909999965,45,45,270.8922909999965,270.8922909999965,270.8922909999965,270.8922909999965,270.8922909999965,270.8922909999965,270.8922909999965,270.8922909999965,270.8922909999965,271.2588104000315,271.2588104000315,271.2588104000315,271.2588104000315,271.2588104000315,271.2588104000315,271.2588104000315,271.2588104000315,271.2588104000315,18,3,"[0.1834437000215985, 0.26681569998618215, 0.3501197000150569]","[0.20009340002434328, 0.30015030002687126, 0.36692280002171174]",271.2588104000315,271.459115500038,1000,271.459115500038,1000,1000,1000,1000,1,num_2,0.5217414000071585,,26,13,2026-03-05_11h19.59.401,2026A_exp2,2022.2.4,59.945461629420194,
,,,,,,,,,,,,,,,,,,,,,,,,,,,,,,,,,,,,,,,,,,,,,,,,,,,,272.01674079999793,,,,,,,
