contrast,ori,lefttarget,righttarget,postcue,precue,trials.thisRepN,trials.thisTrialN,trials.thisN,trials.thisIndex,fix1.started,fix2.started,precue_2.started,precue_2.stopped,left_grating.started,right_grating.started,noise_left.started,noise_right.started,fix1.stopped,fix2.stopped,left_grating.stopped,right_grating.stopped,noise_left.stopped,noise_right.stopped,key_resp.started,postcue_2.started,fix1_2.started,fix2_2.started,key_resp.keys,key_resp.rt,key_resp_2.started,break_text_2.started,key_resp_2.keys,key_resp_2.rt,participant,session,date,expName,psychopyVersion,frameRate,
22.7,45,1,0,1,-1,0,0,0,237,22.568273899989435,22.568273899989435,23.04326169998967,23.109937200002605,23.18292660001316,23.18292660001316,23.18292660001316,23.18292660001316,23.209925500006648,23.209925500006648,23.209925500006648,23.209925500006648,23.209925500006648,23.209925500006648,23.209925500006648,23.209925500006648,23.209925500006648,23.209925500006648,num_1,20.685249900008785,43.91331890001311,43.91331890001311,None,,10,001,2025-12-19_11h06.47.536,2025C_exp1_detect,2022.2.4,59.99811606227213,
29.4,315,0,0,-1,-1,0,1,1,158,43.91331890001311,43.91331890001311,44.413873999990756,44.48054899999988,44.53122249999433,44.53122249999433,44.53122249999433,44.53122249999433,44.580777499999385,44.580777499999385,44.580777499999385,44.580777499999385,44.580777499999385,44.580777499999385,44.580777499999385,44.580777499999385,44.580777499999385,44.580777499999385,num_1,5.0826329000119586,49.68587600000319,49.68587600000319,None,,10,001,2025-12-19_11h06.47.536,2025C_exp1_detect,2022.2.4,59.99811606227213,
12.1,315,0,0,1,1,0,2,2,369,49.68587600000319,49.68587600000319,50.18667809999897,50.25321540000732,50.303343900013715,50.303343900013715,50.303343900013715,50.303343900013715,50.35317909999867,50.35317909999867,50.35317909999867,50.35317909999867,50.35317909999867,50.35317909999867,50.35317909999867,50.35317909999867,50.35317909999867,50.35317909999867,num_1,33.974208700004965,84.35374399999273,84.35374399999273,None,,10,001,2025-12-19_11h06.47.536,2025C_exp1_detect,2022.2.4,59.99811606227213,
22.7,45,1,1,-1,0,0,3,3,57,84.35374399999273,84.35374399999273,84.85451189999003,84.9209717999911,84.97130299999844,84.97130299999844,84.97130299999844,84.97130299999844,85.02113219999592,85.02113219999592,85.02113219999592,85.02113219999592,85.02113219999592,85.02113219999592,85.02113219999592,85.02113219999592,85.02113219999592,85.02113219999592,num_1,1.5139568999875337,86.55592959999922,86.55592959999922,None,,10,001,2025-12-19_11h06.47.536,2025C_exp1_detect,2022.2.4,59.99811606227213,
25.5,45,1,0,-1,1,0,4,4,310,86.55592959999922,86.55592959999922,87.05679639999289,87.12316099999589,87.1738408000092,87.1738408000092,87.1738408000092,87.1738408000092,87.22347430000082,87.22347430000082,87.22347430000082,87.22347430000082,87.22347430000082,87.22347430000082,87.22347430000082,87.22347430000082,87.22347430000082,87.22347430000082,num_1,1.4480771999806166,88.69145790001494,88.69145790001494,None,,10,001,2025-12-19_11h06.47.536,2025C_exp1_detect,2022.2.4,59.99811606227213,
22.7,45,0,1,1,0,0,5,5,111,88.69145790001494,88.69145790001494,89.191939500015,89.25898000001325,89.30901450000238,89.30901450000238,89.30901450000238,89.30901450000238,89.35935439998866,89.35935439998866,89.35935439998866,89.35935439998866,89.35935439998866,89.35935439998866,89.35935439998866,89.35935439998866,89.35935439998866,89.35935439998866,num_1,1.4556630000006407,90.84363360001589,90.84363360001589,None,,10,001,2025-12-19_11h06.47.536,2025C_exp1_detect,2022.2.4,59.99811606227213,
29.4,45,1,0,-1,1,0,6,6,311,90.84363360001589,90.84363360001589,91.34407190000638,91.41077230000519,91.46111659999588,91.46111659999588,91.46111659999588,91.46111659999588,91.51110560001689,91.51110560001689,91.51110560001689,91.51110560001689,91.51110560001689,91.51110560001689,91.51110560001689,91.51110560001689,91.51110560001689,91.51110560001689,num_1,2.095867800002452,93.62966020000749,93.62966020000749,None,,10,001,2025-12-19_11h06.47.536,2025C_exp1_detect,2022.2.4,59.99811606227213,
29.4,315,1,0,1,0,0,7,7,104,93.62966020000749,93.62966020000749,94.13025779998861,94.19699480000418,94.24804070001119,94.24804070001119,94.24804070001119,94.24804070001119,94.29707390000112,94.29707390000112,94.29707390000112,94.29707390000112,94.29707390000112,94.29707390000112,94.29707390000112,94.29707390000112,94.29707390000112,94.29707390000112,num_1,3.718164699996123,98.03405370001565,98.03405370001565,None,,10,001,2025-12-19_11h06.47.536,2025C_exp1_detect,2022.2.4,59.99811606227213,
35.3,45,0,0,-1,0,0,8,8,6,98.03405370001565,98.03405370001565,98.53456850000657,98.60140089999186,98.65163100001519,98.65163100001519,98.65163100001519,98.65163100001519,98.70159159999457,98.70159159999457,98.70159159999457,98.70159159999457,98.70159159999457,98.70159159999457,98.70159159999457,98.70159159999457,98.70159159999457,98.70159159999457,num_3,0.8413219999929424,99.56891289999476,99.56891289999476,None,,10,001,2025-12-19_11h06.47.536,2025C_exp1_detect,2022.2.4,59.99811606227213,
15.7,315,1,0,1,-1,0,9,9,244,99.56891289999476,99.56891289999476,100.0695151000109,100.13647040000069,100.1864462000085,100.1864462000085,100.1864462000085,100.1864462000085,100.23632799999905,100.23632799999905,100.23632799999905,100.23632799999905,100.23632799999905,100.23632799999905,100.23632799999905,100.23632799999905,100.23632799999905,100.23632799999905,num_1,2.8826117000135127,103.13912430001074,103.13912430001074,None,,10,001,2025-12-19_11h06.47.536,2025C_exp1_detect,2022.2.4,59.99811606227213,
22.7,315,0,1,-1,0,0,10,10,48,103.13912430001074,103.13912430001074,103.63975279999431,103.70647510001436,103.75687010001275,103.75687010001275,103.75687010001275,103.75687010001275,103.80666360000032,103.80666360000032,103.80666360000032,103.80666360000032,103.80666360000032,103.80666360000032,103.80666360000032,103.80666360000032,103.80666360000032,103.80666360000032,num_1,1.4084160999918822,105.24133759998949,105.24133759998949,None,,10,001,2025-12-19_11h06.47.536,2025C_exp1_detect,2022.2.4,59.99811606227213,
39.2,45,0,0,-1,-1,0,11,11,151,105.24133759998949,105.24133759998949,105.74180290001095,105.80864950001705,105.85892180001247,105.85892180001247,105.85892180001247,105.85892180001247,105.9086585000041,105.9086585000041,105.9086585000041,105.9086585000041,105.9086585000041,105.9086585000041,105.9086585000041,105.9086585000041,105.9086585000041,105.9086585000041,num_3,1.1788850000011735,107.10990430001402,107.10990430001402,None,,10,001,2025-12-19_11h06.47.536,2025C_exp1_detect,2022.2.4,59.99811606227213,
15.7,315,1,1,1,0,0,12,12,136,107.10990430001402,107.10990430001402,107.61041419999674,107.67712539999047,107.72749550000299,107.72749550000299,107.72749550000299,107.72749550000299,107.77736949999235,107.77736949999235,107.77736949999235,107.77736949999235,107.77736949999235,107.77736949999235,107.77736949999235,107.77736949999235,107.77736949999235,107.77736949999235,num_1,1.477968499995768,109.27875110000605,109.27875110000605,None,,10,001,2025-12-19_11h06.47.536,2025C_exp1_detect,2022.2.4,59.99811606227213,
35.3,315,1,1,1,0,0,13,13,141,109.27875110000605,109.27875110000605,109.77947529999074,109.84597070000018,109.89658110000892,109.89658110000892,109.89658110000892,109.89658110000892,109.94612169999164,109.94612169999164,109.94612169999164,109.94612169999164,109.94612169999164,109.94612169999164,109.94612169999164,109.94612169999164,109.94612169999164,109.94612169999164,num_1,1.1729562999971677,111.14725070001441,111.14725070001441,None,,10,001,2025-12-19_11h06.47.536,2025C_exp1_detect,2022.2.4,59.99811606227213,
35.3,315,1,1,1,1,0,14,14,429,111.14725070001441,111.14725070001441,111.64780020000762,111.71447199999238,111.76492960000178,111.76492960000178,111.76492960000178,111.76492960000178,111.81457570000202,111.81457570000202,111.81457570000202,111.81457570000202,111.81457570000202,111.81457570000202,111.81457570000202,111.81457570000202,111.81457570000202,111.81457570000202,num_1,1.4806690999830607,113.31603690001066,113.31603690001066,None,,10,001,2025-12-19_11h06.47.536,2025C_exp1_detect,2022.2.4,59.99811606227213,
35.3,315,0,0,-1,-1,0,15,15,159,113.31603690001066,113.31603690001066,113.81657560000895,113.88336090001394,113.93370170000708,113.93370170000708,113.93370170000708,113.93370170000708,113.98357159999432,113.98357159999432,113.98357159999432,113.98357159999432,113.98357159999432,113.98357159999432,113.98357159999432,113.98357159999432,113.98357159999432,113.98357159999432,num_3,0.975424500007648,114.98430270000244,114.98430270000244,None,,10,001,2025-12-19_11h06.47.536,2025C_exp1_detect,2022.2.4,59.99811606227213,
22.7,45,1,0,1,0,0,16,16,93,114.98430270000244,114.98430270000244,115.48484540000209,115.55179299999145,115.60197409999091,115.60197409999091,115.60197409999091,115.60197409999091,115.65182970001479,115.65182970001479,115.65182970001479,115.65182970001479,115.65182970001479,115.65182970001479,115.65182970001479,115.65182970001479,115.65182970001479,115.65182970001479,num_3,1.7471957000088878,117.42017789999954,117.42017789999954,None,,10,001,2025-12-19_11h06.47.536,2025C_exp1_detect,2022.2.4,59.99811606227213,
42.7,45,0,1,-1,-1,0,17,17,188,117.42017789999954,117.42017789999954,117.92072190000908,117.98757420000038,118.0377412000089,118.0377412000089,118.0377412000089,118.0377412000089,118.08762890001526,118.08762890001526,118.08762890001526,118.08762890001526,118.08762890001526,118.08762890001526,118.08762890001526,118.08762890001526,118.08762890001526,118.08762890001526,num_3,1.2319281999953091,119.33872329999576,119.33872329999576,None,,10,001,2025-12-19_11h06.47.536,2025C_exp1_detect,2022.2.4,59.99811606227213,
39.2,315,0,0,1,0,0,18,18,88,119.33872329999576,119.33872329999576,119.83931380001013,119.9059622999921,119.9563477000047,119.9563477000047,119.9563477000047,119.9563477000047,120.0060872999893,120.0060872999893,120.0060872999893,120.0060872999893,120.0060872999893,120.0060872999893,120.0060872999893,120.0060872999893,120.0060872999893,120.0060872999893,num_3,1.6811252000043169,121.70767440000782,121.70767440000782,None,,10,001,2025-12-19_11h06.47.536,2025C_exp1_detect,2022.2.4,59.99811606227213,
19.6,45,0,0,1,0,0,19,19,74,121.70767440000782,121.70767440000782,122.20858830001089,122.27493660000619,122.32526420001523,122.32526420001523,122.32526420001523,122.32526420001523,122.37524990001111,122.37524990001111,122.37524990001111,122.37524990001111,122.37524990001111,122.37524990001111,122.37524990001111,122.37524990001111,122.37524990001111,122.37524990001111,num_3,1.1840634000254795,123.57630630000494,123.57630630000494,None,,10,001,2025-12-19_11h06.47.536,2025C_exp1_detect,2022.2.4,59.99811606227213,
35.3,315,0,1,-1,0,0,20,20,51,123.57630630000494,123.57630630000494,124.07685919999494,124.14356640001643,124.19388679999975,124.19388679999975,124.19388679999975,124.19388679999975,124.24365270000999,124.24365270000999,124.24365270000999,124.24365270000999,124.24365270000999,124.24365270000999,124.24365270000999,124.24365270000999,124.24365270000999,124.24365270000999,num_3,2.5149200999876484,126.77942310000071,126.77942310000071,None,,10,001,2025-12-19_11h06.47.536,2025C_exp1_detect,2022.2.4,59.99811606227213,
35.3,45,1,0,-1,-1,0,21,21,168,126.77942310000071,126.77942310000071,127.28000850000535,127.34664199998952,127.39707609999459,127.39707609999459,127.39707609999459,127.39707609999459,127.44682700000703,127.44682700000703,127.44682700000703,127.44682700000703,127.44682700000703,127.44682700000703,127.44682700000703,127.44682700000703,127.44682700000703,127.44682700000703,num_1,2.4086449000169523,129.8826296000043,129.8826296000043,None,,10,001,2025-12-19_11h06.47.536,2025C_exp1_detect,2022.2.4,59.99811606227213,
39.2,45,0,0,-1,0,0,22,22,7,129.8826296000043,129.8826296000043,130.38306029999512,130.45003370000632,130.5003402000002,130.5003402000002,130.5003402000002,130.5003402000002,130.5499478999991,130.5499478999991,130.5499478999991,130.5499478999991,130.5499478999991,130.5499478999991,130.5499478999991,130.5499478999991,130.5499478999991,130.5499478999991,num_1,1.768704499991145,132.3349894999992,132.3349894999992,None,,10,001,2025-12-19_11h06.47.536,2025C_exp1_detect,2022.2.4,59.99811606227213,
39.2,315,0,1,1,1,0,23,23,412,132.3349894999992,132.3349894999992,132.83562269998947,132.90224920000765,132.95252650001203,132.95252650001203,132.95252650001203,132.95252650001203,133.00241740001366,133.00241740001366,133.00241740001366,133.00241740001366,133.00241740001366,133.00241740001366,133.00241740001366,133.00241740001366,133.00241740001366,133.00241740001366,num_1,1.4524633999972139,134.48712480001268,134.48712480001268,None,,10,001,2025-12-19_11h06.47.536,2025C_exp1_detect,2022.2.4,59.99811606227213,
29.4,315,1,1,1,1,0,24,24,428,134.48712480001268,134.48712480001268,134.9877422999998,135.05436430001282,135.10469770000782,135.10469770000782,135.10469770000782,135.10469770000782,135.1545291999937,135.1545291999937,135.1545291999937,135.1545291999937,135.1545291999937,135.1545291999937,135.1545291999937,135.1545291999937,135.1545291999937,135.1545291999937,num_1,0.964248200005386,136.1388971999986,136.1388971999986,None,,10,001,2025-12-19_11h06.47.536,2025C_exp1_detect,2022.2.4,59.99811606227213,
15.7,45,1,1,1,0,0,25,25,127,136.1388971999986,136.1388971999986,136.6395166000002,136.70609640001203,136.75632270000642,136.75632270000642,136.75632270000642,136.75632270000642,136.8062181000132,136.8062181000132,136.8062181000132,136.8062181000132,136.8062181000132,136.8062181000132,136.8062181000132,136.8062181000132,136.8062181000132,136.8062181000132,num_1,0.832604099996388,137.65709699998843,137.65709699998843,None,,10,001,2025-12-19_11h06.47.536,2025C_exp1_detect,2022.2.4,59.99811606227213,
25.5,315,1,1,-1,-1,0,26,26,211,137.65709699998843,137.65709699998843,138.15750359999947,138.22426899999846,138.27451139999903,138.27451139999903,138.27451139999903,138.27451139999903,138.32438010000624,138.32438010000624,138.32438010000624,138.32438010000624,138.32438010000624,138.32438010000624,138.32438010000624,138.32438010000624,138.32438010000624,138.32438010000624,num_3,1.651261400023941,139.99264939999557,139.99264939999557,None,,10,001,2025-12-19_11h06.47.536,2025C_exp1_detect,2022.2.4,59.99811606227213,
42.7,45,1,0,-1,0,0,27,27,26,139.99264939999557,139.99264939999557,140.493223700003,140.5599729999958,140.61020530000678,140.61020530000678,140.61020530000678,140.61020530000678,140.6602656999894,140.6602656999894,140.6602656999894,140.6602656999894,140.6602656999894,140.6602656999894,140.6602656999894,140.6602656999894,140.6602656999894,140.6602656999894,num_1,1.2265325000043958,141.9112865999923,141.9112865999923,None,,10,001,2025-12-19_11h06.47.536,2025C_exp1_detect,2022.2.4,59.99811606227213,
19.6,45,0,0,-1,1,0,28,28,290,141.9112865999923,141.9112865999923,142.41198010000517,142.4785164000059,142.5287709000113,142.5287709000113,142.5287709000113,142.5287709000113,142.57863609999185,142.57863609999185,142.57863609999185,142.57863609999185,142.57863609999185,142.57863609999185,142.57863609999185,142.57863609999185,142.57863609999185,142.57863609999185,num_3,1.1640354999981355,143.7630627999897,143.7630627999897,None,,10,001,2025-12-19_11h06.47.536,2025C_exp1_detect,2022.2.4,59.99811606227213,
42.7,315,0,1,-1,1,0,29,29,341,143.7630627999897,143.7630627999897,144.263631800015,144.33029069998884,144.38066210001125,144.38066210001125,144.38066210001125,144.38066210001125,144.43049689999316,144.43049689999316,144.43049689999316,144.43049689999316,144.43049689999316,144.43049689999316,144.43049689999316,144.43049689999316,144.43049689999316,144.43049689999316,num_3,1.3125093999842647,145.76522020000266,145.76522020000266,None,,10,001,2025-12-19_11h06.47.536,2025C_exp1_detect,2022.2.4,59.99811606227213,
22.7,45,0,1,-1,1,0,30,30,327,145.76522020000266,145.76522020000266,146.26566910001566,146.3323698999884,146.3826515999972,146.3826515999972,146.3826515999972,146.3826515999972,146.43266560000484,146.43266560000484,146.43266560000484,146.43266560000484,146.43266560000484,146.43266560000484,146.43266560000484,146.43266560000484,146.43266560000484,146.43266560000484,num_3,1.078138199984096,147.53370450000511,147.53370450000511,None,,10,001,2025-12-19_11h06.47.536,2025C_exp1_detect,2022.2.4,59.99811606227213,
19.6,45,0,1,1,1,0,31,31,398,147.53370450000511,147.53370450000511,148.03423580000526,148.10084980001557,148.15112510000472,148.15112510000472,148.15112510000472,148.15112510000472,148.20116830000188,148.20116830000188,148.20116830000188,148.20116830000188,148.20116830000188,148.20116830000188,148.20116830000188,148.20116830000188,148.20116830000188,148.20116830000188,num_1,0.6780524000059813,148.9016193000134,148.9016193000134,None,,10,001,2025-12-19_11h06.47.536,2025C_exp1_detect,2022.2.4,59.99811606227213,
19.6,315,1,0,-1,0,0,32,32,29,148.9016193000134,148.9016193000134,149.40203880000627,149.46874209999805,149.51912979999906,149.51912979999906,149.51912979999906,149.51912979999906,149.56900650000898,149.56900650000898,149.56900650000898,149.56900650000898,149.56900650000898,149.56900650000898,149.56900650000898,149.56900650000898,149.56900650000898,149.56900650000898,num_1,0.8701753999921493,150.4697378000128,150.4697378000128,None,,10,001,2025-12-19_11h06.47.536,2025C_exp1_detect,2022.2.4,59.99811606227213,
19.6,315,0,0,1,1,0,33,33,371,150.4697378000128,150.4697378000128,150.97039639999275,151.03717679998954,151.0874621999974,151.0874621999974,151.0874621999974,151.0874621999974,151.13721869999426,151.13721869999426,151.13721869999426,151.13721869999426,151.13721869999426,151.13721869999426,151.13721869999426,151.13721869999426,151.13721869999426,151.13721869999426,num_3,0.7978775999799836,151.954581900005,151.954581900005,None,,10,001,2025-12-19_11h06.47.536,2025C_exp1_detect,2022.2.4,59.99811606227213,
12.1,315,1,0,1,-1,0,34,34,243,151.954581900005,151.954581900005,152.45547640000586,152.5219242000021,152.57222870000987,152.57222870000987,152.57222870000987,152.57222870000987,152.62200950001716,152.62200950001716,152.62200950001716,152.62200950001716,152.62200950001716,152.62200950001716,152.62200950001716,152.62200950001716,152.62200950001716,152.62200950001716,num_3,1.8252810999983922,154.4737429000088,154.4737429000088,None,,10,001,2025-12-19_11h06.47.536,2025C_exp1_detect,2022.2.4,59.99811606227213,
19.6,45,1,0,1,1,0,35,35,380,154.4737429000088,154.4737429000088,154.97431240000878,155.04101700001047,155.0917924999958,155.0917924999958,155.0917924999958,155.0917924999958,155.1412588999956,155.1412588999956,155.1412588999956,155.1412588999956,155.1412588999956,155.1412588999956,155.1412588999956,155.1412588999956,155.1412588999956,155.1412588999956,num_3,1.5782559999788646,156.74882310000248,156.74882310000248,None,,10,001,2025-12-19_11h06.47.536,2025C_exp1_detect,2022.2.4,59.99811606227213,
39.2,315,0,0,-1,1,0,36,36,304,156.74882310000248,156.74882310000248,157.24323100000038,157.30992550001247,157.36066730000312,157.36066730000312,157.36066730000312,157.36066730000312,157.41003030000138,157.41003030000138,157.41003030000138,157.41003030000138,157.41003030000138,157.41003030000138,157.4267789000005,157.4267789000005,157.4267789000005,157.4267789000005,num_1,1.3238143000053242,158.77811179999844,158.77811179999844,None,,10,001,2025-12-19_11h06.47.536,2025C_exp1_detect,2022.2.4,59.99811606227213,
39.2,315,1,1,1,1,0,37,37,430,158.77811179999844,158.77811179999844,159.2785920999886,159.34528519999003,159.39577460000874,159.39577460000874,159.39577460000874,159.39577460000874,159.4455636999919,159.4455636999919,159.4455636999919,159.4455636999919,159.4455636999919,159.4455636999919,159.4455636999919,159.4455636999919,159.4455636999919,159.4455636999919,num_1,0.841757799993502,160.31293580000056,160.31293580000056,None,,10,001,2025-12-19_11h06.47.536,2025C_exp1_detect,2022.2.4,59.99811606227213,
25.5,45,0,0,1,-1,0,38,38,220,160.31293580000056,160.31293580000056,160.81360200000927,160.88021860001027,160.93048430001363,160.93048430001363,160.93048430001363,160.93048430001363,160.98047660000157,160.98047660000157,160.98047660000157,160.98047660000157,160.98047660000157,160.98047660000157,160.98047660000157,160.98047660000157,160.98047660000157,160.98047660000157,num_3,1.0348350999993272,162.04806679999456,162.04806679999456,None,,10,001,2025-12-19_11h06.47.536,2025C_exp1_detect,2022.2.4,59.99811606227213,
42.7,315,1,1,-1,1,0,39,39,359,162.04806679999456,162.04806679999456,162.54853200001526,162.6152582000068,162.66539949999424,162.66539949999424,162.66539949999424,162.66539949999424,162.71541460001026,162.71541460001026,162.71541460001026,162.71541460001026,162.71541460001026,162.71541460001026,162.71541460001026,162.71541460001026,162.71541460001026,162.71541460001026,num_1,1.7721529999980703,164.51727989999927,164.51727989999927,None,,10,001,2025-12-19_11h06.47.536,2025C_exp1_detect,2022.2.4,59.99811606227213,
35.3,315,0,1,1,0,0,40,40,123,164.51727989999927,164.51727989999927,165.0177010000043,165.08435469999677,165.13475120000658,165.13475120000658,165.13475120000658,165.13475120000658,165.18459540000185,165.18459540000185,165.18459540000185,165.18459540000185,165.18459540000185,165.18459540000185,165.18459540000185,165.18459540000185,165.18459540000185,165.18459540000185,num_1,0.8386843000189401,166.05206499999622,166.05206499999622,None,,10,001,2025-12-19_11h06.47.536,2025C_exp1_detect,2022.2.4,59.99811606227213,
15.7,315,1,1,1,-1,0,41,41,280,166.05206499999622,166.05206499999622,166.55296940001426,166.6192766999884,166.66958230000455,166.66958230000455,166.66958230000455,166.66958230000455,166.7193869999901,166.7193869999901,166.7193869999901,166.7193869999901,166.7193869999901,166.7193869999901,166.7193869999901,166.7193869999901,166.7193869999901,166.7193869999901,num_1,0.879939700011164,167.62032280000858,167.62032280000858,None,,10,001,2025-12-19_11h06.47.536,2025C_exp1_detect,2022.2.4,59.99811606227213,
22.7,45,1,1,1,1,0,42,42,417,167.62032280000858,167.62032280000858,168.1208445999946,168.18752239999594,168.2377894000092,168.2377894000092,168.2377894000092,168.2377894000092,168.28781219999655,168.28781219999655,168.28781219999655,168.28781219999655,168.28781219999655,168.28781219999655,168.28781219999655,168.28781219999655,168.28781219999655,168.28781219999655,num_1,0.7593161000113469,169.07166889999644,169.07166889999644,None,,10,001,2025-12-19_11h06.47.536,2025C_exp1_detect,2022.2.4,59.99811606227213,
39.2,315,1,0,1,1,0,43,43,394,169.07166889999644,169.07166889999644,169.572204600001,169.63893720001215,169.68952640000498,169.68952640000498,169.68952640000498,169.68952640000498,169.73913309999625,169.73913309999625,169.73913309999625,169.73913309999625,169.73913309999625,169.73913309999625,169.73913309999625,169.73913309999625,169.73913309999625,169.73913309999625,num_3,0.8757732999802101,170.63998030000948,170.63998030000948,None,,10,001,2025-12-19_11h06.47.536,2025C_exp1_detect,2022.2.4,59.99811606227213,
35.3,45,0,1,-1,1,0,44,44,330,170.63998030000948,170.63998030000948,171.14047770001343,171.20714980000048,171.25761790000251,171.25761790000251,171.25761790000251,171.25761790000251,171.30732369999168,171.30732369999168,171.30732369999168,171.30732369999168,171.30732369999168,171.30732369999168,171.30732369999168,171.30732369999168,171.30732369999168,171.30732369999168,num_3,0.9473887000058312,172.2748883999884,172.2748883999884,None,,10,001,2025-12-19_11h06.47.536,2025C_exp1_detect,2022.2.4,59.99811606227213,
25.5,315,0,1,-1,0,0,45,45,49,172.2748883999884,172.2748883999884,172.77554279999458,172.84231350000482,172.89242479999666,172.89242479999666,172.89242479999666,172.89242479999666,172.9422435000015,172.9422435000015,172.9422435000015,172.9422435000015,172.9422435000015,172.9422435000015,172.9422435000015,172.9422435000015,172.9422435000015,172.9422435000015,num_3,1.2169136000156868,174.17693580000196,174.17693580000196,None,,10,001,2025-12-19_11h06.47.536,2025C_exp1_detect,2022.2.4,59.99811606227213,
22.7,315,0,0,-1,0,0,46,46,12,174.17693580000196,174.17693580000196,174.67736850000801,174.74426130001666,174.79430499998853,174.79430499998853,174.79430499998853,174.79430499998853,174.8442309999955,174.8442309999955,174.8442309999955,174.8442309999955,174.8442309999955,174.8442309999955,174.8442309999955,174.8442309999955,174.8442309999955,174.8442309999955,num_3,1.8988874000206124,176.76287330000196,176.76287330000196,None,,10,001,2025-12-19_11h06.47.536,2025C_exp1_detect,2022.2.4,59.99811606227213,
42.7,315,0,1,1,-1,0,47,47,269,176.76287330000196,176.76287330000196,177.2632613000169,177.32998119998956,177.3803690999921,177.3803690999921,177.3803690999921,177.3803690999921,177.43043450001278,177.43043450001278,177.43043450001278,177.43043450001278,177.43043450001278,177.43043450001278,177.43043450001278,177.43043450001278,177.43043450001278,177.43043450001278,num_1,0.7361794000025839,178.19747790001566,178.19747790001566,None,,10,001,2025-12-19_11h06.47.536,2025C_exp1_detect,2022.2.4,59.99811606227213,
22.7,315,0,0,1,-1,0,48,48,228,178.19747790001566,178.19747790001566,178.6980365999916,178.76479079999262,178.81504129999666,178.81504129999666,178.81504129999666,178.81504129999666,178.86507470000652,178.86507470000652,178.86507470000652,178.86507470000652,178.86507470000652,178.86507470000652,178.86507470000652,178.86507470000652,178.86507470000652,178.86507470000652,num_3,0.941476000007242,179.83255290001398,179.83255290001398,None,,10,001,2025-12-19_11h06.47.536,2025C_exp1_detect,2022.2.4,59.99811606227213,
29.4,315,1,1,-1,0,0,49,49,68,179.83255290001398,179.83255290001398,180.3330350999895,180.3997733000142,180.4503825000138,180.4503825000138,180.4503825000138,180.4503825000138,180.4998908000125,180.4998908000125,180.4998908000125,180.4998908000125,180.4998908000125,180.4998908000125,180.4998908000125,180.4998908000125,180.4998908000125,180.4998908000125,num_1,0.9709801000135485,181.50076799999806,181.50076799999806,None,,10,001,2025-12-19_11h06.47.536,2025C_exp1_detect,2022.2.4,59.99811606227213,
29.4,315,1,1,-1,1,0,50,50,356,181.50076799999806,181.50076799999806,182.00115100000403,182.06801819999237,182.118315300002,182.118315300002,182.118315300002,182.118315300002,182.16818979999516,182.16818979999516,182.16818979999516,182.16818979999516,182.16818979999516,182.16818979999516,182.16818979999516,182.16818979999516,182.16818979999516,182.16818979999516,num_1,0.735002400004305,182.9355848999985,182.9355848999985,None,,10,001,2025-12-19_11h06.47.536,2025C_exp1_detect,2022.2.4,59.99811606227213,
29.4,45,1,0,1,-1,0,51,51,239,182.9355848999985,182.9355848999985,183.43603320000693,183.5031699000101,183.55307500000345,183.55307500000345,183.55307500000345,183.55307500000345,183.60291169999982,183.60291169999982,183.60291169999982,183.60291169999982,183.60291169999982,183.60291169999982,183.60291169999982,183.60291169999982,183.60291169999982,183.60291169999982,num_3,1.1081979000009596,184.73732569999993,184.73732569999993,None,,10,001,2025-12-19_11h06.47.536,2025C_exp1_detect,2022.2.4,59.99811606227213,
39.2,45,1,0,1,0,0,52,52,97,184.73732569999993,184.73732569999993,185.237810599996,185.30463050000253,185.3562430999882,185.3562430999882,185.3562430999882,185.3562430999882,185.40471299999626,185.40471299999626,185.40471299999626,185.40471299999626,185.40471299999626,185.40471299999626,185.40471299999626,185.40471299999626,185.40471299999626,185.40471299999626,num_3,1.0499621000199113,186.47243049999815,186.47243049999815,None,,10,001,2025-12-19_11h06.47.536,2025C_exp1_detect,2022.2.4,59.99811606227213,
22.7,315,0,1,1,1,0,53,53,408,186.47243049999815,186.47243049999815,186.97312730000704,187.03973280001082,187.09021739999298,187.09021739999298,187.09021739999298,187.09021739999298,187.13980400000582,187.13980400000582,187.13980400000582,187.13980400000582,187.13980400000582,187.13980400000582,187.13980400000582,187.13980400000582,187.13980400000582,187.13980400000582,num_1,0.8989593000151217,188.05741670000134,188.05741670000134,None,,10,001,2025-12-19_11h06.47.536,2025C_exp1_detect,2022.2.4,59.99811606227213,
19.6,315,0,0,-1,-1,0,54,54,155,188.05741670000134,188.05741670000134,188.55785060001654,188.62482210001326,188.67492520000087,188.67492520000087,188.67492520000087,188.67492520000087,188.72480510000605,188.72480510000605,188.72480510000605,188.72480510000605,188.72480510000605,188.72480510000605,188.72480510000605,188.72480510000605,188.72480510000605,188.72480510000605,num_1,0.8822187000187114,189.6255417999928,189.6255417999928,None,,10,001,2025-12-19_11h06.47.536,2025C_exp1_detect,2022.2.4,59.99811606227213,
22.7,315,0,1,1,-1,0,55,55,264,189.6255417999928,189.6255417999928,190.12608489999548,190.1927757000085,190.24306450001313,190.24306450001313,190.24306450001313,190.24306450001313,190.29297010001028,190.29297010001028,190.29297010001028,190.29297010001028,190.29297010001028,190.29297010001028,190.29297010001028,190.29297010001028,190.29297010001028,190.29297010001028,num_1,0.786079300014535,191.11044580000453,191.11044580000453,None,,10,001,2025-12-19_11h06.47.536,2025C_exp1_detect,2022.2.4,59.99811606227213,
19.6,315,0,1,-1,-1,0,56,56,191,191.11044580000453,191.11044580000453,191.61120129999472,191.67769879999105,191.72821219998877,191.72821219998877,191.72821219998877,191.72821219998877,191.77786649999325,191.77786649999325,191.77786649999325,191.77786649999325,191.77786649999325,191.77786649999325,191.77786649999325,191.77786649999325,191.77786649999325,191.77786649999325,num_1,1.0128114999970421,192.81205490001594,192.81205490001594,None,,10,001,2025-12-19_11h06.47.536,2025C_exp1_detect,2022.2.4,59.99811606227213,
15.7,45,1,0,-1,1,0,57,57,307,192.81205490001594,192.81205490001594,193.31259899999714,193.3793292999908,193.4297244999907,193.4297244999907,193.4297244999907,193.4297244999907,193.47946629999205,193.47946629999205,193.47946629999205,193.47946629999205,193.47946629999205,193.47946629999205,193.47946629999205,193.47946629999205,193.47946629999205,193.47946629999205,num_1,0.7356657999916933,194.2468888000003,194.2468888000003,None,,10,001,2025-12-19_11h06.47.536,2025C_exp1_detect,2022.2.4,59.99811606227213,
29.4,315,0,1,1,-1,0,58,58,266,194.2468888000003,194.2468888000003,194.7474477000069,194.81416889998945,194.86462129998836,194.86462129998836,194.86462129998836,194.86462129998836,194.91434519999893,194.91434519999893,194.91434519999893,194.91434519999893,194.91434519999893,194.91434519999893,194.91434519999893,194.91434519999893,194.91434519999893,194.91434519999893,num_1,0.7251407000003383,195.66495490001398,195.66495490001398,None,,10,001,2025-12-19_11h06.47.536,2025C_exp1_detect,2022.2.4,59.99811606227213,
42.7,315,0,0,1,0,0,59,59,89,195.66495490001398,195.66495490001398,196.16551200000686,196.23225020000245,196.2824927000038,196.2824927000038,196.2824927000038,196.2824927000038,196.3324672000017,196.3324672000017,196.3324672000017,196.3324672000017,196.3324672000017,196.3324672000017,196.3324672000017,196.3324672000017,196.3324672000017,196.3324672000017,num_3,0.9543468999909237,197.3165902000037,197.3165902000037,None,,10,001,2025-12-19_11h06.47.536,2025C_exp1_detect,2022.2.4,59.99811606227213,
22.7,315,0,1,-1,1,0,60,60,336,197.3165902000037,197.3165902000037,197.81712310001603,197.8840906000114,197.93422769999597,197.93422769999597,197.93422769999597,197.93422769999597,197.98405840000487,197.98405840000487,197.98405840000487,197.98405840000487,197.98405840000487,197.98405840000487,197.98405840000487,197.98405840000487,197.98405840000487,197.98405840000487,num_3,0.9190457000222523,198.93492739999783,198.93492739999783,None,,10,001,2025-12-19_11h06.47.536,2025C_exp1_detect,2022.2.4,59.99811606227213,
25.5,45,1,1,1,0,0,61,61,130,198.93492739999783,198.93492739999783,199.43519899999956,199.50212499999907,199.552363099996,199.552363099996,199.552363099996,199.552363099996,199.60228300001472,199.60228300001472,199.60228300001472,199.60228300001472,199.60228300001472,199.60228300001472,199.60228300001472,199.60228300001472,199.60228300001472,199.60228300001472,num_1,0.797128000005614,200.4197692000016,200.4197692000016,None,,10,001,2025-12-19_11h06.47.536,2025C_exp1_detect,2022.2.4,59.99811606227213,
25.5,45,1,0,1,1,0,62,62,382,200.4197692000016,200.4197692000016,200.92035950001446,200.9869266000169,201.03739949999726,201.03739949999726,201.03739949999726,201.03739949999726,201.08722370001487,201.08722370001487,201.08722370001487,201.08722370001487,201.08722370001487,201.08722370001487,201.08722370001487,201.08722370001487,201.08722370001487,201.08722370001487,num_3,1.071332599996822,202.1881532999978,202.1881532999978,None,,10,001,2025-12-19_11h06.47.536,2025C_exp1_detect,2022.2.4,59.99811606227213,
12.1,45,0,0,-1,-1,0,63,63,144,202.1881532999978,202.1881532999978,202.68865880000521,202.75544500001706,202.80563560000155,202.80563560000155,202.80563560000155,202.80563560000155,202.8555008000112,202.8555008000112,202.8555008000112,202.8555008000112,202.8555008000112,202.8555008000112,202.8555008000112,202.8555008000112,202.8555008000112,202.8555008000112,num_3,1.8631495000154246,204.74065630001132,204.74065630001132,None,,10,001,2025-12-19_11h06.47.536,2025C_exp1_detect,2022.2.4,59.99811606227213,
42.7,45,1,0,1,1,0,64,64,386,204.74065630001132,204.74065630001132,205.24120809999295,205.30793000000995,205.35839169999235,205.35839169999235,205.35839169999235,205.35839169999235,205.40822240000125,205.40822240000125,205.40822240000125,205.40822240000125,205.40822240000125,205.40822240000125,205.40822240000125,205.40822240000125,205.40822240000125,205.40822240000125,num_1,1.0065815999987535,206.44246270001167,206.44246270001167,None,,10,001,2025-12-19_11h06.47.536,2025C_exp1_detect,2022.2.4,59.99811606227213,
42.7,45,1,1,-1,-1,0,65,65,206,206.44246270001167,206.44246270001167,206.94291529999464,207.00957449999987,207.06014439999126,207.06014439999126,207.06014439999126,207.06014439999126,207.10984670001199,207.10984670001199,207.10984670001199,207.10984670001199,207.10984670001199,207.10984670001199,207.10984670001199,207.10984670001199,207.10984670001199,207.10984670001199,num_1,1.1050990000076126,208.2442485000065,208.2442485000065,None,,10,001,2025-12-19_11h06.47.536,2025C_exp1_detect,2022.2.4,59.99811606227213,
42.7,45,0,0,1,1,0,66,66,368,208.2442485000065,208.2442485000065,208.74477250000928,208.81151600001613,208.86183509998955,208.86183509998955,208.86183509998955,208.86183509998955,208.91155869999784,208.91155869999784,208.91155869999784,208.91155869999784,208.91155869999784,208.91155869999784,208.91155869999784,208.91155869999784,208.91155869999784,208.91155869999784,num_3,0.8239699999976438,209.76215049999882,209.76215049999882,None,,10,001,2025-12-19_11h06.47.536,2025C_exp1_detect,2022.2.4,59.99811606227213,
29.4,45,1,1,-1,0,0,67,67,59,209.76215049999882,209.76215049999882,210.26320730001316,210.32963320001727,210.38010189999477,210.38010189999477,210.38010189999477,210.38010189999477,210.42979210001067,210.42979210001067,210.42979210001067,210.42979210001067,210.42979210001067,210.42979210001067,210.42979210001067,210.42979210001067,210.42979210001067,210.42979210001067,num_1,1.0967258000164293,211.54754050000338,211.54754050000338,None,,10,001,2025-12-19_11h06.47.536,2025C_exp1_detect,2022.2.4,59.99811606227213,
29.4,45,0,0,-1,1,0,68,68,293,211.54754050000338,211.54754050000338,212.04798140001367,212.1146771000058,212.16501250001602,212.16501250001602,212.16501250001602,212.16501250001602,212.21489850000944,212.21489850000944,212.21489850000944,212.21489850000944,212.21489850000944,212.21489850000944,212.21489850000944,212.21489850000944,212.21489850000944,212.21489850000944,num_3,1.6085934999864548,213.84975080000004,213.84975080000004,None,,10,001,2025-12-19_11h06.47.536,2025C_exp1_detect,2022.2.4,59.99811606227213,
29.4,315,1,1,1,0,0,69,69,140,213.84975080000004,213.84975080000004,214.35006840000278,214.4169913000078,214.467476299993,214.467476299993,214.467476299993,214.467476299993,214.51739809999708,214.51739809999708,214.51739809999708,214.51739809999708,214.51739809999708,214.51739809999708,214.51739809999708,214.51739809999708,214.51739809999708,214.51739809999708,num_1,0.8575003999867477,215.4013624000072,215.4013624000072,None,,10,001,2025-12-19_11h06.47.536,2025C_exp1_detect,2022.2.4,59.99811606227213,
12.1,315,0,0,-1,1,0,70,70,297,215.4013624000072,215.4013624000072,215.90198070000042,215.96857890000683,216.018845899991,216.018845899991,216.018845899991,216.018845899991,216.06879730001674,216.06879730001674,216.06879730001674,216.06879730001674,216.06879730001674,216.06879730001674,216.06879730001674,216.06879730001674,216.06879730001674,216.06879730001674,num_3,2.1624641999951564,218.254248799989,218.254248799989,None,,10,001,2025-12-19_11h06.47.536,2025C_exp1_detect,2022.2.4,59.99811606227213,
12.1,45,0,0,1,1,0,71,71,360,218.254248799989,218.254248799989,218.7548994999961,218.82149430000572,218.87170789999072,218.87170789999072,218.87170789999072,218.87170789999072,218.92161849999684,218.92161849999684,218.92161849999684,218.92161849999684,218.92161849999684,218.92161849999684,218.92161849999684,218.92161849999684,218.92161849999684,218.92161849999684,num_3,0.9248574000084773,219.8724583000003,219.8724583000003,None,,10,001,2025-12-19_11h06.47.536,2025C_exp1_detect,2022.2.4,59.99811606227213,
29.4,315,0,1,-1,0,0,72,72,50,219.8724583000003,219.8724583000003,220.37294800000382,220.43966770000407,220.49017910001567,220.49017910001567,220.49017910001567,220.49017910001567,220.54019040000276,220.54019040000276,220.54019040000276,220.54019040000276,220.54019040000276,220.54019040000276,220.54019040000276,220.54019040000276,220.54019040000276,220.54019040000276,num_1,1.2351813999994192,221.8077376000001,221.8077376000001,None,,10,001,2025-12-19_11h06.47.536,2025C_exp1_detect,2022.2.4,59.99811606227213,
19.6,315,1,1,-1,0,0,73,73,65,221.8077376000001,221.8077376000001,222.30877370000235,222.37491499999305,222.42526839999482,222.42526839999482,222.42526839999482,222.42526839999482,222.4751164999907,222.4751164999907,222.4751164999907,222.4751164999907,222.4751164999907,222.4751164999907,222.4751164999907,222.4751164999907,222.4751164999907,222.4751164999907,num_1,0.7875605000008363,223.2925413000048,223.2925413000048,None,,10,001,2025-12-19_11h06.47.536,2025C_exp1_detect,2022.2.4,59.99811606227213,
39.2,315,0,0,-1,-1,0,74,74,160,223.2925413000048,223.2925413000048,223.79309849999845,223.8597374999954,223.91002470001695,223.91002470001695,223.91002470001695,223.91002470001695,223.95990789998905,223.95990789998905,223.95990789998905,223.95990789998905,223.95990789998905,223.95990789998905,223.95990789998905,223.95990789998905,223.95990789998905,223.95990789998905,num_1,0.926598499994725,224.91087880000123,224.91087880000123,None,,10,001,2025-12-19_11h06.47.536,2025C_exp1_detect,2022.2.4,59.99811606227213,
35.3,315,0,0,1,1,0,75,75,375,224.91087880000123,224.91087880000123,225.411374599993,225.47799700000905,225.528290199989,225.528290199989,225.528290199989,225.528290199989,225.57824160001474,225.57824160001474,225.57824160001474,225.57824160001474,225.57824160001474,225.57824160001474,225.57824160001474,225.57824160001474,225.57824160001474,225.57824160001474,num_3,0.7804615000204649,226.37920540000778,226.37920540000778,None,,10,001,2025-12-19_11h06.47.536,2025C_exp1_detect,2022.2.4,59.99811606227213,
35.3,315,1,1,-1,-1,0,76,76,213,226.37920540000778,226.37920540000778,226.87953350000316,226.94626759999665,226.99639909999678,226.99639909999678,226.99639909999678,226.99639909999678,227.0469454000122,227.0469454000122,227.0469454000122,227.0469454000122,227.0469454000122,227.0469454000122,227.0469454000122,227.0469454000122,227.0469454000122,227.0469454000122,num_1,0.7197797000117134,227.79710120000527,227.79710120000527,None,,10,001,2025-12-19_11h06.47.536,2025C_exp1_detect,2022.2.4,59.99811606227213,
29.4,315,0,1,1,0,0,77,77,122,227.79710120000527,227.79710120000527,228.29752100000042,228.36419590000878,228.41464460000861,228.41464460000861,228.41464460000861,228.41464460000861,228.46474319999106,228.46474319999106,228.46474319999106,228.46474319999106,228.46474319999106,228.46474319999106,228.46474319999106,228.46474319999106,228.46474319999106,228.46474319999106,num_1,0.7183134999941103,229.21511690001353,229.21511690001353,None,,10,001,2025-12-19_11h06.47.536,2025C_exp1_detect,2022.2.4,59.99811606227213,
42.7,315,1,1,-1,-1,0,78,78,215,229.21511690001353,229.21511690001353,229.71563230000902,229.78237500000978,229.83266499999445,229.83266499999445,229.83266499999445,229.83266499999445,229.8828624000016,229.8828624000016,229.8828624000016,229.8828624000016,229.8828624000016,229.8828624000016,229.8828624000016,229.8828624000016,229.8828624000016,229.8828624000016,num_1,0.7964982000121381,230.69989370001713,230.69989370001713,None,,10,001,2025-12-19_11h06.47.536,2025C_exp1_detect,2022.2.4,59.99811606227213,
29.4,45,0,1,-1,0,0,79,79,41,230.69989370001713,230.69989370001713,231.20041990000755,231.2671379999956,231.31745760000194,231.31745760000194,231.31745760000194,231.31745760000194,231.3673235999886,231.3673235999886,231.3673235999886,231.3673235999886,231.3673235999886,231.3673235999886,231.3673235999886,231.3673235999886,231.3673235999886,231.3673235999886,num_3,0.8719988999946509,232.26810020001722,232.26810020001722,None,,10,001,2025-12-19_11h06.47.536,2025C_exp1_detect,2022.2.4,59.99811606227213,
19.6,315,1,0,1,0,0,80,80,101,232.26810020001722,232.26810020001722,232.76868229999673,232.83533190001617,232.8856502000126,232.8856502000126,232.8856502000126,232.8856502000126,232.9355809999979,232.9355809999979,232.9355809999979,232.9355809999979,232.9355809999979,232.9355809999979,232.9355809999979,232.9355809999979,232.9355809999979,232.9355809999979,num_3,1.0479710999934468,234.00322680000681,234.00322680000681,None,,10,001,2025-12-19_11h06.47.536,2025C_exp1_detect,2022.2.4,59.99811606227213,
39.2,315,0,1,-1,1,0,81,81,340,234.00322680000681,234.00322680000681,234.5038118000084,234.57048160000704,234.62077169999247,234.62077169999247,234.62077169999247,234.62077169999247,234.67071609999402,234.67071609999402,234.67071609999402,234.67071609999402,234.67071609999402,234.67071609999402,234.67071609999402,234.67071609999402,234.67071609999402,234.67071609999402,num_3,1.615798700018786,236.3056390999991,236.3056390999991,None,,10,001,2025-12-19_11h06.47.536,2025C_exp1_detect,2022.2.4,59.99811606227213,
25.5,45,0,1,1,-1,0,82,82,256,236.3056390999991,236.3056390999991,236.80612789999577,236.87262119998923,236.92289499999606,236.92289499999606,236.92289499999606,236.92289499999606,236.9728718000115,236.9728718000115,236.9728718000115,236.9728718000115,236.9728718000115,236.9728718000115,236.9728718000115,236.9728718000115,236.9728718000115,236.9728718000115,num_1,0.8337030000111554,237.82373969999026,237.82373969999026,None,,10,001,2025-12-19_11h06.47.536,2025C_exp1_detect,2022.2.4,59.99811606227213,
22.7,45,0,1,1,-1,0,83,83,255,237.82373969999026,237.82373969999026,238.32427660000394,238.3910606999998,238.44130929998937,238.44130929998937,238.44130929998937,238.44130929998937,238.49123429998872,238.49123429998872,238.49123429998872,238.49123429998872,238.49123429998872,238.49123429998872,238.49123429998872,238.49123429998872,238.49123429998872,238.49123429998872,num_1,0.7557138999982271,239.27509840001585,239.27509840001585,None,,10,001,2025-12-19_11h06.47.536,2025C_exp1_detect,2022.2.4,59.99811606227213,
25.5,45,1,0,1,-1,0,84,84,238,239.27509840001585,239.27509840001585,239.7757727999997,239.84244129998842,239.89291870000307,239.89291870000307,239.89291870000307,239.89291870000307,239.94296099999337,239.94296099999337,239.94296099999337,239.94296099999337,239.94296099999337,239.94296099999337,239.94296099999337,239.94296099999337,239.94296099999337,239.94296099999337,num_3,0.9762860999908298,240.94353340001544,240.94353340001544,None,,10,001,2025-12-19_11h06.47.536,2025C_exp1_detect,2022.2.4,59.99811606227213,
15.7,45,1,1,-1,0,0,85,85,55,240.94353340001544,240.94353340001544,241.44418950000545,241.51069900000584,241.56099920000997,241.56099920000997,241.56099920000997,241.56099920000997,241.61091479999595,241.61091479999595,241.61091479999595,241.61091479999595,241.61091479999595,241.61091479999595,241.61091479999595,241.61091479999595,241.61091479999595,241.61091479999595,num_1,1.1244836999976542,242.76195660000667,242.76195660000667,None,,10,001,2025-12-19_11h06.47.536,2025C_exp1_detect,2022.2.4,59.99811606227213,
39.2,315,0,0,1,-1,0,86,86,232,242.76195660000667,242.76195660000667,243.26259960001335,243.32925239999895,243.37953440001002,243.37953440001002,243.37953440001002,243.37953440001002,243.42918390000705,243.42918390000705,243.42918390000705,243.42918390000705,243.42918390000705,243.42918390000705,243.42918390000705,243.42918390000705,243.42918390000705,243.42918390000705,num_3,0.7534904000058305,244.21354430000065,244.21354430000065,None,,10,001,2025-12-19_11h06.47.536,2025C_exp1_detect,2022.2.4,59.99811606227213,
29.4,315,1,1,-1,-1,0,87,87,212,244.21354430000065,244.21354430000065,244.71400880001602,244.78061779998825,244.83093029999873,244.83093029999873,244.83093029999873,244.83093029999873,244.8809312999947,244.8809312999947,244.8809312999947,244.8809312999947,244.8809312999947,244.8809312999947,244.8809312999947,244.8809312999947,244.8809312999947,244.8809312999947,num_1,1.3423404000059236,246.24897720001172,246.24897720001172,None,,10,001,2025-12-19_11h06.47.536,2025C_exp1_detect,2022.2.4,59.99811606227213,
22.7,45,0,0,1,1,0,88,88,363,246.24897720001172,246.24897720001172,246.74939790001372,246.8164070000057,246.86645470000803,246.86645470000803,246.86645470000803,246.86645470000803,246.91637339998852,246.91637339998852,246.91637339998852,246.91637339998852,246.91637339998852,246.91637339998852,246.91637339998852,246.91637339998852,246.91637339998852,246.91637339998852,num_3,1.226174200011883,248.16738810000243,248.16738810000243,None,,10,001,2025-12-19_11h06.47.536,2025C_exp1_detect,2022.2.4,59.99811606227213,
25.5,45,0,0,-1,0,0,89,89,4,248.16738810000243,248.16738810000243,248.6680003000074,248.73458980000578,248.7849070999946,248.7849070999946,248.7849070999946,248.7849070999946,248.8347369999974,248.8347369999974,248.8347369999974,248.8347369999974,248.8347369999974,248.8347369999974,248.8347369999974,248.8347369999974,248.8347369999974,248.8347369999974,num_1,1.5962156000023242,250.4530655000126,250.4530655000126,None,,10,001,2025-12-19_11h06.47.536,2025C_exp1_detect,2022.2.4,59.99811606227213,
39.2,315,1,1,1,0,0,90,90,142,250.4530655000126,250.4530655000126,250.9534712000168,251.02030619999277,251.07060470001306,251.07060470001306,251.07060470001306,251.07060470001306,251.12043869998888,251.12043869998888,251.12043869998888,251.12043869998888,251.12043869998888,251.12043869998888,251.12043869998888,251.12043869998888,251.12043869998888,251.12043869998888,num_1,0.694654899998568,251.83767400000943,251.83767400000943,None,,10,001,2025-12-19_11h06.47.536,2025C_exp1_detect,2022.2.4,59.99811606227213,
12.1,45,1,1,-1,-1,0,91,91,198,251.83767400000943,251.83767400000943,252.3382050000073,252.40489569999045,252.45528049999848,252.45528049999848,252.45528049999848,252.45528049999848,252.50510770000983,252.50510770000983,252.50510770000983,252.50510770000983,252.50510770000983,252.50510770000983,252.50510770000983,252.50510770000983,252.50510770000983,252.50510770000983,num_3,0.8785818000033032,253.40725379998912,253.40725379998912,None,,10,001,2025-12-19_11h06.47.536,2025C_exp1_detect,2022.2.4,59.99811606227213,
25.5,315,1,0,1,0,0,92,92,103,253.40725379998912,253.40725379998912,253.90650969999842,253.97315520001575,254.0234829999972,254.0234829999972,254.0234829999972,254.0234829999972,254.07318730000407,254.07318730000407,254.07318730000407,254.07318730000407,254.07318730000407,254.07318730000407,254.07318730000407,254.07318730000407,254.07318730000407,254.07318730000407,num_3,0.9494921000150498,255.04088310000952,255.04088310000952,None,,10,001,2025-12-19_11h06.47.536,2025C_exp1_detect,2022.2.4,59.99811606227213,
42.7,45,1,1,-1,1,0,93,93,350,255.04088310000952,255.04088310000952,255.5415095000062,255.60811070000636,255.65841730000102,255.65841730000102,255.65841730000102,255.65841730000102,255.70832010000595,255.70832010000595,255.70832010000595,255.70832010000595,255.70832010000595,255.70832010000595,255.70832010000595,255.70832010000595,255.70832010000595,255.70832010000595,num_1,0.6509764000074938,256.37553799999296,256.37553799999296,None,,10,001,2025-12-19_11h06.47.536,2025C_exp1_detect,2022.2.4,59.99811606227213,
12.1,315,0,0,1,-1,0,94,94,225,256.37553799999296,256.37553799999296,256.8761849000002,256.9428222000133,256.99313429999165,256.99313429999165,256.99313429999165,256.99313429999165,257.0429556000163,257.0429556000163,257.0429556000163,257.0429556000163,257.0429556000163,257.0429556000163,257.0429556000163,257.0429556000163,257.0429556000163,257.0429556000163,num_3,0.8200628999911714,257.89373290000367,257.89373290000367,None,,10,001,2025-12-19_11h06.47.536,2025C_exp1_detect,2022.2.4,59.99811606227213,
12.1,45,1,0,1,0,0,95,95,90,257.89373290000367,257.89373290000367,258.39446129999124,258.46097819998977,258.5115785000089,258.5115785000089,258.5115785000089,258.5115785000089,258.56123419999494,258.56123419999494,258.56123419999494,258.56123419999494,258.56123419999494,258.56123419999494,258.56123419999494,258.56123419999494,258.56123419999494,258.56123419999494,num_3,2.1093264000082854,260.696628900012,260.696628900012,None,,10,001,2025-12-19_11h06.47.536,2025C_exp1_detect,2022.2.4,59.99811606227213,
39.2,315,0,1,1,-1,0,96,96,268,260.696628900012,260.696628900012,261.1971111999883,261.26391959999455,261.31417820000206,261.31417820000206,261.31417820000206,261.31417820000206,261.36416540000937,261.36416540000937,261.36416540000937,261.36416540000937,261.36416540000937,261.36416540000937,261.36416540000937,261.36416540000937,261.36416540000937,261.36416540000937,num_1,0.6823834000097122,262.064535100013,262.064535100013,None,,10,001,2025-12-19_11h06.47.536,2025C_exp1_detect,2022.2.4,59.99811606227213,
22.7,45,1,1,-1,-1,0,97,97,201,262.064535100013,262.064535100013,262.5651012000162,262.6319330999977,262.6821976999927,262.6821976999927,262.6821976999927,262.6821976999927,262.7320652999915,262.7320652999915,262.7320652999915,262.7320652999915,262.7320652999915,262.7320652999915,262.7320652999915,262.7320652999915,262.7320652999915,262.7320652999915,num_1,0.7792835999862291,263.5328688000154,263.5328688000154,None,,10,001,2025-12-19_11h06.47.536,2025C_exp1_detect,2022.2.4,59.99811606227213,
25.5,315,0,0,1,0,0,98,98,85,263.5328688000154,263.5328688000154,264.0332926000119,264.0999073999992,264.1502163000114,264.1502163000114,264.1502163000114,264.1502163000114,264.2001874000125,264.2001874000125,264.2001874000125,264.2001874000125,264.2001874000125,264.2001874000125,264.2001874000125,264.2001874000125,264.2001874000125,264.2001874000125,num_1,1.9429897000081837,266.16875179999624,266.16875179999624,None,,10,001,2025-12-19_11h06.47.536,2025C_exp1_detect,2022.2.4,59.99811606227213,
25.5,45,1,1,1,-1,0,99,99,274,266.16875179999624,266.16875179999624,266.66919909999706,266.73591429999215,266.7862202000106,266.7862202000106,266.7862202000106,266.7862202000106,266.83608740000636,266.83608740000636,266.83608740000636,266.83608740000636,266.83608740000636,266.83608740000636,266.83608740000636,266.83608740000636,266.83608740000636,266.83608740000636,num_1,0.6743040000146721,267.5368012000108,267.5368012000108,None,,10,001,2025-12-19_11h06.47.536,2025C_exp1_detect,2022.2.4,59.99811606227213,
15.7,45,1,0,1,-1,0,100,100,235,267.5368012000108,267.5368012000108,268.03716539999004,268.1040772999986,268.15425479999976,268.15425479999976,268.15425479999976,268.15425479999976,268.20407490001526,268.20407490001526,268.20407490001526,268.20407490001526,268.20407490001526,268.20407490001526,268.20407490001526,268.20407490001526,268.20407490001526,268.20407490001526,num_3,0.7391141999978572,268.9715174000012,268.9715174000012,None,,10,001,2025-12-19_11h06.47.536,2025C_exp1_detect,2022.2.4,59.99811606227213,
29.4,315,0,1,1,1,0,101,101,410,268.9715174000012,268.9715174000012,269.4720029000018,269.5388213999977,269.5890168999904,269.5890168999904,269.5890168999904,269.5890168999904,269.6389118999941,269.6389118999941,269.6389118999941,269.6389118999941,269.6389118999941,269.6389118999941,269.6389118999941,269.6389118999941,269.6389118999941,269.6389118999941,num_1,0.7676409999839962,270.43957429999136,270.43957429999136,None,,10,001,2025-12-19_11h06.47.536,2025C_exp1_detect,2022.2.4,59.99811606227213,
25.5,315,1,1,1,0,0,102,102,139,270.43957429999136,270.43957429999136,270.9401877000055,271.0067871999927,271.05717109999387,271.05717109999387,271.05717109999387,271.05717109999387,271.10697670001537,271.10697670001537,271.10697670001537,271.10697670001537,271.10697670001537,271.10697670001537,271.10697670001537,271.10697670001537,271.10697670001537,271.10697670001537,num_1,0.732430200005183,271.85776839999016,271.85776839999016,None,,10,001,2025-12-19_11h06.47.536,2025C_exp1_detect,2022.2.4,59.99811606227213,
12.1,315,1,0,-1,-1,0,103,103,171,271.85776839999016,271.85776839999016,272.35867159999907,272.425083500013,272.4753835000156,272.4753835000156,272.4753835000156,272.4753835000156,272.5255795000121,272.5255795000121,272.5255795000121,272.5255795000121,272.5255795000121,272.5255795000121,272.5255795000121,272.5255795000121,272.5255795000121,272.5255795000121,num_1,0.8494800000044052,273.3926002999942,273.3926002999942,None,,10,001,2025-12-19_11h06.47.536,2025C_exp1_detect,2022.2.4,59.99811606227213,
42.7,45,0,1,1,1,0,104,104,404,273.3926002999942,273.3926002999942,273.893172400014,273.9598568000074,274.0102321000013,274.0102321000013,274.0102321000013,274.0102321000013,274.06003630001214,274.06003630001214,274.06003630001214,274.06003630001214,274.06003630001214,274.06003630001214,274.06003630001214,274.06003630001214,274.06003630001214,274.06003630001214,num_1,0.6428524999937508,274.7273002000002,274.7273002000002,None,,10,001,2025-12-19_11h06.47.536,2025C_exp1_detect,2022.2.4,59.99811606227213,
35.3,315,0,1,1,1,0,105,105,411,274.7273002000002,274.7273002000002,275.2277740999998,275.2944230000139,275.3447269999888,275.3447269999888,275.3447269999888,275.3447269999888,275.39481570001226,275.39481570001226,275.39481570001226,275.39481570001226,275.39481570001226,275.39481570001226,275.39481570001226,275.39481570001226,275.39481570001226,275.39481570001226,num_1,0.6438561000104528,276.06216739999945,276.06216739999945,None,,10,001,2025-12-19_11h06.47.536,2025C_exp1_detect,2022.2.4,59.99811606227213,
35.3,315,1,0,1,-1,0,106,106,249,276.06216739999945,276.06216739999945,276.562354099995,276.62913350001327,276.679418899992,276.679418899992,276.679418899992,276.679418899992,276.7294256000023,276.7294256000023,276.7294256000023,276.7294256000023,276.7294256000023,276.7294256000023,276.7294256000023,276.7294256000023,276.7294256000023,276.7294256000023,num_3,0.7173058000043966,277.46365940000396,277.46365940000396,None,,10,001,2025-12-19_11h06.47.536,2025C_exp1_detect,2022.2.4,59.99811606227213,
29.4,45,0,1,-1,-1,0,107,107,185,277.46365940000396,277.46365940000396,277.9637905000127,278.0304979000066,278.08087999999407,278.08087999999407,278.08087999999407,278.08087999999407,278.13062640000135,278.13062640000135,278.13062640000135,278.13062640000135,278.13062640000135,278.13062640000135,278.13062640000135,278.13062640000135,278.13062640000135,278.13062640000135,num_1,1.4364046000118833,279.5987845000054,279.5987845000054,space,8.392278700019233,10,001,2025-12-19_11h06.47.536,2025C_exp1_detect,2022.2.4,59.99811606227213,
22.7,45,0,1,-1,0,0,108,108,39,288.0238210000098,288.0238210000098,288.52449710000656,288.59115540000494,288.6414242000028,288.6414242000028,288.6414242000028,288.6414242000028,288.69197919999715,288.69197919999715,288.69197919999715,288.69197919999715,288.69197919999715,288.69197919999715,288.69197919999715,288.69197919999715,288.69197919999715,288.69197919999715,num_1,1.666700600006152,290.3763292999938,290.3763292999938,None,,10,001,2025-12-19_11h06.47.536,2025C_exp1_detect,2022.2.4,59.99811606227213,
39.2,45,0,0,1,1,0,109,109,367,290.3763292999938,290.3763292999938,290.8770902999968,290.9434253000072,290.9937223000161,290.9937223000161,290.9937223000161,290.9937223000161,291.04358100000536,291.04358100000536,291.04358100000536,291.04358100000536,291.04358100000536,291.04358100000536,291.04358100000536,291.04358100000536,291.04358100000536,291.04358100000536,num_3,0.7634094000095502,291.82779730000766,291.82779730000766,None,,10,001,2025-12-19_11h06.47.536,2025C_exp1_detect,2022.2.4,59.99811606227213,
15.7,315,1,1,-1,0,0,110,110,64,291.82779730000766,291.82779730000766,292.328084400011,292.3951853000035,292.44519180001225,292.44519180001225,292.44519180001225,292.44519180001225,292.4950572999951,292.4950572999951,292.4950572999951,292.4950572999951,292.4950572999951,292.4950572999951,292.4950572999951,292.4950572999951,292.4950572999951,292.4950572999951,num_1,0.720089199981885,293.2457281000097,293.2457281000097,None,,10,001,2025-12-19_11h06.47.536,2025C_exp1_detect,2022.2.4,59.99811606227213,
42.7,315,0,0,-1,0,0,111,111,17,293.2457281000097,293.2457281000097,293.74636429999373,293.8129205000005,293.8632140000118,293.8632140000118,293.8632140000118,293.8632140000118,293.91317859999253,293.91317859999253,293.91317859999253,293.91317859999253,293.91317859999253,293.91317859999253,293.91317859999253,293.91317859999253,293.91317859999253,293.91317859999253,num_1,0.7256039000058081,294.6638322999934,294.6638322999934,None,,10,001,2025-12-19_11h06.47.536,2025C_exp1_detect,2022.2.4,59.99811606227213,
29.4,45,0,1,1,1,0,112,112,401,294.6638322999934,294.6638322999934,295.1643580000091,295.2309991999937,295.2813092000142,295.2813092000142,295.2813092000142,295.2813092000142,295.3313529000152,295.3313529000152,295.3313529000152,295.3313529000152,295.3313529000152,295.3313529000152,295.3313529000152,295.3313529000152,295.3313529000152,295.3313529000152,num_1,0.6351348000171129,295.99844289998873,295.99844289998873,None,,10,001,2025-12-19_11h06.47.536,2025C_exp1_detect,2022.2.4,59.99811606227213,
15.7,315,0,0,-1,0,0,113,113,10,295.99844289998873,295.99844289998873,296.4990161000169,296.56567680000444,296.6160702999914,296.6160702999914,296.6160702999914,296.6160702999914,296.66603930000565,296.66603930000565,296.66603930000565,296.66603930000565,296.66603930000565,296.66603930000565,296.66603930000565,296.66603930000565,296.66603930000565,296.66603930000565,num_3,0.9490560000122059,297.63339599999017,297.63339599999017,None,,10,001,2025-12-19_11h06.47.536,2025C_exp1_detect,2022.2.4,59.99811606227213,
12.1,315,1,0,1,0,0,114,114,99,297.63339599999017,297.63339599999017,298.13416660000803,298.2006728000124,298.2509466999909,298.2509466999909,298.2509466999909,298.2509466999909,298.30083700001705,298.30083700001705,298.30083700001705,298.30083700001705,298.30083700001705,298.30083700001705,298.30083700001705,298.30083700001705,298.30083700001705,298.30083700001705,num_3,0.8737262999929953,299.2016696000064,299.2016696000064,None,,10,001,2025-12-19_11h06.47.536,2025C_exp1_detect,2022.2.4,59.99811606227213,
12.1,45,1,1,1,0,0,115,115,126,299.2016696000064,299.2016696000064,299.70210570000927,299.76887140001054,299.8192108999938,299.8192108999938,299.8192108999938,299.8192108999938,299.8690829999978,299.8690829999978,299.8690829999978,299.8690829999978,299.8690829999978,299.8690829999978,299.8690829999978,299.8690829999978,299.8690829999978,299.8690829999978,num_1,0.6256909999938216,300.51971399999456,300.51971399999456,None,,10,001,2025-12-19_11h06.47.536,2025C_exp1_detect,2022.2.4,59.99811606227213,
12.1,315,0,1,1,0,0,116,116,117,300.51971399999456,300.51971399999456,301.02013759998954,301.08683230000315,301.13725960001466,301.13725960001466,301.13725960001466,301.13725960001466,301.1870412999997,301.1870412999997,301.1870412999997,301.1870412999997,301.1870412999997,301.1870412999997,301.1870412999997,301.1870412999997,301.1870412999997,301.1870412999997,num_1,0.5721275999967474,301.7876331000007,301.7876331000007,None,,10,001,2025-12-19_11h06.47.536,2025C_exp1_detect,2022.2.4,59.99811606227213,
39.2,45,1,1,-1,-1,0,117,117,205,301.7876331000007,301.7876331000007,302.2881708999921,302.3547840999963,302.4051809000084,302.4051809000084,302.4051809000084,302.4051809000084,302.45495819998905,302.45495819998905,302.45495819998905,302.45495819998905,302.45495819998905,302.45495819998905,302.45495819998905,302.45495819998905,302.45495819998905,302.45495819998905,num_1,0.8639737000048626,303.3390926000138,303.3390926000138,None,,10,001,2025-12-19_11h06.47.536,2025C_exp1_detect,2022.2.4,59.99811606227213,
25.5,45,1,1,-1,1,0,118,118,346,303.3390926000138,303.3390926000138,303.8396686000051,303.9063652000041,303.9567767000117,303.9567767000117,303.9567767000117,303.9567767000117,304.00651070001186,304.00651070001186,304.00651070001186,304.00651070001186,304.00651070001186,304.00651070001186,304.00651070001186,304.00651070001186,304.00651070001186,304.00651070001186,num_1,0.6569671999895945,304.69093290000455,304.69093290000455,None,,10,001,2025-12-19_11h06.47.536,2025C_exp1_detect,2022.2.4,59.99811606227213,
12.1,45,1,0,-1,0,0,119,119,18,304.69093290000455,304.69093290000455,305.19104130001506,305.25775910000084,305.30804770000395,305.30804770000395,305.30804770000395,305.30804770000395,305.35801940000965,305.35801940000965,305.35801940000965,305.35801940000965,305.35801940000965,305.35801940000965,305.35801940000965,305.35801940000965,305.35801940000965,305.35801940000965,num_1,0.6568884000007529,306.04218680001213,306.04218680001213,None,,10,001,2025-12-19_11h06.47.536,2025C_exp1_detect,2022.2.4,59.99811606227213,
12.1,315,1,0,1,1,0,120,120,387,306.04218680001213,306.04218680001213,306.5423567999969,306.6090322000091,306.65938640001696,306.65938640001696,306.65938640001696,306.65938640001696,306.70935220000683,306.70935220000683,306.70935220000683,306.70935220000683,306.70935220000683,306.70935220000683,306.70935220000683,306.70935220000683,306.70935220000683,306.70935220000683,num_3,0.6651731999882031,307.39318159999675,307.39318159999675,None,,10,001,2025-12-19_11h06.47.536,2025C_exp1_detect,2022.2.4,59.99811606227213,
42.7,45,0,0,-1,-1,0,121,121,152,307.39318159999675,307.39318159999675,307.8936836000066,307.9604358999932,308.010826200014,308.010826200014,308.010826200014,308.010826200014,308.06075740000233,308.06075740000233,308.06075740000233,308.06075740000233,308.06075740000233,308.06075740000233,308.06075740000233,308.06075740000233,308.06075740000233,308.06075740000233,num_3,0.6985302000248339,308.777991800016,308.777991800016,None,,10,001,2025-12-19_11h06.47.536,2025C_exp1_detect,2022.2.4,59.99811606227213,
29.4,315,0,1,-1,1,0,122,122,338,308.777991800016,308.777991800016,309.27844759999425,309.3451272000093,309.3956133000029,309.3956133000029,309.3956133000029,309.3956133000029,309.44545110000763,309.44545110000763,309.44545110000763,309.44545110000763,309.44545110000763,309.44545110000763,309.44545110000763,309.44545110000763,309.44545110000763,309.44545110000763,num_3,0.7217798000201583,310.19599080001353,310.19599080001353,None,,10,001,2025-12-19_11h06.47.536,2025C_exp1_detect,2022.2.4,59.99811606227213,
42.7,315,0,1,1,0,0,123,123,125,310.19599080001353,310.19599080001353,310.69644820000394,310.76356620001025,310.81354050000664,310.81354050000664,310.81354050000664,310.81354050000664,310.86341280001216,310.86341280001216,310.86341280001216,310.86341280001216,310.86341280001216,310.86341280001216,310.86341280001216,310.86341280001216,310.86341280001216,310.86341280001216,num_1,0.6558290999964811,311.54758300000685,311.54758300000685,None,,10,001,2025-12-19_11h06.47.536,2025C_exp1_detect,2022.2.4,59.99811606227213,
29.4,315,1,0,-1,-1,0,124,124,176,311.54758300000685,311.54758300000685,312.04812300001504,312.1146743000136,312.165368499991,312.165368499991,312.165368499991,312.165368499991,312.2148184000107,312.2148184000107,312.2148184000107,312.2148184000107,312.2148184000107,312.2148184000107,312.2148184000107,312.2148184000107,312.2148184000107,312.2148184000107,num_1,2.159692300017923,314.40016200000537,314.40016200000537,None,,10,001,2025-12-19_11h06.47.536,2025C_exp1_detect,2022.2.4,59.99811606227213,
25.5,315,0,0,-1,0,0,125,125,13,314.40016200000537,314.40016200000537,314.90075580001576,314.96752199999173,315.0178225999989,315.0178225999989,315.0178225999989,315.0178225999989,315.06764900000417,315.06764900000417,315.06764900000417,315.06764900000417,315.06764900000417,315.06764900000417,315.06764900000417,315.06764900000417,315.06764900000417,315.06764900000417,num_1,1.339412999979686,316.435590100009,316.435590100009,None,,10,001,2025-12-19_11h06.47.536,2025C_exp1_detect,2022.2.4,59.99811606227213,
42.7,45,0,0,1,-1,0,126,126,224,316.435590100009,316.435590100009,316.9361390999984,317.00295120000374,317.0531542999961,317.0531542999961,317.0531542999961,317.0531542999961,317.1029118000006,317.1029118000006,317.1029118000006,317.1029118000006,317.1029118000006,317.1029118000006,317.1029118000006,317.1029118000006,317.1029118000006,317.1029118000006,num_3,0.624178900005063,317.75347590001184,317.75347590001184,None,,10,001,2025-12-19_11h06.47.536,2025C_exp1_detect,2022.2.4,59.99811606227213,
35.3,45,1,0,-1,0,0,127,127,24,317.75347590001184,317.75347590001184,318.25400700001046,318.32076900001266,318.3713373999926,318.3713373999926,318.3713373999926,318.3713373999926,318.42085290001705,318.42085290001705,318.42085290001705,318.42085290001705,318.42085290001705,318.42085290001705,318.42085290001705,318.42085290001705,318.42085290001705,318.42085290001705,num_1,0.6980601999966893,319.1382039000164,319.1382039000164,None,,10,001,2025-12-19_11h06.47.536,2025C_exp1_detect,2022.2.4,59.99811606227213,
19.6,315,1,0,1,-1,0,128,128,245,319.1382039000164,319.1382039000164,319.6387238999887,319.70594079999137,319.755733900005,319.755733900005,319.755733900005,319.755733900005,319.8056499999948,319.8056499999948,319.8056499999948,319.8056499999948,319.8056499999948,319.8056499999948,319.8056499999948,319.8056499999948,319.8056499999948,319.8056499999948,num_3,0.7455986000131816,320.5731805000105,320.5731805000105,None,,10,001,2025-12-19_11h06.47.536,2025C_exp1_detect,2022.2.4,59.99811606227213,
29.4,45,1,0,1,0,0,129,129,95,320.5731805000105,320.5731805000105,321.07352390000597,321.14045619999524,321.19057410000823,321.19057410000823,321.19057410000823,321.19057410000823,321.24057500000345,321.24057500000345,321.24057500000345,321.24057500000345,321.24057500000345,321.24057500000345,321.24057500000345,321.24057500000345,321.24057500000345,321.24057500000345,num_3,0.8299187000084203,322.0913176999893,322.0913176999893,None,,10,001,2025-12-19_11h06.47.536,2025C_exp1_detect,2022.2.4,59.99811606227213,
15.7,45,1,0,-1,-1,0,130,130,163,322.0913176999893,322.0913176999893,322.5920740000147,322.6586782000086,322.70866830000887,322.70866830000887,322.70866830000887,322.70866830000887,322.75855649998994,322.75855649998994,322.75855649998994,322.75855649998994,322.75855649998994,322.75855649998994,322.75855649998994,322.75855649998994,322.75855649998994,322.75855649998994,num_3,0.8563224000099581,323.6428337999969,323.6428337999969,None,,10,001,2025-12-19_11h06.47.536,2025C_exp1_detect,2022.2.4,59.99811606227213,
39.2,45,1,0,-1,-1,0,131,131,169,323.6428337999969,323.6428337999969,324.1433321000077,324.2100602000137,324.2605395000137,324.2605395000137,324.2605395000137,324.2605395000137,324.3104227000149,324.3104227000149,324.3104227000149,324.3104227000149,324.3104227000149,324.3104227000149,324.3104227000149,324.3104227000149,324.3104227000149,324.3104227000149,num_1,1.1526186999981292,325.49462919999496,325.49462919999496,None,,10,001,2025-12-19_11h06.47.536,2025C_exp1_detect,2022.2.4,59.99811606227213,
12.1,315,0,0,1,0,0,132,132,81,325.49462919999496,325.49462919999496,325.9952387000085,326.06185719999485,326.1123317000165,326.1123317000165,326.1123317000165,326.1123317000165,326.16198330000043,326.16198330000043,326.16198330000043,326.16198330000043,326.16198330000043,326.16198330000043,326.16198330000043,326.16198330000043,326.16198330000043,326.16198330000043,num_3,0.9810681999952067,327.1629205000063,327.1629205000063,None,,10,001,2025-12-19_11h06.47.536,2025C_exp1_detect,2022.2.4,59.99811606227213,
29.4,45,0,0,1,-1,0,133,133,221,327.1629205000063,327.1629205000063,327.6633848999918,327.7303346999979,327.78061829999206,327.78061829999206,327.78061829999206,327.78061829999206,327.83052740001585,327.83052740001585,327.83052740001585,327.83052740001585,327.83052740001585,327.83052740001585,327.83052740001585,327.83052740001585,327.83052740001585,327.83052740001585,num_3,0.8086092000012286,328.66458400001284,328.66458400001284,None,,10,001,2025-12-19_11h06.47.536,2025C_exp1_detect,2022.2.4,59.99811606227213,
39.2,45,0,1,-1,1,0,134,134,331,328.66458400001284,328.66458400001284,329.1652694999939,329.23168019999866,329.28202760001295,329.28202760001295,329.28202760001295,329.28202760001295,329.33188800001517,329.33188800001517,329.33188800001517,329.33188800001517,329.33188800001517,329.33188800001517,329.33188800001517,329.33188800001517,329.33188800001517,329.33188800001517,num_3,0.7791215000033844,330.1325092999905,330.1325092999905,None,,10,001,2025-12-19_11h06.47.536,2025C_exp1_detect,2022.2.4,59.99811606227213,
19.6,315,1,1,-1,-1,0,135,135,209,330.1325092999905,330.1325092999905,330.6330861999886,330.6998774000094,330.7501826999942,330.7501826999942,330.7501826999942,330.7501826999942,330.80037360001006,330.80037360001006,330.80037360001006,330.80037360001006,330.80037360001006,330.80037360001006,330.80037360001006,330.80037360001006,330.80037360001006,330.80037360001006,num_3,0.9662621000024956,331.78418300001067,331.78418300001067,None,,10,001,2025-12-19_11h06.47.536,2025C_exp1_detect,2022.2.4,59.99811606227213,
35.3,45,1,1,1,0,0,136,136,132,331.78418300001067,331.78418300001067,332.2847017000022,332.35142110000015,332.4017329000053,332.4017329000053,332.4017329000053,332.4017329000053,332.45176399999764,332.45176399999764,332.45176399999764,332.45176399999764,332.45176399999764,332.45176399999764,332.45176399999764,332.45176399999764,332.45176399999764,332.45176399999764,num_1,0.6750199000234716,333.15231229999335,333.15231229999335,None,,10,001,2025-12-19_11h06.47.536,2025C_exp1_detect,2022.2.4,59.99811606227213,
35.3,315,1,1,1,-1,0,137,137,285,333.15231229999335,333.15231229999335,333.6527279000147,333.71955629999866,333.76977640000405,333.76977640000405,333.76977640000405,333.76977640000405,333.8196186000132,333.8196186000132,333.8196186000132,333.8196186000132,333.8196186000132,333.8196186000132,333.8196186000132,333.8196186000132,333.8196186000132,333.8196186000132,num_1,0.5872331999999005,334.4369061999896,334.4369061999896,None,,10,001,2025-12-19_11h06.47.536,2025C_exp1_detect,2022.2.4,59.99811606227213,
35.3,45,1,1,-1,-1,0,138,138,204,334.4369061999896,334.4369061999896,334.93763980001677,335.00420130000566,335.05441129999235,335.05441129999235,335.05441129999235,335.05441129999235,335.1044000000111,335.1044000000111,335.1044000000111,335.1044000000111,335.1044000000111,335.1044000000111,335.1044000000111,335.1044000000111,335.1044000000111,335.1044000000111,num_1,1.1181646999903023,336.2553925999964,336.2553925999964,None,,10,001,2025-12-19_11h06.47.536,2025C_exp1_detect,2022.2.4,59.99811606227213,
25.5,315,1,0,-1,0,0,139,139,31,336.2553925999964,336.2553925999964,336.75581349999993,336.8225570000068,336.8730715000129,336.8730715000129,336.8730715000129,336.8730715000129,336.92270850000205,336.92270850000205,336.92270850000205,336.92270850000205,336.92270850000205,336.92270850000205,336.92270850000205,336.92270850000205,336.92270850000205,336.92270850000205,num_1,0.5959093999990728,337.54006210001535,337.54006210001535,None,,10,001,2025-12-19_11h06.47.536,2025C_exp1_detect,2022.2.4,59.99811606227213,
42.7,45,1,1,1,-1,0,140,140,278,337.54006210001535,337.54006210001535,338.0408155999903,338.1075129999954,338.1577166999923,338.1577166999923,338.1577166999923,338.1577166999923,338.207714499993,338.207714499993,338.207714499993,338.207714499993,338.207714499993,338.207714499993,338.207714499993,338.207714499993,338.207714499993,338.207714499993,num_1,0.5834531000000425,338.80820729999687,338.80820729999687,None,,10,001,2025-12-19_11h06.47.536,2025C_exp1_detect,2022.2.4,59.99811606227213,
22.7,45,0,0,-1,1,0,141,141,291,338.80820729999687,338.80820729999687,339.3086057000037,339.37528060001205,339.425587500009,339.425587500009,339.425587500009,339.425587500009,339.4755850000074,339.4755850000074,339.4755850000074,339.4755850000074,339.4755850000074,339.4755850000074,339.4755850000074,339.4755850000074,339.4755850000074,339.4755850000074,num_3,0.684099599980982,340.17640309999115,340.17640309999115,None,,10,001,2025-12-19_11h06.47.536,2025C_exp1_detect,2022.2.4,59.99811606227213,
22.7,315,1,0,-1,0,0,142,142,30,340.17640309999115,340.17640309999115,340.67668609999237,340.74358579999534,340.79381390000344,340.79381390000344,340.79381390000344,340.79381390000344,340.8437050000066,340.8437050000066,340.8437050000066,340.8437050000066,340.8437050000066,340.8437050000066,340.8437050000066,340.8437050000066,340.8437050000066,340.8437050000066,num_1,0.5308643000025768,341.3939871999901,341.3939871999901,None,,10,001,2025-12-19_11h06.47.536,2025C_exp1_detect,2022.2.4,59.99811606227213,
29.4,315,1,1,1,-1,0,143,143,284,341.3939871999901,341.3939871999901,341.8944838999887,341.96100700000534,342.01137120000203,342.01137120000203,342.01137120000203,342.01137120000203,342.061812800006,342.061812800006,342.061812800006,342.061812800006,342.061812800006,342.061812800006,342.061812800006,342.061812800006,342.061812800006,342.061812800006,num_3,0.553381800011266,342.6450179000094,342.6450179000094,None,,10,001,2025-12-19_11h06.47.536,2025C_exp1_detect,2022.2.4,59.99811606227213,
22.7,45,1,0,1,1,0,144,144,381,342.6450179000094,342.6450179000094,343.1456986000121,343.2122592999949,343.2627449000138,343.2627449000138,343.2627449000138,343.2627449000138,343.3124314000015,343.3124314000015,343.3124314000015,343.3124314000015,343.3124314000015,343.3124314000015,343.3124314000015,343.3124314000015,343.3124314000015,343.3124314000015,num_3,0.774949300015578,344.11346379999304,344.11346379999304,None,,10,001,2025-12-19_11h06.47.536,2025C_exp1_detect,2022.2.4,59.99811606227213,
12.1,315,0,1,-1,1,0,145,145,333,344.11346379999304,344.11346379999304,344.6139153999975,344.6808701000118,344.73097050000797,344.73097050000797,344.73097050000797,344.73097050000797,344.7809351999895,344.7809351999895,344.7809351999895,344.7809351999895,344.7809351999895,344.7809351999895,344.7809351999895,344.7809351999895,344.7809351999895,344.7809351999895,num_1,0.6909180000075139,345.4982782000152,345.4982782000152,None,,10,001,2025-12-19_11h06.47.536,2025C_exp1_detect,2022.2.4,59.99811606227213,
12.1,315,1,1,-1,-1,0,146,146,207,345.4982782000152,345.4982782000152,345.9987511000072,346.06546260000323,346.1154545000172,346.1154545000172,346.1154545000172,346.1154545000172,346.16536949999863,346.16536949999863,346.16536949999863,346.16536949999863,346.16536949999863,346.16536949999863,346.16536949999863,346.16536949999863,346.16536949999863,346.16536949999863,num_3,0.9695541999826673,347.16646149998996,347.16646149998996,None,,10,001,2025-12-19_11h06.47.536,2025C_exp1_detect,2022.2.4,59.99811606227213,
22.7,45,0,0,1,0,0,147,147,75,347.16646149998996,347.16646149998996,347.6671872000152,347.73404780001147,347.7842810000002,347.7842810000002,347.7842810000002,347.7842810000002,347.83403550001094,347.83403550001094,347.83403550001094,347.83403550001094,347.83403550001094,347.83403550001094,347.83403550001094,347.83403550001094,347.83403550001094,347.83403550001094,num_3,0.7897891000029631,348.6513813000056,348.6513813000056,None,,10,001,2025-12-19_11h06.47.536,2025C_exp1_detect,2022.2.4,59.99811606227213,
35.3,45,0,1,-1,0,0,148,148,42,348.6513813000056,348.6513813000056,349.1519098000135,349.2185097000038,349.26897800000734,349.26897800000734,349.26897800000734,349.26897800000734,349.3186369999894,349.3186369999894,349.3186369999894,349.3186369999894,349.3186369999894,349.3186369999894,349.3186369999894,349.3186369999894,349.3186369999894,349.3186369999894,num_3,1.7364688999950886,351.0871224000002,351.0871224000002,None,,10,001,2025-12-19_11h06.47.536,2025C_exp1_detect,2022.2.4,59.99811606227213,
15.7,315,0,0,1,1,0,149,149,370,351.0871224000002,351.0871224000002,351.5876458999992,351.6543535999954,351.7048011000152,351.7048011000152,351.7048011000152,351.7048011000152,351.7544838000031,351.7544838000031,351.7544838000031,351.7544838000031,351.7544838000031,351.7544838000031,351.7544838000031,351.7544838000031,351.7544838000031,351.7544838000031,num_3,1.1165496000030544,352.8890037999954,352.8890037999954,None,,10,001,2025-12-19_11h06.47.536,2025C_exp1_detect,2022.2.4,59.99811606227213,
19.6,45,1,1,-1,1,0,150,150,344,352.8890037999954,352.8890037999954,353.38964300000225,353.4560686000041,353.50635239999974,353.50635239999974,353.50635239999974,353.50635239999974,353.5562990999897,353.5562990999897,353.5562990999897,353.5562990999897,353.5562990999897,353.5562990999897,353.5562990999897,353.5562990999897,353.5562990999897,353.5562990999897,num_1,1.3632466999988537,354.9409943000064,354.9409943000064,None,,10,001,2025-12-19_11h06.47.536,2025C_exp1_detect,2022.2.4,59.99811606227213,
42.7,45,0,0,-1,1,0,151,151,296,354.9409943000064,354.9409943000064,355.4413574000064,355.5081158000103,355.55842519999715,355.55842519999715,355.55842519999715,355.55842519999715,355.60836579999886,355.60836579999886,355.60836579999886,355.60836579999886,355.60836579999886,355.60836579999886,355.60836579999886,355.60836579999886,355.60836579999886,355.60836579999886,num_3,0.6141227000043727,356.2422837000049,356.2422837000049,None,,10,001,2025-12-19_11h06.47.536,2025C_exp1_detect,2022.2.4,59.99811606227213,
39.2,315,1,0,-1,-1,0,152,152,178,356.2422837000049,356.2422837000049,356.7427117000043,356.8095297999971,356.8598076000053,356.8598076000053,356.8598076000053,356.8598076000053,356.90964980001445,356.90964980001445,356.90964980001445,356.90964980001445,356.90964980001445,356.90964980001445,356.90964980001445,356.90964980001445,356.90964980001445,356.90964980001445,num_1,0.9691638000076637,357.910368700017,357.910368700017,None,,10,001,2025-12-19_11h06.47.536,2025C_exp1_detect,2022.2.4,59.99811606227213,
29.4,45,1,1,-1,-1,0,153,153,203,357.910368700017,357.910368700017,358.41120530001353,358.4779775000061,358.52820540001267,358.52820540001267,358.52820540001267,358.52820540001267,358.5781430999923,358.5781430999923,358.5781430999923,358.5781430999923,358.5781430999923,358.5781430999923,358.5781430999923,358.5781430999923,358.5781430999923,358.5781430999923,num_1,0.9170974000007845,359.5119971999957,359.5119971999957,None,,10,001,2025-12-19_11h06.47.536,2025C_exp1_detect,2022.2.4,59.99811606227213,
42.7,45,1,1,-1,0,0,154,154,62,359.5119971999957,359.5119971999957,360.0125770000159,360.0792944999994,360.1297319000005,360.1297319000005,360.1297319000005,360.1297319000005,360.1795155,360.1795155,360.1795155,360.1795155,360.1795155,360.1795155,360.1795155,360.1795155,360.1795155,360.1795155,num_1,0.7635906999930739,360.96367649998865,360.96367649998865,None,,10,001,2025-12-19_11h06.47.536,2025C_exp1_detect,2022.2.4,59.99811606227213,
25.5,315,1,1,1,1,0,155,155,427,360.96367649998865,360.96367649998865,361.4643073999905,361.53100170000107,361.5808895000082,361.5808895000082,361.5808895000082,361.5808895000082,361.6310943000135,361.6310943000135,361.6310943000135,361.6310943000135,361.6310943000135,361.6310943000135,361.6310943000135,361.6310943000135,361.6310943000135,361.6310943000135,num_1,0.8153363000019453,362.4651384000026,362.4651384000026,None,,10,001,2025-12-19_11h06.47.536,2025C_exp1_detect,2022.2.4,59.99811606227213,
19.6,45,0,0,1,1,0,156,156,362,362.4651384000026,362.4651384000026,362.9654742999992,363.0325141999929,363.0826364000095,363.0826364000095,363.0826364000095,363.0826364000095,363.1325254999974,363.1325254999974,363.1325254999974,363.1325254999974,363.1325254999974,363.1325254999974,363.1325254999974,363.1325254999974,363.1325254999974,363.1325254999974,num_3,0.6099838000081945,363.76624369999627,363.76624369999627,None,,10,001,2025-12-19_11h06.47.536,2025C_exp1_detect,2022.2.4,59.99811606227213,
39.2,45,1,0,-1,1,0,157,157,313,363.76624369999627,363.76624369999627,364.2669947000104,364.33383940000203,364.3841165000049,364.3841165000049,364.3841165000049,364.3841165000049,364.4339047000103,364.4339047000103,364.4339047000103,364.4339047000103,364.4339047000103,364.4339047000103,364.4339047000103,364.4339047000103,364.4339047000103,364.4339047000103,num_1,0.8299729000136722,365.28456729999743,365.28456729999743,None,,10,001,2025-12-19_11h06.47.536,2025C_exp1_detect,2022.2.4,59.99811606227213,
12.1,45,0,1,1,1,0,158,158,396,365.28456729999743,365.28456729999743,365.78514990000986,365.85184570000274,365.90216639998835,365.90216639998835,365.90216639998835,365.90216639998835,365.95203230000334,365.95203230000334,365.95203230000334,365.95203230000334,365.95203230000334,365.95203230000334,365.95203230000334,365.95203230000334,365.95203230000334,365.95203230000334,num_1,1.5434251999831758,367.5201889000018,367.5201889000018,None,,10,001,2025-12-19_11h06.47.536,2025C_exp1_detect,2022.2.4,59.99811606227213,
42.7,315,1,0,1,1,0,159,159,395,367.5201889000018,367.5201889000018,368.02062920000753,368.0873149000108,368.1377954999916,368.1377954999916,368.1377954999916,368.1377954999916,368.18765460001305,368.18765460001305,368.18765460001305,368.18765460001305,368.18765460001305,368.18765460001305,368.18765460001305,368.18765460001305,368.18765460001305,368.18765460001305,num_3,0.8910044000076596,369.1049852000142,369.1049852000142,None,,10,001,2025-12-19_11h06.47.536,2025C_exp1_detect,2022.2.4,59.99811606227213,
42.7,45,0,1,-1,0,0,160,160,44,369.1049852000142,369.1049852000142,369.60552420001477,369.67236260001664,369.7226676999999,369.7226676999999,369.7226676999999,369.7226676999999,369.77240529999835,369.77240529999835,369.77240529999835,369.77240529999835,369.77240529999835,369.77240529999835,369.77240529999835,369.77240529999835,369.77240529999835,369.77240529999835,num_3,0.6981316999881528,370.48969380001654,370.48969380001654,None,,10,001,2025-12-19_11h06.47.536,2025C_exp1_detect,2022.2.4,59.99811606227213,
35.3,45,0,1,1,0,0,161,161,114,370.48969380001654,370.48969380001654,370.9904882000119,371.0570716999937,371.1070966999978,371.1070966999978,371.1070966999978,371.1070966999978,371.1570314000128,371.1570314000128,371.1570314000128,371.1570314000128,371.1570314000128,371.1570314000128,371.1570314000128,371.1570314000128,371.1570314000128,371.1570314000128,num_1,0.5936303999915253,371.7741626999923,371.7741626999923,None,,10,001,2025-12-19_11h06.47.536,2025C_exp1_detect,2022.2.4,59.99811606227213,
19.6,315,0,1,1,0,0,162,162,119,371.7741626999923,371.7741626999923,372.27473390000523,372.3413971000118,372.39171719999285,372.39171719999285,372.39171719999285,372.39171719999285,372.4415377000114,372.4415377000114,372.4415377000114,372.4415377000114,372.4415377000114,372.4415377000114,372.4415377000114,372.4415377000114,372.4415377000114,372.4415377000114,num_1,0.6057411000074353,373.07543200001237,373.07543200001237,None,,10,001,2025-12-19_11h06.47.536,2025C_exp1_detect,2022.2.4,59.99811606227213,
22.7,45,1,1,1,0,0,163,163,129,373.07543200001237,373.07543200001237,373.57597539998824,373.64276429999154,373.693240099994,373.693240099994,373.693240099994,373.693240099994,373.74315580000984,373.74315580000984,373.74315580000984,373.74315580000984,373.74315580000984,373.74315580000984,373.74315580000984,373.74315580000984,373.74315580000984,373.74315580000984,num_1,0.6481020999781322,374.4103846999933,374.4103846999933,None,,10,001,2025-12-19_11h06.47.536,2025C_exp1_detect,2022.2.4,59.99811606227213,
22.7,315,0,0,-1,-1,0,164,164,156,374.4103846999933,374.4103846999933,374.91110749999643,374.9776972999971,375.02802349999547,375.02802349999547,375.02802349999547,375.02802349999547,375.0779438999889,375.0779438999889,375.0779438999889,375.0779438999889,375.0779438999889,375.0779438999889,375.0779438999889,375.0779438999889,375.0779438999889,375.0779438999889,num_3,0.6258962000138126,375.7286580000073,375.7286580000073,None,,10,001,2025-12-19_11h06.47.536,2025C_exp1_detect,2022.2.4,59.99811606227213,
12.1,45,0,1,-1,1,0,165,165,324,375.7286580000073,375.7286580000073,376.22880730000907,376.29559500000323,376.3459523000056,376.3459523000056,376.3459523000056,376.3459523000056,376.39580590001424,376.39580590001424,376.39580590001424,376.39580590001424,376.39580590001424,376.39580590001424,376.39580590001424,376.39580590001424,376.39580590001424,376.39580590001424,num_3,0.6353411999880336,377.0630627000064,377.0630627000064,None,,10,001,2025-12-19_11h06.47.536,2025C_exp1_detect,2022.2.4,59.99811606227213,
29.4,315,0,0,-1,0,0,166,166,14,377.0630627000064,377.0630627000064,377.56357329999446,377.63015450001694,377.68061670000316,377.68061670000316,377.68061670000316,377.68061670000316,377.730475999997,377.730475999997,377.730475999997,377.730475999997,377.730475999997,377.730475999997,377.730475999997,377.730475999997,377.730475999997,377.730475999997,num_3,0.6281854000117164,378.38089309999486,378.38089309999486,None,,10,001,2025-12-19_11h06.47.536,2025C_exp1_detect,2022.2.4,59.99811606227213,
12.1,315,1,1,-1,0,0,167,167,63,378.38089309999486,378.38089309999486,378.88132939999923,378.9482927999925,378.99858390001464,378.99858390001464,378.99858390001464,378.99858390001464,379.04844350001076,379.04844350001076,379.04844350001076,379.04844350001076,379.04844350001076,379.04844350001076,379.04844350001076,379.04844350001076,379.04844350001076,379.04844350001076,num_1,0.7990866999898572,379.86564920001547,379.86564920001547,None,,10,001,2025-12-19_11h06.47.536,2025C_exp1_detect,2022.2.4,59.99811606227213,
15.7,45,0,1,1,0,0,168,168,109,379.86564920001547,379.86564920001547,380.3664393000072,380.43328749999637,380.4834794999915,380.4834794999915,380.4834794999915,380.4834794999915,380.53346380000585,380.53346380000585,380.53346380000585,380.53346380000585,380.53346380000585,380.53346380000585,380.53346380000585,380.53346380000585,380.53346380000585,380.53346380000585,num_1,0.6497802000085358,381.20053420000477,381.20053420000477,None,,10,001,2025-12-19_11h06.47.536,2025C_exp1_detect,2022.2.4,59.99811606227213,
42.7,315,0,1,1,1,0,169,169,413,381.20053420000477,381.20053420000477,381.70103769999696,381.76772830000846,381.8180415999959,381.8180415999959,381.8180415999959,381.8180415999959,381.8679270000139,381.8679270000139,381.8679270000139,381.8679270000139,381.8679270000139,381.8679270000139,381.8679270000139,381.8679270000139,381.8679270000139,381.8679270000139,num_1,0.6828775000176392,382.5685736000014,382.5685736000014,None,,10,001,2025-12-19_11h06.47.536,2025C_exp1_detect,2022.2.4,59.99811606227213,
19.6,45,1,0,-1,-1,0,170,170,164,382.5685736000014,382.5685736000014,383.06912970001576,383.1357178000035,383.1860655999917,383.1860655999917,383.1860655999917,383.1860655999917,383.23581549999653,383.23581549999653,383.23581549999653,383.23581549999653,383.23581549999653,383.23581549999653,383.23581549999653,383.23581549999653,383.23581549999653,383.23581549999653,num_3,0.859304899990093,384.12011819999316,384.12011819999316,None,,10,001,2025-12-19_11h06.47.536,2025C_exp1_detect,2022.2.4,59.99811606227213,
25.5,45,0,1,1,0,0,171,171,112,384.12011819999316,384.12011819999316,384.6206250000105,384.6873706000042,384.73760280001443,384.73760280001443,384.73760280001443,384.73760280001443,384.7874832999951,384.7874832999951,384.7874832999951,384.7874832999951,384.7874832999951,384.7874832999951,384.7874832999951,384.7874832999951,384.7874832999951,384.7874832999951,num_1,0.6432265999901574,385.4547789999924,385.4547789999924,None,,10,001,2025-12-19_11h06.47.536,2025C_exp1_detect,2022.2.4,59.99811606227213,
19.6,45,1,1,1,1,0,172,172,416,385.4547789999924,385.4547789999924,385.9558771000011,386.02186410001013,386.07215059999726,386.07215059999726,386.07215059999726,386.07215059999726,386.12220360001083,386.12220360001083,386.12220360001083,386.12220360001083,386.12220360001083,386.12220360001083,386.12220360001083,386.12220360001083,386.12220360001083,386.12220360001083,num_1,0.6283636000007391,386.7726248000108,386.7726248000108,None,,10,001,2025-12-19_11h06.47.536,2025C_exp1_detect,2022.2.4,59.99811606227213,
35.3,315,0,0,1,-1,0,173,173,231,386.7726248000108,386.7726248000108,387.2734232000075,387.3402844000084,387.3901973000029,387.3901973000029,387.3901973000029,387.3901973000029,387.440204500017,387.440204500017,387.440204500017,387.440204500017,387.440204500017,387.440204500017,387.440204500017,387.440204500017,387.440204500017,387.440204500017,num_3,0.6869427000056021,388.15744750000886,388.15744750000886,None,,10,001,2025-12-19_11h06.47.536,2025C_exp1_detect,2022.2.4,59.99811606227213,
39.2,315,0,0,-1,0,0,174,174,16,388.15744750000886,388.15744750000886,388.65808399999514,388.72462680001627,388.7749179000093,388.7749179000093,388.7749179000093,388.7749179000093,388.82493190001696,388.82493190001696,388.82493190001696,388.82493190001696,388.82493190001696,388.82493190001696,388.82493190001696,388.82493190001696,388.82493190001696,388.82493190001696,num_3,0.8381690999958664,389.69225449999794,389.69225449999794,None,,10,001,2025-12-19_11h06.47.536,2025C_exp1_detect,2022.2.4,59.99811606227213,
12.1,45,0,0,1,-1,0,175,175,216,389.69225449999794,389.69225449999794,390.1928235999949,390.25956259999657,390.3099471000023,390.3099471000023,390.3099471000023,390.3099471000023,390.3597233000037,390.3597233000037,390.3597233000037,390.3597233000037,390.3597233000037,390.3597233000037,390.3597233000037,390.3597233000037,390.3597233000037,390.3597233000037,num_3,0.7274819000158459,391.1103233000031,391.1103233000031,None,,10,001,2025-12-19_11h06.47.536,2025C_exp1_detect,2022.2.4,59.99811606227213,
42.7,315,1,1,-1,0,0,176,176,71,391.1103233000031,391.1103233000031,391.6109453999961,391.67766849999316,391.72797139998875,391.72797139998875,391.72797139998875,391.72797139998875,391.7778222000052,391.7778222000052,391.7778222000052,391.7778222000052,391.7778222000052,391.7778222000052,391.7778222000052,391.7778222000052,391.7778222000052,391.7778222000052,num_1,0.7327099999820348,392.52837179999915,392.52837179999915,None,,10,001,2025-12-19_11h06.47.536,2025C_exp1_detect,2022.2.4,59.99811606227213,
25.5,45,0,1,-1,0,0,177,177,40,392.52837179999915,392.52837179999915,393.0291967999947,393.09576170000946,393.146012400015,393.146012400015,393.146012400015,393.146012400015,393.19585720001487,393.19585720001487,393.19585720001487,393.19585720001487,393.19585720001487,393.19585720001487,393.19585720001487,393.19585720001487,393.19585720001487,393.19585720001487,num_3,0.731369100016309,393.9465882999939,393.9465882999939,None,,10,001,2025-12-19_11h06.47.536,2025C_exp1_detect,2022.2.4,59.99811606227213,
22.7,315,0,0,1,1,0,178,178,372,393.9465882999939,393.9465882999939,394.4471062000084,394.51381090001087,394.5641150000156,394.5641150000156,394.5641150000156,394.5641150000156,394.61401769999065,394.61401769999065,394.61401769999065,394.61401769999065,394.61401769999065,394.61401769999065,394.61401769999065,394.61401769999065,394.61401769999065,394.61401769999065,num_3,0.673757900018245,395.31479450000916,395.31479450000916,None,,10,001,2025-12-19_11h06.47.536,2025C_exp1_detect,2022.2.4,59.99811606227213,
39.2,45,0,0,1,-1,0,179,179,223,395.31479450000916,395.31479450000916,395.81523380000726,395.881993899995,395.9322353999887,395.9322353999887,395.9322353999887,395.9322353999887,395.9820546999981,395.9820546999981,395.9820546999981,395.9820546999981,395.9820546999981,395.9820546999981,395.9820546999981,395.9820546999981,395.9820546999981,395.9820546999981,num_3,0.6244356000097468,396.63265770001453,396.63265770001453,None,,10,001,2025-12-19_11h06.47.536,2025C_exp1_detect,2022.2.4,59.99811606227213,
12.1,315,0,1,1,-1,0,180,180,261,396.63265770001453,396.63265770001453,397.13313659999403,397.1998479999893,397.25004199999967,397.25004199999967,397.25004199999967,397.25004199999967,397.29995240000426,397.29995240000426,397.29995240000426,397.29995240000426,397.29995240000426,397.29995240000426,397.29995240000426,397.29995240000426,397.29995240000426,397.29995240000426,num_3,0.6834691000112798,398.00064589999965,398.00064589999965,None,,10,001,2025-12-19_11h06.47.536,2025C_exp1_detect,2022.2.4,59.99811606227213,
15.7,315,0,0,-1,1,0,181,181,298,398.00064589999965,398.00064589999965,398.5009068000072,398.56772690001526,398.61818059999496,398.61818059999496,398.61818059999496,398.61818059999496,398.66803180001443,398.66803180001443,398.66803180001443,398.66803180001443,398.66803180001443,398.66803180001443,398.66803180001443,398.66803180001443,398.66803180001443,398.66803180001443,num_3,0.6265526000061072,399.3186512000102,399.3186512000102,None,,10,001,2025-12-19_11h06.47.536,2025C_exp1_detect,2022.2.4,59.99811606227213,
12.1,315,1,0,-1,0,0,182,182,27,399.3186512000102,399.3186512000102,399.8191718000162,399.8859252000111,399.93620490000467,399.93620490000467,399.93620490000467,399.93620490000467,399.9859504000051,399.9859504000051,399.9859504000051,399.9859504000051,399.9859504000051,399.9859504000051,399.9859504000051,399.9859504000051,399.9859504000051,399.9859504000051,num_1,0.7813656000071205,400.78662150001037,400.78662150001037,None,,10,001,2025-12-19_11h06.47.536,2025C_exp1_detect,2022.2.4,59.99811606227213,
19.6,45,1,1,1,0,0,183,183,128,400.78662150001037,400.78662150001037,401.2872602000134,401.3540250000078,401.4042666000023,401.4042666000023,401.4042666000023,401.4042666000023,401.45417139999336,401.45417139999336,401.45417139999336,401.45417139999336,401.45417139999336,401.45417139999336,401.45417139999336,401.45417139999336,401.45417139999336,401.45417139999336,num_1,0.6808691000042018,402.1546301000053,402.1546301000053,None,,10,001,2025-12-19_11h06.47.536,2025C_exp1_detect,2022.2.4,59.99811606227213,
15.7,315,0,1,1,0,0,184,184,118,402.1546301000053,402.1546301000053,402.65501240000594,402.7217718999891,402.77200250001624,402.77200250001624,402.77200250001624,402.77200250001624,402.82205210000393,402.82205210000393,402.82205210000393,402.82205210000393,402.82205210000393,402.82205210000393,402.82205210000393,402.82205210000393,402.82205210000393,402.82205210000393,num_1,0.6403835999954026,403.4891473999887,403.4891473999887,None,,10,001,2025-12-19_11h06.47.536,2025C_exp1_detect,2022.2.4,59.99811606227213,
19.6,315,1,1,1,0,0,185,185,137,403.4891473999887,403.4891473999887,403.99011010001414,404.05661570001394,404.1070289000054,404.1070289000054,404.1070289000054,404.1070289000054,404.15683640001225,404.15683640001225,404.15683640001225,404.15683640001225,404.15683640001225,404.15683640001225,404.15683640001225,404.15683640001225,404.15683640001225,404.15683640001225,num_1,0.6096538999991026,404.790725400002,404.790725400002,None,,10,001,2025-12-19_11h06.47.536,2025C_exp1_detect,2022.2.4,59.99811606227213,
25.5,45,0,0,-1,1,0,186,186,292,404.790725400002,404.790725400002,405.2913113000104,405.3579750999925,405.4081773000071,405.4081773000071,405.4081773000071,405.4081773000071,405.4582386999973,405.4582386999973,405.4582386999973,405.4582386999973,405.4582386999973,405.4582386999973,405.4582386999973,405.4582386999973,405.4582386999973,405.4582386999973,num_3,0.5561181000084616,406.0419363999972,406.0419363999972,None,,10,001,2025-12-19_11h06.47.536,2025C_exp1_detect,2022.2.4,59.99811606227213,
19.6,315,0,1,1,-1,0,187,187,263,406.0419363999972,406.0419363999972,406.5425217000011,406.60921940000844,406.6595299000037,406.6595299000037,406.6595299000037,406.6595299000037,406.7092214000004,406.7092214000004,406.7092214000004,406.7092214000004,406.7092214000004,406.7092214000004,406.7092214000004,406.7092214000004,406.7092214000004,406.7092214000004,num_1,0.6497444999986328,407.37659749999875,407.37659749999875,None,,10,001,2025-12-19_11h06.47.536,2025C_exp1_detect,2022.2.4,59.99811606227213,
35.3,45,1,0,1,1,0,188,188,384,407.37659749999875,407.37659749999875,407.8773060000094,407.9440084999951,407.99409880000167,407.99409880000167,407.99409880000167,407.99409880000167,408.0440942000132,408.0440942000132,408.0440942000132,408.0440942000132,408.0440942000132,408.0440942000132,408.0440942000132,408.0440942000132,408.0440942000132,408.0440942000132,num_3,0.8022783000196796,408.87817060001544,408.87817060001544,None,,10,001,2025-12-19_11h06.47.536,2025C_exp1_detect,2022.2.4,59.99811606227213,
25.5,315,0,0,-1,1,0,189,189,301,408.87817060001544,408.87817060001544,409.37867870001355,409.44538789999206,409.4957091000106,409.4957091000106,409.4957091000106,409.4957091000106,409.5457716000092,409.5457716000092,409.5457716000092,409.5457716000092,409.5457716000092,409.5457716000092,409.5457716000092,409.5457716000092,409.5457716000092,409.5457716000092,num_3,0.621077800024068,410.19618480000645,410.19618480000645,None,,10,001,2025-12-19_11h06.47.536,2025C_exp1_detect,2022.2.4,59.99811606227213,
22.7,315,1,1,1,1,0,190,190,426,410.19618480000645,410.19618480000645,410.6968845000083,410.7636915000039,410.81397439999273,410.81397439999273,410.81397439999273,410.81397439999273,410.86377809999976,410.86377809999976,410.86377809999976,410.86377809999976,410.86377809999976,410.86377809999976,410.86377809999976,410.86377809999976,410.86377809999976,410.86377809999976,num_1,0.6480609999853186,411.53100039999117,411.53100039999117,None,,10,001,2025-12-19_11h06.47.536,2025C_exp1_detect,2022.2.4,59.99811606227213,
15.7,45,1,1,-1,-1,0,191,191,199,411.53100039999117,411.53100039999117,412.0314764000068,412.09805999998935,412.1484919000068,412.1484919000068,412.1484919000068,412.1484919000068,412.1983920999919,412.1983920999919,412.1983920999919,412.1983920999919,412.1983920999919,412.1983920999919,412.1983920999919,412.1983920999919,412.1983920999919,412.1983920999919,num_3,0.7132897000119556,412.9323457000137,412.9323457000137,None,,10,001,2025-12-19_11h06.47.536,2025C_exp1_detect,2022.2.4,59.99811606227213,
35.3,45,0,0,1,0,0,192,192,78,412.9323457000137,412.9323457000137,413.4326711999893,413.49949170000036,413.5498048000154,413.5498048000154,413.5498048000154,413.5498048000154,413.5993480999896,413.5993480999896,413.5993480999896,413.5993480999896,413.5993480999896,413.5993480999896,413.5993480999896,413.5993480999896,413.5993480999896,413.5993480999896,num_3,0.6561224000179209,414.28359810000984,414.28359810000984,None,,10,001,2025-12-19_11h06.47.536,2025C_exp1_detect,2022.2.4,59.99811606227213,
39.2,45,0,0,-1,1,0,193,193,295,414.28359810000984,414.28359810000984,414.78383790000225,414.85089490000973,414.9010985000059,414.9010985000059,414.9010985000059,414.9010985000059,414.9509759999928,414.9509759999928,414.9509759999928,414.9509759999928,414.9509759999928,414.9509759999928,414.9509759999928,414.9509759999928,414.9509759999928,414.9509759999928,num_3,0.5515352000074927,415.5350056999887,415.5350056999887,None,,10,001,2025-12-19_11h06.47.536,2025C_exp1_detect,2022.2.4,59.99811606227213,
22.7,45,0,0,-1,0,0,194,194,3,415.5350056999887,415.5350056999887,416.03534500001115,416.10206430000835,416.1523596000043,416.1523596000043,416.1523596000043,416.1523596000043,416.202275299991,416.202275299991,416.202275299991,416.202275299991,416.202275299991,416.202275299991,416.202275299991,416.202275299991,416.202275299991,416.202275299991,num_3,0.6131067000096664,416.8358961000049,416.8358961000049,None,,10,001,2025-12-19_11h06.47.536,2025C_exp1_detect,2022.2.4,59.99811606227213,
