contrast,ori,side,precue,trials.thisRepN,trials.thisTrialN,trials.thisN,trials.thisIndex,fix1.started,fix2.started,precue_2.started,precue_2.stopped,left_grating.started,right_grating.started,noise_left2.started,noise_right2.started,fix1.stopped,fix2.stopped,left_grating.stopped,right_grating.stopped,noise_left2.stopped,noise_right2.stopped,key_resp.started,fix1_2.started,fix2_2.started,key_resp.keys,key_resp.rt,key_resp_2.started,break_text_2.started,key_resp_2.keys,key_resp_2.rt,participant,session,date,expName,psychopyVersion,frameRate,
29.4,315,-1,-1,0,0,0,86,71.71325299999444,71.71325299999444,72.19306309998501,72.25968739998643,72.33059229998617,72.33059229998617,72.33059229998617,72.33059229998617,72.35960979998345,72.35960979998345,72.35960979998345,72.35960979998345,72.35960979998345,72.35960979998345,72.3762679999927,72.3762679999927,72.3762679999927,left,10.113260899990564,82.52013239997905,82.52013239997905,None,,10,001,2025-12-19_11h45.07.930,2025C_exp1_comp,2022.2.4,59.99552433821862,
12.1,45,1,1,0,1,1,54,82.52013239997905,82.52013239997905,83.02069730000221,83.08738379998249,83.13772030000109,83.13772030000109,83.13772030000109,83.13772030000109,83.18741620000219,83.18741620000219,83.18741620000219,83.18741620000219,83.18741620000219,83.18741620000219,83.18741620000219,83.18741620000219,83.18741620000219,left,2.1104357999865897,85.3228593999811,85.3228593999811,None,,10,001,2025-12-19_11h45.07.930,2025C_exp1_comp,2022.2.4,59.99552433821862,
39.2,45,-1,1,0,2,2,43,85.3228593999811,85.3228593999811,85.8232788000023,85.89007589998073,85.94037919997936,85.94037919997936,85.94037919997936,85.94037919997936,85.99003419998917,85.99003419998917,85.99003419998917,85.99003419998917,85.99003419998917,85.99003419998917,85.99003419998917,85.99003419998917,85.99003419998917,right,1.019706799997948,87.04123079997953,87.04123079997953,None,,10,001,2025-12-19_11h45.07.930,2025C_exp1_comp,2022.2.4,59.99552433821862,
29.4,315,-1,1,0,3,3,50,87.04123079997953,87.04123079997953,87.54187319998164,87.6085731999774,87.65891379999812,87.65891379999812,87.65891379999812,87.65891379999812,87.7085711999971,87.7085711999971,87.7085711999971,87.7085711999971,87.7085711999971,87.7085711999971,87.7085711999971,87.7085711999971,87.7085711999971,left,15.397002899990184,103.12365169997793,103.12365169997793,None,,10,001,2025-12-19_11h45.07.930,2025C_exp1_comp,2022.2.4,59.99552433821862,
19.6,45,1,0,0,4,4,20,103.12365169997793,103.12365169997793,103.62425939997775,103.69087160000345,103.74130449999939,103.74130449999939,103.74130449999939,103.74130449999939,103.79103179997765,103.79103179997765,103.79103179997765,103.79103179997765,103.79103179997765,103.79103179997765,103.79103179997765,103.79103179997765,103.79103179997765,right,2.9231459999864455,106.74412649997976,106.74412649997976,None,,10,001,2025-12-19_11h45.07.930,2025C_exp1_comp,2022.2.4,59.99552433821862,
19.6,315,-1,-1,0,5,5,83,106.74412649997976,106.74412649997976,107.24475349998102,107.31145099998685,107.36161229998106,107.36161229998106,107.36161229998106,107.36161229998106,107.41155779999099,107.41155779999099,107.41155779999099,107.41155779999099,107.41155779999099,107.41155779999099,107.41155779999099,107.41155779999099,107.41155779999099,right,0.9179464000044391,108.34571850000066,108.34571850000066,None,,10,001,2025-12-19_11h45.07.930,2025C_exp1_comp,2022.2.4,59.99552433821862,
35.3,45,-1,1,0,6,6,42,108.34571850000066,108.34571850000066,108.84637230000226,108.91298399999505,108.96341189998202,108.96341189998202,108.96341189998202,108.96341189998202,109.01318939999328,109.01318939999328,109.01318939999328,109.01318939999328,109.01318939999328,109.01318939999328,109.01318939999328,109.01318939999328,109.01318939999328,right,0.6937935000169091,109.73072819999652,109.73072819999652,None,,10,001,2025-12-19_11h45.07.930,2025C_exp1_comp,2022.2.4,59.99552433821862,
29.4,45,1,-1,0,7,7,95,109.73072819999652,109.73072819999652,110.23087369999848,110.29779620000045,110.34811679998529,110.34811679998529,110.34811679998529,110.34811679998529,110.39789229998132,110.39789229998132,110.39789229998132,110.39789229998132,110.39789229998132,110.39789229998132,110.39789229998132,110.39789229998132,110.39789229998132,left,0.7968302000081167,111.21540980000282,111.21540980000282,None,,10,001,2025-12-19_11h45.07.930,2025C_exp1_comp,2022.2.4,59.99552433821862,
15.7,45,-1,-1,0,8,8,73,111.21540980000282,111.21540980000282,111.7159308999835,111.78248909997637,111.83292049999,111.83292049999,111.83292049999,111.83292049999,111.88275699998485,111.88275699998485,111.88275699998485,111.88275699998485,111.88275699998485,111.88275699998485,111.88275699998485,111.88275699998485,111.88275699998485,right,0.6716787000186741,112.58358259999659,112.58358259999659,None,,10,001,2025-12-19_11h45.07.930,2025C_exp1_comp,2022.2.4,59.99552433821862,
25.5,315,1,1,0,9,9,67,112.58358259999659,112.58358259999659,113.08401089999825,113.15068739998969,113.2010864999902,113.2010864999902,113.2010864999902,113.2010864999902,113.25075419998029,113.25075419998029,113.25075419998029,113.25075419998029,113.25075419998029,113.25075419998029,113.25075419998029,113.25075419998029,113.25075419998029,left,0.6075840999837965,113.88469469998381,113.88469469998381,None,,10,001,2025-12-19_11h45.07.930,2025C_exp1_comp,2022.2.4,59.99552433821862,
12.1,315,1,1,0,10,10,63,113.88469469998381,113.88469469998381,114.38521409998066,114.45192749999114,114.5023927000002,114.5023927000002,114.5023927000002,114.5023927000002,114.55210689999512,114.55210689999512,114.55210689999512,114.55210689999512,114.55210689999512,114.55210689999512,114.55210689999512,114.55210689999512,114.55210689999512,left,0.6740373000211548,115.2527631999983,115.2527631999983,None,,10,001,2025-12-19_11h45.07.930,2025C_exp1_comp,2022.2.4,59.99552433821862,
42.7,315,1,-1,0,11,11,107,115.2527631999983,115.2527631999983,115.75326369999675,115.81972820000374,115.86997839997639,115.86997839997639,115.86997839997639,115.86997839997639,115.92006939998828,115.92006939998828,115.92006939998828,115.92006939998828,115.92006939998828,115.92006939998828,115.92006939998828,115.92006939998828,115.92006939998828,right,0.6744651999906637,116.62078009999823,116.62078009999823,None,,10,001,2025-12-19_11h45.07.930,2025C_exp1_comp,2022.2.4,59.99552433821862,
19.6,315,-1,1,0,12,12,47,116.62078009999823,116.62078009999823,117.12141469999915,117.18812269999762,117.23844019998796,117.23844019998796,117.23844019998796,117.23844019998796,117.2881183999998,117.2881183999998,117.2881183999998,117.2881183999998,117.2881183999998,117.2881183999998,117.2881183999998,117.2881183999998,117.2881183999998,right,0.6252014999918174,117.93843419998302,117.93843419998302,None,,10,001,2025-12-19_11h45.07.930,2025C_exp1_comp,2022.2.4,59.99552433821862,
12.1,45,-1,1,0,13,13,36,117.93843419998302,117.93843419998302,118.43926799998735,118.50595679998514,118.55629199999385,118.55629199999385,118.55629199999385,118.55629199999385,118.60598189997836,118.60598189997836,118.60598189997836,118.60598189997836,118.60598189997836,118.60598189997836,118.60598189997836,118.60598189997836,118.60598189997836,right,0.6515841000073124,119.28996539997752,119.28996539997752,None,,10,001,2025-12-19_11h45.07.930,2025C_exp1_comp,2022.2.4,59.99552433821862,
22.7,315,-1,-1,0,14,14,84,119.28996539997752,119.28996539997752,119.79068760000519,119.85721859999467,119.9076178999967,119.9076178999967,119.9076178999967,119.9076178999967,119.95726729999296,119.95726729999296,119.95726729999296,119.95726729999296,119.95726729999296,119.95726729999296,119.95726729999296,119.95726729999296,119.95726729999296,right,0.7324369999987539,120.70820359999198,120.70820359999198,None,,10,001,2025-12-19_11h45.07.930,2025C_exp1_comp,2022.2.4,59.99552433821862,
22.7,315,-1,1,0,15,15,48,120.70820359999198,120.70820359999198,121.20888059999561,121.27553590000025,121.32575249997899,121.32575249997899,121.32575249997899,121.32575249997899,121.37553419999313,121.37553419999313,121.37553419999313,121.37553419999313,121.37553419999313,121.37553419999313,121.37553419999313,121.37553419999313,121.37553419999313,right,1.4588922999973875,122.86022189998766,122.86022189998766,None,,10,001,2025-12-19_11h45.07.930,2025C_exp1_comp,2022.2.4,59.99552433821862,
19.6,45,-1,-1,0,16,16,74,122.86022189998766,122.86022189998766,123.3608988999913,123.4275881999929,123.47786759998417,123.47786759998417,123.47786759998417,123.47786759998417,123.52768719999585,123.52768719999585,123.52768719999585,123.52768719999585,123.52768719999585,123.52768719999585,123.52768719999585,123.52768719999585,123.52768719999585,right,0.8591531999991275,124.41191219998291,124.41191219998291,None,,10,001,2025-12-19_11h45.07.930,2025C_exp1_comp,2022.2.4,59.99552433821862,
15.7,45,-1,1,0,17,17,37,124.41191219998291,124.41191219998291,124.91240629999083,124.97912079998059,125.02933950000443,125.02933950000443,125.02933950000443,125.02933950000443,125.07921909997822,125.07921909997822,125.07921909997822,125.07921909997822,125.07921909997822,125.07921909997822,125.07921909997822,125.07921909997822,125.07921909997822,right,0.5143962999864016,125.61307069999748,125.61307069999748,None,,10,001,2025-12-19_11h45.07.930,2025C_exp1_comp,2022.2.4,59.99552433821862,
35.3,315,-1,1,0,18,18,51,125.61307069999748,125.61307069999748,126.11368909999146,126.18037809999078,126.23057269997662,126.23057269997662,126.23057269997662,126.23057269997662,126.28011349998997,126.28011349998997,126.28011349998997,126.28011349998997,126.28011349998997,126.28011349998997,126.28011349998997,126.28011349998997,126.28011349998997,right,0.6333187999844085,126.93108189999475,126.93108189999475,None,,10,001,2025-12-19_11h45.07.930,2025C_exp1_comp,2022.2.4,59.99552433821862,
19.6,315,1,0,0,19,19,29,126.93108189999475,126.93108189999475,127.4315999999817,127.4983060999948,127.54860469998675,127.54860469998675,127.54860469998675,127.54860469998675,127.5982771999843,127.5982771999843,127.5982771999843,127.5982771999843,127.5982771999843,127.5982771999843,127.5982771999843,127.5982771999843,127.5982771999843,left,0.5245242999808397,128.1489261999959,128.1489261999959,None,,10,001,2025-12-19_11h45.07.930,2025C_exp1_comp,2022.2.4,59.99552433821862,
39.2,45,-1,0,0,20,20,7,128.1489261999959,128.1489261999959,128.6496247999894,128.71617519998108,128.76664629997686,128.76664629997686,128.76664629997686,128.76664629997686,128.81632959999843,128.81632959999843,128.81632959999843,128.81632959999843,128.81632959999843,128.81632959999843,128.81632959999843,128.81632959999843,128.81632959999843,left,0.6582418000034522,129.50028089998523,129.50028089998523,None,,10,001,2025-12-19_11h45.07.930,2025C_exp1_comp,2022.2.4,59.99552433821862,
22.7,45,1,-1,0,21,21,93,129.50028089998523,129.50028089998523,130.0006754999922,130.0675220999983,130.11779570000363,130.11779570000363,130.11779570000363,130.11779570000363,130.16754510000465,130.16754510000465,130.16754510000465,130.16754510000465,130.16754510000465,130.16754510000465,130.16754510000465,130.16754510000465,130.16754510000465,left,0.9148535999993328,131.10191219998524,131.10191219998524,None,,10,001,2025-12-19_11h45.07.930,2025C_exp1_comp,2022.2.4,59.99552433821862,
25.5,315,-1,-1,0,22,22,85,131.10191219998524,131.10191219998524,131.6026203999936,131.6693024999986,131.71963259999757,131.71963259999757,131.71963259999757,131.71963259999757,131.76925579999806,131.76925579999806,131.76925579999806,131.76925579999806,131.76925579999806,131.76925579999806,131.76925579999806,131.76925579999806,131.76925579999806,left,1.2644990000117105,133.0536768999882,133.0536768999882,None,,10,001,2025-12-19_11h45.07.930,2025C_exp1_comp,2022.2.4,59.99552433821862,
42.7,315,-1,0,0,23,23,17,133.0536768999882,133.0536768999882,133.55405279999832,133.6208044999803,133.67104039998958,133.67104039998958,133.67104039998958,133.67104039998958,133.7208769999852,133.7208769999852,133.7208769999852,133.7208769999852,133.7208769999852,133.7208769999852,133.7208769999852,133.7208769999852,133.7208769999852,left,0.8409273000143003,134.58860200000345,134.58860200000345,None,,10,001,2025-12-19_11h45.07.930,2025C_exp1_comp,2022.2.4,59.99552433821862,
15.7,45,1,0,0,24,24,19,134.58860200000345,134.58860200000345,135.08923439998762,135.15593419998186,135.20626519998768,135.20626519998768,135.20626519998768,135.20626519998768,135.2559366999776,135.2559366999776,135.2559366999776,135.2559366999776,135.2559366999776,135.2559366999776,135.2559366999776,135.2559366999776,135.2559366999776,left,0.5616597000043839,135.84001419998822,135.84001419998822,None,,10,001,2025-12-19_11h45.07.930,2025C_exp1_comp,2022.2.4,59.99552433821862,
39.2,315,-1,-1,0,25,25,88,135.84001419998822,135.84001419998822,136.34050649998244,136.40721499998472,136.45725179999135,136.45725179999135,136.45725179999135,136.45725179999135,136.5070556999999,136.5070556999999,136.5070556999999,136.5070556999999,136.5070556999999,136.5070556999999,136.5070556999999,136.5070556999999,136.5070556999999,left,0.8784950000117533,137.40820360000362,137.40820360000362,None,,10,001,2025-12-19_11h45.07.930,2025C_exp1_comp,2022.2.4,59.99552433821862,
29.4,45,1,0,0,26,26,23,137.40820360000362,137.40820360000362,137.9086615999986,137.97545859997626,138.02579049998894,138.02579049998894,138.02579049998894,138.02579049998894,138.0754696999793,138.0754696999793,138.0754696999793,138.0754696999793,138.0754696999793,138.0754696999793,138.0754696999793,138.0754696999793,138.0754696999793,left,0.9672925000195391,139.06000979998498,139.06000979998498,None,,10,001,2025-12-19_11h45.07.930,2025C_exp1_comp,2022.2.4,59.99552433821862,
12.1,315,-1,1,0,27,27,45,139.06000979998498,139.06000979998498,139.56054669999867,139.6273447999847,139.67761220000102,139.67761220000102,139.67761220000102,139.67761220000102,139.72731909999857,139.72731909999857,139.72731909999857,139.72731909999857,139.72731909999857,139.72731909999857,139.72731909999857,139.72731909999857,139.72731909999857,right,0.5862173000059556,140.34461810000357,140.34461810000357,None,,10,001,2025-12-19_11h45.07.930,2025C_exp1_comp,2022.2.4,59.99552433821862,
29.4,315,1,0,0,28,28,32,140.34461810000357,140.34461810000357,140.84497989999363,140.91169349997654,140.96216870000353,140.96216870000353,140.96216870000353,140.96216870000353,141.01185749997967,141.01185749997967,141.01185749997967,141.01185749997967,141.01185749997967,141.01185749997967,141.01185749997967,141.01185749997967,141.01185749997967,left,0.5184406000189483,141.56221869998262,141.56221869998262,None,,10,001,2025-12-19_11h45.07.930,2025C_exp1_comp,2022.2.4,59.99552433821862,
15.7,315,-1,1,0,29,29,46,141.56221869998262,141.56221869998262,142.06287959998008,142.12956059997668,142.17981149998377,142.17981149998377,142.17981149998377,142.17981149998377,142.22968899999978,142.22968899999978,142.22968899999978,142.22968899999978,142.22968899999978,142.22968899999978,142.22968899999978,142.22968899999978,142.22968899999978,right,0.6205522999807727,142.88010839998606,142.88010839998606,None,,10,001,2025-12-19_11h45.07.930,2025C_exp1_comp,2022.2.4,59.99552433821862,
25.5,45,-1,0,0,30,30,4,142.88010839998606,142.88010839998606,143.3806207999878,143.44754639998428,143.49786709999898,143.49786709999898,143.49786709999898,143.49786709999898,143.54770769999595,143.54770769999595,143.54770769999595,143.54770769999595,143.54770769999595,143.54770769999595,143.54770769999595,143.54770769999595,143.54770769999595,right,0.6230530999891926,144.19816969998647,144.19816969998647,None,,10,001,2025-12-19_11h45.07.930,2025C_exp1_comp,2022.2.4,59.99552433821862,
15.7,315,1,0,0,31,31,28,144.19816969998647,144.19816969998647,144.69904059998225,144.76573019998614,144.81565999999293,144.81565999999293,144.81565999999293,144.81565999999293,144.86563059999025,144.86563059999025,144.86563059999025,144.86563059999025,144.86563059999025,144.86563059999025,144.86563059999025,144.86563059999025,144.86563059999025,left,0.4570733000000473,145.34944979997817,145.34944979997817,None,,10,001,2025-12-19_11h45.07.930,2025C_exp1_comp,2022.2.4,59.99552433821862,
39.2,315,-1,1,0,32,32,52,145.34944979997817,145.34944979997817,145.85009069999796,145.91679899999872,145.96708189998753,145.96708189998753,145.96708189998753,145.96708189998753,146.01687029999448,146.01687029999448,146.01687029999448,146.01687029999448,146.01687029999448,146.01687029999448,146.01687029999448,146.01687029999448,146.01687029999448,left,0.8976511000073515,146.93408959999215,146.93408959999215,None,,10,001,2025-12-19_11h45.07.930,2025C_exp1_comp,2022.2.4,59.99552433821862,
42.7,45,-1,1,0,33,33,44,146.93408959999215,146.93408959999215,147.43487639998784,147.50161249999655,147.55192139997962,147.55192139997962,147.55192139997962,147.55192139997962,147.60171779998927,147.60171779998927,147.60171779998927,147.60171779998927,147.60171779998927,147.60171779998927,147.60171779998927,147.60171779998927,147.60171779998927,right,0.711988500028383,148.33563980000326,148.33563980000326,None,,10,001,2025-12-19_11h45.07.930,2025C_exp1_comp,2022.2.4,59.99552433821862,
42.7,45,1,0,0,34,34,26,148.33563980000326,148.33563980000326,148.83629340000334,148.90278139998554,148.95329579999088,148.95329579999088,148.95329579999088,148.95329579999088,149.00287919997936,149.00287919997936,149.00287919997936,149.00287919997936,149.00287919997936,149.00287919997936,149.00287919997936,149.00287919997936,149.00287919997936,right,0.9040156999835745,149.93723670000327,149.93723670000327,None,,10,001,2025-12-19_11h45.07.930,2025C_exp1_comp,2022.2.4,59.99552433821862,
12.1,45,-1,0,0,35,35,0,149.93723670000327,149.93723670000327,150.43787549997796,150.50460389998625,150.554911299987,150.554911299987,150.554911299987,150.554911299987,150.60469340000418,150.60469340000418,150.60469340000418,150.60469340000418,150.60469340000418,150.60469340000418,150.60469340000418,150.60469340000418,150.60469340000418,right,0.6544646999973338,151.28889569998137,151.28889569998137,None,,10,001,2025-12-19_11h45.07.930,2025C_exp1_comp,2022.2.4,59.99552433821862,
42.7,45,-1,0,0,36,36,8,151.28889569998137,151.28889569998137,151.78924250000273,151.85598510000273,151.9062791999895,151.9062791999895,151.9062791999895,151.9062791999895,151.9559931999829,151.9559931999829,151.9559931999829,151.9559931999829,151.9559931999829,151.9559931999829,151.9559931999829,151.9559931999829,151.9559931999829,left,0.6378472000069451,152.62342869999702,152.62342869999702,None,,10,001,2025-12-19_11h45.07.930,2025C_exp1_comp,2022.2.4,59.99552433821862,
19.6,45,1,-1,0,37,37,92,152.62342869999702,152.62342869999702,153.12395169999218,153.19037440000102,153.2408948999946,153.2408948999946,153.2408948999946,153.2408948999946,153.29073059998336,153.29073059998336,153.29073059998336,153.29073059998336,153.29073059998336,153.29073059998336,153.29073059998336,153.29073059998336,153.29073059998336,left,0.7601895999978296,154.07495650000055,154.07495650000055,None,,10,001,2025-12-19_11h45.07.930,2025C_exp1_comp,2022.2.4,59.99552433821862,
39.2,45,1,-1,0,38,38,97,154.07495650000055,154.07495650000055,154.57529149999027,154.64209809998283,154.69238069999847,154.69238069999847,154.69238069999847,154.69238069999847,154.74219799999264,154.74219799999264,154.74219799999264,154.74219799999264,154.74219799999264,154.74219799999264,154.74219799999264,154.74219799999264,154.74219799999264,left,0.6594424999784678,155.42623989999993,155.42623989999993,None,,10,001,2025-12-19_11h45.07.930,2025C_exp1_comp,2022.2.4,59.99552433821862,
35.3,315,-1,-1,0,39,39,87,155.42623989999993,155.42623989999993,155.92675189999864,155.9935020999983,156.0437372000015,156.0437372000015,156.0437372000015,156.0437372000015,156.09358269997756,156.09358269997756,156.09358269997756,156.09358269997756,156.09358269997756,156.09358269997756,156.09358269997756,156.09358269997756,156.09358269997756,left,0.5725264999782667,156.69419199999538,156.69419199999538,None,,10,001,2025-12-19_11h45.07.930,2025C_exp1_comp,2022.2.4,59.99552433821862,
22.7,315,-1,0,0,40,40,12,156.69419199999538,156.69419199999538,157.19469119998394,157.26133909999044,157.31171229999745,157.31171229999745,157.31171229999745,157.31171229999745,157.36122579997755,157.36122579997755,157.36122579997755,157.36122579997755,157.36122579997755,157.36122579997755,157.36122579997755,157.36122579997755,157.36122579997755,right,1.4573855000198819,158.84630849998211,158.84630849998211,None,,10,001,2025-12-19_11h45.07.930,2025C_exp1_comp,2022.2.4,59.99552433821862,
42.7,45,1,1,0,41,41,62,158.84630849998211,158.84630849998211,159.34670120000374,159.4132712999999,159.46350839998922,159.46350839998922,159.46350839998922,159.46350839998922,159.51372679998167,159.51372679998167,159.51372679998167,159.51372679998167,159.51372679998167,159.51372679998167,159.51372679998167,159.51372679998167,159.51372679998167,right,0.5611063000105787,160.09758790000342,160.09758790000342,None,,10,001,2025-12-19_11h45.07.930,2025C_exp1_comp,2022.2.4,59.99552433821862,
12.1,315,-1,0,0,42,42,9,160.09758790000342,160.09758790000342,160.59786849998636,160.6644607000053,160.71502189998864,160.71502189998864,160.71502189998864,160.71502189998864,160.76490939999348,160.76490939999348,160.76490939999348,160.76490939999348,160.76490939999348,160.76490939999348,160.76490939999348,160.76490939999348,160.76490939999348,right,0.6450437000021338,161.43223559999024,161.43223559999024,None,,10,001,2025-12-19_11h45.07.930,2025C_exp1_comp,2022.2.4,59.99552433821862,
42.7,315,1,1,0,43,43,71,161.43223559999024,161.43223559999024,161.93269990000408,161.9993210999819,162.04975919998833,162.04975919998833,162.04975919998833,162.04975919998833,162.09955990000162,162.09955990000162,162.09955990000162,162.09955990000162,162.09955990000162,162.09955990000162,162.09955990000162,162.09955990000162,162.09955990000162,right,0.8856823999958578,163.01681129998178,163.01681129998178,None,,10,001,2025-12-19_11h45.07.930,2025C_exp1_comp,2022.2.4,59.99552433821862,
35.3,315,1,-1,0,44,44,105,163.01681129998178,163.01681129998178,163.51792099999147,163.5840831999958,163.634387099999,163.634387099999,163.634387099999,163.634387099999,163.68413569999393,163.68413569999393,163.68413569999393,163.68413569999393,163.68413569999393,163.68413569999393,163.68413569999393,163.68413569999393,163.68413569999393,left,0.8384788999974262,164.5521250999882,164.5521250999882,None,,10,001,2025-12-19_11h45.07.930,2025C_exp1_comp,2022.2.4,59.99552433821862,
12.1,315,-1,-1,0,45,45,81,164.5521250999882,164.5521250999882,165.0526334999886,165.11911749999854,165.1695950999856,165.1695950999856,165.1695950999856,165.1695950999856,165.2191821000015,165.2191821000015,165.2191821000015,165.2191821000015,165.2191821000015,165.2191821000015,165.2191821000015,165.2191821000015,165.2191821000015,right,0.61433740000939,165.8531529000029,165.8531529000029,None,,10,001,2025-12-19_11h45.07.930,2025C_exp1_comp,2022.2.4,59.99552433821862,
22.7,315,1,1,0,46,46,66,165.8531529000029,165.8531529000029,166.3538581999892,166.4204198999796,166.47077329998137,166.47077329998137,166.47077329998137,166.47077329998137,166.5206440000038,166.5206440000038,166.5206440000038,166.5206440000038,166.5206440000038,166.5206440000038,166.5206440000038,166.5206440000038,166.5206440000038,left,0.7450510000053328,167.28798029999598,167.28798029999598,None,,10,001,2025-12-19_11h45.07.930,2025C_exp1_comp,2022.2.4,59.99552433821862,
29.4,315,1,1,0,47,47,68,167.28798029999598,167.28798029999598,167.7886368999898,167.85542109998642,167.905750099977,167.905750099977,167.905750099977,167.905750099977,167.95542719998048,167.95542719998048,167.95542719998048,167.95542719998048,167.95542719998048,167.95542719998048,167.95542719998048,167.95542719998048,167.95542719998048,left,1.1500907999870833,169.12327159999404,169.12327159999404,None,,10,001,2025-12-19_11h45.07.930,2025C_exp1_comp,2022.2.4,59.99552433821862,
29.4,315,1,-1,0,48,48,104,169.12327159999404,169.12327159999404,169.62376369998674,169.69051019998733,169.74057739999262,169.74057739999262,169.74057739999262,169.74057739999262,169.79030549997697,169.79030549997697,169.79030549997697,169.79030549997697,169.79030549997697,169.79030549997697,169.79030549997697,169.79030549997697,169.79030549997697,left,0.8593419000098947,170.67445789999329,170.67445789999329,None,,10,001,2025-12-19_11h45.07.930,2025C_exp1_comp,2022.2.4,59.99552433821862,
25.5,45,-1,1,0,49,49,40,170.67445789999329,170.67445789999329,171.17531109999982,171.24209749998408,171.29238259998965,171.29238259998965,171.29238259998965,171.29238259998965,171.34198409999954,171.34198409999954,171.34198409999954,171.34198409999954,171.34198409999954,171.34198409999954,171.34198409999954,171.34198409999954,171.34198409999954,right,0.6760624999878928,172.0424825999944,172.0424825999944,None,,10,001,2025-12-19_11h45.07.930,2025C_exp1_comp,2022.2.4,59.99552433821862,
42.7,315,-1,1,0,50,50,53,172.0424825999944,172.0424825999944,172.54311450000387,172.60976910000318,172.66000249999342,172.66000249999342,172.66000249999342,172.66000249999342,172.70979559997795,172.70979559997795,172.70979559997795,172.70979559997795,172.70979559997795,172.70979559997795,172.70979559997795,172.70979559997795,172.70979559997795,right,3.156242700002622,175.89651579997735,175.89651579997735,None,,10,001,2025-12-19_11h45.07.930,2025C_exp1_comp,2022.2.4,59.99552433821862,
35.3,45,1,0,0,51,51,24,175.89651579997735,175.89651579997735,176.3968452999834,176.46375539997825,176.51387919997796,176.51387919997796,176.51387919997796,176.51387919997796,176.56362919998355,176.56362919998355,176.56362919998355,176.56362919998355,176.56362919998355,176.56362919998355,176.56362919998355,176.56362919998355,176.56362919998355,right,0.6856980999873485,177.2810595999763,177.2810595999763,None,,10,001,2025-12-19_11h45.07.930,2025C_exp1_comp,2022.2.4,59.99552433821862,
35.3,45,1,1,0,52,52,60,177.2810595999763,177.2810595999763,177.78193319999264,177.8484903999779,177.8988576999982,177.8988576999982,177.8988576999982,177.8988576999982,177.94862969999667,177.94862969999667,177.94862969999667,177.94862969999667,177.94862969999667,177.94862969999667,177.94862969999667,177.94862969999667,177.94862969999667,right,0.45311520001268946,178.43254959999467,178.43254959999467,None,,10,001,2025-12-19_11h45.07.930,2025C_exp1_comp,2022.2.4,59.99552433821862,
39.2,315,1,0,0,53,53,34,178.43254959999467,178.43254959999467,178.93311289997655,178.9996400999953,179.0501289999811,179.0501289999811,179.0501289999811,179.0501289999811,179.09989829998813,179.09989829998813,179.09989829998813,179.09989829998813,179.09989829998813,179.09989829998813,179.09989829998813,179.09989829998813,179.09989829998813,right,0.5495060000102967,179.66688479998265,179.66688479998265,None,,10,001,2025-12-19_11h45.07.930,2025C_exp1_comp,2022.2.4,59.99552433821862,
22.7,45,1,0,0,54,54,21,179.66688479998265,179.66688479998265,180.1674675999966,180.23435049998807,180.2845898999949,180.2845898999949,180.2845898999949,180.2845898999949,180.33443369998713,180.33443369998713,180.33443369998713,180.33443369998713,180.33443369998713,180.33443369998713,180.33443369998713,180.33443369998713,180.33443369998713,left,0.459813400026178,180.81809369998518,180.81809369998518,None,,10,001,2025-12-19_11h45.07.930,2025C_exp1_comp,2022.2.4,59.99552433821862,
25.5,315,1,0,0,55,55,31,180.81809369998518,180.81809369998518,181.31865599998855,181.38547079998534,181.43573199998355,181.43573199998355,181.43573199998355,181.43573199998355,181.48562329998822,181.48562329998822,181.48562329998822,181.48562329998822,181.48562329998822,181.48562329998822,181.48562329998822,181.48562329998822,181.48562329998822,left,0.564036900002975,182.06950899999356,182.06950899999356,None,,10,001,2025-12-19_11h45.07.930,2025C_exp1_comp,2022.2.4,59.99552433821862,
25.5,315,-1,1,0,56,56,49,182.06950899999356,182.06950899999356,182.57008179998957,182.63683760000276,182.68715699997847,182.68715699997847,182.68715699997847,182.68715699997847,182.73682319998625,182.73682319998625,182.73682319998625,182.73682319998625,182.73682319998625,182.73682319998625,182.73682319998625,182.73682319998625,182.73682319998625,right,0.47364790001302026,183.23714469998959,183.23714469998959,None,,10,001,2025-12-19_11h45.07.930,2025C_exp1_comp,2022.2.4,59.99552433821862,
12.1,315,1,-1,0,57,57,99,183.23714469998959,183.23714469998959,183.7375482999778,183.8045671999862,183.85466119999182,183.85466119999182,183.85466119999182,183.85466119999182,183.90465640000184,183.90465640000184,183.90465640000184,183.90465640000184,183.90465640000184,183.90465640000184,183.90465640000184,183.90465640000184,183.90465640000184,left,0.4648620999942068,184.38835429999745,184.38835429999745,None,,10,001,2025-12-19_11h45.07.930,2025C_exp1_comp,2022.2.4,59.99552433821862,
12.1,45,1,-1,0,58,58,90,184.38835429999745,184.38835429999745,184.88901529999566,184.9556048999948,185.00602929998422,185.00602929998422,185.00602929998422,185.00602929998422,185.0558383000025,185.0558383000025,185.0558383000025,185.0558383000025,185.0558383000025,185.0558383000025,185.0558383000025,185.0558383000025,185.0558383000025,left,0.4825962000177242,185.55629700000281,185.55629700000281,None,,10,001,2025-12-19_11h45.07.930,2025C_exp1_comp,2022.2.4,59.99552433821862,
39.2,45,1,1,0,59,59,61,185.55629700000281,185.55629700000281,186.0568018000049,186.12350499999593,186.17384209999,186.17384209999,186.17384209999,186.17384209999,186.2236207999813,186.2236207999813,186.2236207999813,186.2236207999813,186.2236207999813,186.2236207999813,186.2236207999813,186.2236207999813,186.2236207999813,right,0.6180728999897838,186.87430049999966,186.87430049999966,None,,10,001,2025-12-19_11h45.07.930,2025C_exp1_comp,2022.2.4,59.99552433821862,
29.4,45,1,1,0,60,60,59,186.87430049999966,186.87430049999966,187.37466619999032,187.4415130999987,187.49174850000418,187.49174850000418,187.49174850000418,187.49174850000418,187.54149429997778,187.54149429997778,187.54149429997778,187.54149429997778,187.54149429997778,187.54149429997778,187.54149429997778,187.54149429997778,187.54149429997778,right,0.4601324000104796,188.02529249998042,188.02529249998042,None,,10,001,2025-12-19_11h45.07.930,2025C_exp1_comp,2022.2.4,59.99552433821862,
25.5,45,1,-1,0,61,61,94,188.02529249998042,188.02529249998042,188.52596209998592,188.59268129998236,188.64298859998235,188.64298859998235,188.64298859998235,188.64298859998235,188.69264609998208,188.69264609998208,188.69264609998208,188.69264609998208,188.69264609998208,188.69264609998208,188.69264609998208,188.69264609998208,188.69264609998208,left,0.6460891999886371,189.36010499999975,189.36010499999975,None,,10,001,2025-12-19_11h45.07.930,2025C_exp1_comp,2022.2.4,59.99552433821862,
22.7,45,-1,1,0,62,62,39,189.36010499999975,189.36010499999975,189.8607172999764,189.92739599998458,189.9778022999817,189.9778022999817,189.9778022999817,189.9778022999817,190.02760979998857,190.02760979998857,190.02760979998857,190.02760979998857,190.02760979998857,190.02760979998857,190.02760979998857,190.02760979998857,190.02760979998857,right,0.5498254999984056,190.59443840000313,190.59443840000313,None,,10,001,2025-12-19_11h45.07.930,2025C_exp1_comp,2022.2.4,59.99552433821862,
19.6,45,-1,0,0,63,63,2,190.59443840000313,190.59443840000313,191.09513800000423,191.16187690000515,191.2120678999927,191.2120678999927,191.2120678999927,191.2120678999927,191.261768700002,191.261768700002,191.261768700002,191.261768700002,191.261768700002,191.261768700002,191.261768700002,191.261768700002,191.261768700002,right,0.6684596999839414,191.96261339998455,191.96261339998455,None,,10,001,2025-12-19_11h45.07.930,2025C_exp1_comp,2022.2.4,59.99552433821862,
15.7,315,1,1,0,64,64,64,191.96261339998455,191.96261339998455,192.46333929998218,192.52960959999473,192.58003809998627,192.58003809998627,192.58003809998627,192.58003809998627,192.62979259999702,192.62979259999702,192.62979259999702,192.62979259999702,192.62979259999702,192.62979259999702,192.62979259999702,192.62979259999702,192.62979259999702,left,0.6995206999999937,193.3471105999779,193.3471105999779,None,,10,001,2025-12-19_11h45.07.930,2025C_exp1_comp,2022.2.4,59.99552433821862,
15.7,45,1,-1,0,65,65,91,193.3471105999779,193.3471105999779,193.8478719999839,193.9145639000053,193.96492460000445,193.96492460000445,193.96492460000445,193.96492460000445,194.01478420000058,194.01478420000058,194.01478420000058,194.01478420000058,194.01478420000058,194.01478420000058,194.01478420000058,194.01478420000058,194.01478420000058,left,0.531419700011611,194.56514449999668,194.56514449999668,None,,10,001,2025-12-19_11h45.07.930,2025C_exp1_comp,2022.2.4,59.99552433821862,
35.3,45,1,-1,0,66,66,96,194.56514449999668,194.56514449999668,195.06574039999396,195.13244909999776,195.18285149999429,195.18285149999429,195.18285149999429,195.18285149999429,195.2325625999947,195.2325625999947,195.2325625999947,195.2325625999947,195.2325625999947,195.2325625999947,195.2325625999947,195.2325625999947,195.2325625999947,left,0.6410300999996252,195.89999740000349,195.89999740000349,None,,10,001,2025-12-19_11h45.07.930,2025C_exp1_comp,2022.2.4,59.99552433821862,
22.7,45,-1,0,0,67,67,3,195.89999740000349,195.89999740000349,196.4004750000022,196.4669352999772,196.51731219998328,196.51731219998328,196.51731219998328,196.51731219998328,196.56698689999757,196.56698689999757,196.56698689999757,196.56698689999757,196.56698689999757,196.56698689999757,196.56698689999757,196.56698689999757,196.56698689999757,right,0.555617500009248,197.15111619999516,197.15111619999516,None,,10,001,2025-12-19_11h45.07.930,2025C_exp1_comp,2022.2.4,59.99552433821862,
19.6,45,1,1,0,68,68,56,197.15111619999516,197.15111619999516,197.65166370000225,197.718343799992,197.76877819999936,197.76877819999936,197.76877819999936,197.76877819999936,197.8182858999935,197.8182858999935,197.8182858999935,197.8182858999935,197.8182858999935,197.8182858999935,197.8182858999935,197.8182858999935,197.8182858999935,left,0.5923152999894228,198.43585300000268,198.43585300000268,None,,10,001,2025-12-19_11h45.07.930,2025C_exp1_comp,2022.2.4,59.99552433821862,
15.7,45,1,1,0,69,69,55,198.43585300000268,198.43585300000268,198.93635809997795,199.00294989999384,199.05335909998394,199.05335909998394,199.05335909998394,199.05335909998394,199.1031062999973,199.1031062999973,199.1031062999973,199.1031062999973,199.1031062999973,199.1031062999973,199.1031062999973,199.1031062999973,199.1031062999973,left,0.6824857000028715,199.80385739999474,199.80385739999474,None,,10,001,2025-12-19_11h45.07.930,2025C_exp1_comp,2022.2.4,59.99552433821862,
42.7,45,1,-1,0,70,70,98,199.80385739999474,199.80385739999474,200.3043795999838,200.37109770000097,200.42138980000163,200.42138980000163,200.42138980000163,200.42138980000163,200.47117649999564,200.47117649999564,200.47117649999564,200.47117649999564,200.47117649999564,200.47117649999564,200.47117649999564,200.47117649999564,200.47117649999564,left,1.1864065999980085,201.68896079997648,201.68896079997648,None,,10,001,2025-12-19_11h45.07.930,2025C_exp1_comp,2022.2.4,59.99552433821862,
42.7,315,-1,-1,0,71,71,89,201.68896079997648,201.68896079997648,202.18973549999646,202.25630609999644,202.30646409999463,202.30646409999463,202.30646409999463,202.30646409999463,202.35642349999398,202.35642349999398,202.35642349999398,202.35642349999398,202.35642349999398,202.35642349999398,202.35642349999398,202.35642349999398,202.35642349999398,left,0.5499670999997761,202.92356440000003,202.92356440000003,None,,10,001,2025-12-19_11h45.07.930,2025C_exp1_comp,2022.2.4,59.99552433821862,
19.6,315,1,1,0,72,72,65,202.92356440000003,202.92356440000003,203.4241647000017,203.49077780000516,203.54118410000228,203.54118410000228,203.54118410000228,203.54118410000228,203.59084459999576,203.59084459999576,203.59084459999576,203.59084459999576,203.59084459999576,203.59084459999576,203.59084459999576,203.59084459999576,203.59084459999576,left,0.755213399999775,204.37496799998917,204.37496799998917,None,,10,001,2025-12-19_11h45.07.930,2025C_exp1_comp,2022.2.4,59.99552433821862,
22.7,45,-1,-1,0,73,73,75,204.37496799998917,204.37496799998917,204.8755970999773,204.94231779998518,204.99262779997662,204.99262779997662,204.99262779997662,204.99262779997662,205.0424548999872,205.0424548999872,205.0424548999872,205.0424548999872,205.0424548999872,205.0424548999872,205.0424548999872,205.0424548999872,205.0424548999872,right,0.560323600017,205.62645859998884,205.62645859998884,None,,10,001,2025-12-19_11h45.07.930,2025C_exp1_comp,2022.2.4,59.99552433821862,
15.7,45,-1,0,0,74,74,1,205.62645859998884,205.62645859998884,206.12688599998364,206.19360169998254,206.24400539998896,206.24400539998896,206.24400539998896,206.24400539998896,206.29381750000175,206.29381750000175,206.29381750000175,206.29381750000175,206.29381750000175,206.29381750000175,206.29381750000175,206.29381750000175,206.29381750000175,right,0.6047881999984384,206.92767679999815,206.92767679999815,None,,10,001,2025-12-19_11h45.07.930,2025C_exp1_comp,2022.2.4,59.99552433821862,
39.2,45,-1,-1,0,75,75,79,206.92767679999815,206.92767679999815,207.42817949998425,207.49490069999592,207.54509400000097,207.54509400000097,207.54509400000097,207.54509400000097,207.59501429999364,207.59501429999364,207.59501429999364,207.59501429999364,207.59501429999364,207.59501429999364,207.59501429999364,207.59501429999364,207.59501429999364,right,0.5989488000050187,208.2121048999834,208.2121048999834,None,,10,001,2025-12-19_11h45.07.930,2025C_exp1_comp,2022.2.4,59.99552433821862,
29.4,45,-1,0,0,76,76,5,208.2121048999834,208.2121048999834,208.7127490999992,208.7794864999887,208.82978839997668,208.82978839997668,208.82978839997668,208.82978839997668,208.87959269998828,208.87959269998828,208.87959269998828,208.87959269998828,208.87959269998828,208.87959269998828,208.87959269998828,208.87959269998828,208.87959269998828,right,0.5463519000040833,209.4466893999779,209.4466893999779,None,,10,001,2025-12-19_11h45.07.930,2025C_exp1_comp,2022.2.4,59.99552433821862,
25.5,45,1,1,0,77,77,58,209.4466893999779,209.4466893999779,209.94733840000117,210.01406809999025,210.0643125999777,210.0643125999777,210.0643125999777,210.0643125999777,210.11413869998069,210.11413869998069,210.11413869998069,210.11413869998069,210.11413869998069,210.11413869998069,210.11413869998069,210.11413869998069,210.11413869998069,right,0.6236917999922298,210.7648738999851,210.7648738999851,None,,10,001,2025-12-19_11h45.07.930,2025C_exp1_comp,2022.2.4,59.99552433821862,
35.3,315,1,0,0,78,78,33,210.7648738999851,210.7648738999851,211.2654801000026,211.33187140000518,211.3820521000016,211.3820521000016,211.3820521000016,211.3820521000016,211.43213209998794,211.43213209998794,211.43213209998794,211.43213209998794,211.43213209998794,211.43213209998794,211.43213209998794,211.43213209998794,211.43213209998794,right,0.722055399994133,212.18293379998067,212.18293379998067,None,,10,001,2025-12-19_11h45.07.930,2025C_exp1_comp,2022.2.4,59.99552433821862,
12.1,45,-1,-1,0,79,79,72,212.18293379998067,212.18293379998067,212.68328050000127,212.75001469999552,212.80046259998926,212.80046259998926,212.80046259998926,212.80046259998926,212.85010389998206,212.85010389998206,212.85010389998206,212.85010389998206,212.85010389998206,212.85010389998206,212.85010389998206,212.85010389998206,212.85010389998206,right,0.4805593999917619,213.35079349999432,213.35079349999432,None,,10,001,2025-12-19_11h45.07.930,2025C_exp1_comp,2022.2.4,59.99552433821862,
35.3,315,-1,0,0,80,80,15,213.35079349999432,213.35079349999432,213.85124699998414,213.91788599998108,213.96822379998048,213.96822379998048,213.96822379998048,213.96822379998048,214.01805089999107,214.01805089999107,214.01805089999107,214.01805089999107,214.01805089999107,214.01805089999107,214.01805089999107,214.01805089999107,214.01805089999107,right,1.4953811999876052,215.5359960999922,215.5359960999922,None,,10,001,2025-12-19_11h45.07.930,2025C_exp1_comp,2022.2.4,59.99552433821862,
25.5,315,-1,0,0,81,81,13,215.5359960999922,215.5359960999922,216.0367988999933,216.10349379997933,216.1535141999775,216.1535141999775,216.1535141999775,216.1535141999775,216.20348529997864,216.20348529997864,216.20348529997864,216.20348529997864,216.20348529997864,216.20348529997864,216.20348529997864,216.20348529997864,216.20348529997864,right,0.8300249000021722,217.05430079999496,217.05430079999496,None,,10,001,2025-12-19_11h45.07.930,2025C_exp1_comp,2022.2.4,59.99552433821862,
39.2,45,1,0,0,82,82,25,217.05430079999496,217.05430079999496,217.554953999992,217.6215208999929,217.6720260999864,217.6720260999864,217.6720260999864,217.6720260999864,217.7218004000024,217.7218004000024,217.7218004000024,217.7218004000024,217.7218004000024,217.7218004000024,217.7218004000024,217.7218004000024,217.7218004000024,left,0.41620029998011887,218.1556054999819,218.1556054999819,None,,10,001,2025-12-19_11h45.07.930,2025C_exp1_comp,2022.2.4,59.99552433821862,
29.4,45,-1,1,0,83,83,41,218.1556054999819,218.1556054999819,218.65598449998652,218.72286209999584,218.7731492999883,218.7731492999883,218.7731492999883,218.7731492999883,218.8228681999899,218.8228681999899,218.8228681999899,218.8228681999899,218.8228681999899,218.8228681999899,218.8228681999899,218.8228681999899,218.8228681999899,right,0.5391990999924019,219.3901023999788,219.3901023999788,None,,10,001,2025-12-19_11h45.07.930,2025C_exp1_comp,2022.2.4,59.99552433821862,
22.7,315,1,-1,0,84,84,102,219.3901023999788,219.3901023999788,219.89059880000423,219.9573143000016,220.0076380999817,220.0076380999817,220.0076380999817,220.0076380999817,220.05728449998423,220.05728449998423,220.05728449998423,220.05728449998423,220.05728449998423,220.05728449998423,220.05728449998423,220.05728449998423,220.05728449998423,left,0.7923306000011507,220.87491679997765,220.87491679997765,None,,10,001,2025-12-19_11h45.07.930,2025C_exp1_comp,2022.2.4,59.99552433821862,
42.7,315,1,0,0,85,85,35,220.87491679997765,220.87491679997765,221.37534869997762,221.44215649997932,221.49236569998902,221.49236569998902,221.49236569998902,221.49236569998902,221.54227039997932,221.54227039997932,221.54227039997932,221.54227039997932,221.54227039997932,221.54227039997932,221.54227039997932,221.54227039997932,221.54227039997932,left,0.8748456999892369,222.44280269998126,222.44280269998126,None,,10,001,2025-12-19_11h45.07.930,2025C_exp1_comp,2022.2.4,59.99552433821862,
15.7,315,-1,-1,0,86,86,82,222.44280269998126,222.44280269998126,222.9434057000035,223.010072199977,223.06045419999282,223.06045419999282,223.06045419999282,223.06045419999282,223.11015619998216,223.11015619998216,223.11015619998216,223.11015619998216,223.11015619998216,223.11015619998216,223.11015619998216,223.11015619998216,223.11015619998216,right,0.459324800001923,223.5940803999838,223.5940803999838,None,,10,001,2025-12-19_11h45.07.930,2025C_exp1_comp,2022.2.4,59.99552433821862,
35.3,315,1,1,0,87,87,69,223.5940803999838,223.5940803999838,224.09483719998389,224.16165309998905,224.21199559999513,224.21199559999513,224.21199559999513,224.21199559999513,224.26165099997888,224.26165099997888,224.26165099997888,224.26165099997888,224.26165099997888,224.26165099997888,224.26165099997888,224.26165099997888,224.26165099997888,left,0.7483486999990419,225.02893529998255,225.02893529998255,None,,10,001,2025-12-19_11h45.07.930,2025C_exp1_comp,2022.2.4,59.99552433821862,
25.5,45,-1,-1,0,88,88,76,225.02893529998255,225.02893529998255,225.5294908999931,225.59629649997805,225.6465619999799,225.6465619999799,225.6465619999799,225.6465619999799,225.69640049998998,225.69640049998998,225.69640049998998,225.69640049998998,225.69640049998998,225.69640049998998,225.69640049998998,225.69640049998998,225.69640049998998,left,0.7061542999872472,226.43049129997962,226.43049129997962,None,,10,001,2025-12-19_11h45.07.930,2025C_exp1_comp,2022.2.4,59.99552433821862,
39.2,315,1,1,0,89,89,70,226.43049129997962,226.43049129997962,226.9309409999987,226.99772769998526,227.0479445999954,227.0479445999954,227.0479445999954,227.0479445999954,227.09767550000106,227.09767550000106,227.09767550000106,227.09767550000106,227.09767550000106,227.09767550000106,227.09767550000106,227.09767550000106,227.09767550000106,right,0.4408789000008255,227.56484369997634,227.56484369997634,None,,10,001,2025-12-19_11h45.07.930,2025C_exp1_comp,2022.2.4,59.99552433821862,
35.3,45,-1,-1,0,90,90,78,227.56484369997634,227.56484369997634,228.0653861000028,228.13221349997912,228.18252489998122,228.18252489998122,228.18252489998122,228.18252489998122,228.23232369998004,228.23232369998004,228.23232369998004,228.23232369998004,228.23232369998004,228.23232369998004,228.23232369998004,228.23232369998004,228.23232369998004,right,0.4655662000004668,228.71620169997914,228.71620169997914,None,,10,001,2025-12-19_11h45.07.930,2025C_exp1_comp,2022.2.4,59.99552433821862,
39.2,315,1,-1,0,91,91,106,228.71620169997914,228.71620169997914,229.2168956999958,229.28319210000336,229.33352649997687,229.33352649997687,229.33352649997687,229.33352649997687,229.383414299984,229.383414299984,229.383414299984,229.383414299984,229.383414299984,229.383414299984,229.383414299984,229.383414299984,229.383414299984,right,0.4910641000024043,229.9004570999823,229.9004570999823,None,,10,001,2025-12-19_11h45.07.930,2025C_exp1_comp,2022.2.4,59.99552433821862,
29.4,315,-1,0,0,92,92,14,229.9004570999823,229.9004570999823,230.40108959999634,230.4677362999937,230.51807859999826,230.51807859999826,230.51807859999826,230.51807859999826,230.56796749998466,230.56796749998466,230.56796749998466,230.56796749998466,230.56796749998466,230.56796749998466,230.56796749998466,230.56796749998466,230.56796749998466,right,0.578488400002243,231.16848629998276,231.16848629998276,None,,10,001,2025-12-19_11h45.07.930,2025C_exp1_comp,2022.2.4,59.99552433821862,
12.1,315,1,0,0,93,93,27,231.16848629998276,231.16848629998276,231.6690175999829,231.7357516999764,231.78603819999262,231.78603819999262,231.78603819999262,231.78603819999262,231.83588800000143,231.83588800000143,231.83588800000143,231.83588800000143,231.83588800000143,231.83588800000143,231.83588800000143,231.83588800000143,231.83588800000143,left,0.5267755000095349,232.38625419998425,232.38625419998425,None,,10,001,2025-12-19_11h45.07.930,2025C_exp1_comp,2022.2.4,59.99552433821862,
29.4,45,-1,-1,0,94,94,77,232.38625419998425,232.38625419998425,232.88692379998975,232.953535299981,233.00394929997856,233.00394929997856,233.00394929997856,233.00394929997856,233.05372080000234,233.05372080000234,233.05372080000234,233.05372080000234,233.05372080000234,233.05372080000234,233.05372080000234,233.05372080000234,233.05372080000234,left,0.5157833999837749,233.58747030000086,233.58747030000086,None,,10,001,2025-12-19_11h45.07.930,2025C_exp1_comp,2022.2.4,59.99552433821862,
19.6,315,-1,0,0,95,95,11,233.58747030000086,233.58747030000086,234.0881754999864,234.15498959997785,234.20526679998147,234.20526679998147,234.20526679998147,234.20526679998147,234.25463699997636,234.25463699997636,234.25463699997636,234.25463699997636,234.25463699997636,234.25463699997636,234.25463699997636,234.25463699997636,234.25463699997636,right,0.4601072999939788,234.7388038999925,234.7388038999925,None,,10,001,2025-12-19_11h45.07.930,2025C_exp1_comp,2022.2.4,59.99552433821862,
19.6,315,1,-1,0,96,96,101,234.7388038999925,234.7388038999925,235.23919779999414,235.30606919998536,235.3563563999778,235.3563563999778,235.3563563999778,235.3563563999778,235.40610089999973,235.40610089999973,235.40610089999973,235.40610089999973,235.40610089999973,235.40610089999973,235.40610089999973,235.40610089999973,235.40610089999973,left,0.45997450000140816,235.88960229998338,235.88960229998338,None,,10,001,2025-12-19_11h45.07.930,2025C_exp1_comp,2022.2.4,59.99552433821862,
42.7,45,-1,-1,0,97,97,80,235.88960229998338,235.88960229998338,236.39036299998406,236.45727709998027,236.5077084999939,236.5077084999939,236.5077084999939,236.5077084999939,236.55739360000007,236.55739360000007,236.55739360000007,236.55739360000007,236.55739360000007,236.55739360000007,236.55739360000007,236.55739360000007,236.55739360000007,left,0.725192900019465,237.3078605000046,237.3078605000046,None,,10,001,2025-12-19_11h45.07.930,2025C_exp1_comp,2022.2.4,59.99552433821862,
15.7,315,1,-1,0,98,98,100,237.3078605000046,237.3078605000046,237.80849060000037,237.87524389999453,237.92555389998597,237.92555389998597,237.92555389998597,237.92555389998597,237.97523769998224,237.97523769998224,237.97523769998224,237.97523769998224,237.97523769998224,237.97523769998224,237.97523769998224,237.97523769998224,237.97523769998224,left,0.46662029999424703,238.45915129999048,238.45915129999048,None,,10,001,2025-12-19_11h45.07.930,2025C_exp1_comp,2022.2.4,59.99552433821862,
35.3,45,-1,0,0,99,99,6,238.45915129999048,238.45915129999048,238.95951879999484,239.02624499998637,239.07670179998968,239.07670179998968,239.07670179998968,239.07670179998968,239.12645129999146,239.12645129999146,239.12645129999146,239.12645129999146,239.12645129999146,239.12645129999146,239.12645129999146,239.12645129999146,239.12645129999146,left,0.587780899979407,239.7437770999968,239.7437770999968,None,,10,001,2025-12-19_11h45.07.930,2025C_exp1_comp,2022.2.4,59.99552433821862,
19.6,45,-1,1,0,100,100,38,239.7437770999968,239.7437770999968,240.24434730000212,240.31111559999408,240.36136290000286,240.36136290000286,240.36136290000286,240.36136290000286,240.41127849998884,240.41127849998884,240.41127849998884,240.41127849998884,240.41127849998884,240.41127849998884,240.41127849998884,240.41127849998884,240.41127849998884,right,0.47941319999517873,240.91150299998117,240.91150299998117,None,,10,001,2025-12-19_11h45.07.930,2025C_exp1_comp,2022.2.4,59.99552433821862,
25.5,45,1,0,0,101,101,22,240.91150299998117,240.91150299998117,241.4118974999874,241.47878409997793,241.52914089997648,241.52914089997648,241.52914089997648,241.52914089997648,241.57893109999713,241.57893109999713,241.57893109999713,241.57893109999713,241.57893109999713,241.57893109999713,241.57893109999713,241.57893109999713,241.57893109999713,left,0.6232454999990296,242.22948439998436,242.22948439998436,None,,10,001,2025-12-19_11h45.07.930,2025C_exp1_comp,2022.2.4,59.99552433821862,
12.1,45,1,0,0,102,102,18,242.22948439998436,242.22948439998436,242.72985000000335,242.79678169998806,242.84714199998416,242.84714199998416,242.84714199998416,242.84714199998416,242.89686819998315,242.89686819998315,242.89686819998315,242.89686819998315,242.89686819998315,242.89686819998315,242.89686819998315,242.89686819998315,242.89686819998315,left,0.5126316999958362,243.43086279998533,243.43086279998533,None,,10,001,2025-12-19_11h45.07.930,2025C_exp1_comp,2022.2.4,59.99552433821862,
22.7,45,1,1,0,103,103,57,243.43086279998533,243.43086279998533,243.93137889998616,243.99808859999757,244.04824889998417,244.04824889998417,244.04824889998417,244.04824889998417,244.09819069999503,244.09819069999503,244.09819069999503,244.09819069999503,244.09819069999503,244.09819069999503,244.09819069999503,244.09819069999503,244.09819069999503,left,0.4554742000182159,244.58197229998768,244.58197229998768,None,,10,001,2025-12-19_11h45.07.930,2025C_exp1_comp,2022.2.4,59.99552433821862,
22.7,315,1,0,0,104,104,30,244.58197229998768,244.58197229998768,245.08242150000297,245.14907519999542,245.19947299998603,245.19947299998603,245.19947299998603,245.19947299998603,245.24914629998966,245.24914629998966,245.24914629998966,245.24914629998966,245.24914629998966,245.24914629998966,245.24914629998966,245.24914629998966,245.24914629998966,left,0.42557550000492483,245.6997235000017,245.6997235000017,None,,10,001,2025-12-19_11h45.07.930,2025C_exp1_comp,2022.2.4,59.99552433821862,
39.2,315,-1,0,0,105,105,16,245.6997235000017,245.6997235000017,246.200116299995,246.2668205999944,246.3172457999899,246.3172457999899,246.3172457999899,246.3172457999899,246.3669248999795,246.3669248999795,246.3669248999795,246.3669248999795,246.3669248999795,246.3669248999795,246.3669248999795,246.3669248999795,246.3669248999795,left,0.39572810000390746,246.784133499983,246.784133499983,None,,10,001,2025-12-19_11h45.07.930,2025C_exp1_comp,2022.2.4,59.99552433821862,
15.7,315,-1,0,0,106,106,10,246.784133499983,246.784133499983,247.28462719998788,247.35133599999244,247.40166699999827,247.40166699999827,247.40166699999827,247.40166699999827,247.45147599998745,247.45147599998745,247.45147599998745,247.45147599998745,247.45147599998745,247.45147599998745,247.45147599998745,247.45147599998745,247.45147599998745,right,0.7420451999932993,248.2188649000018,248.2188649000018,None,,10,001,2025-12-19_11h45.07.930,2025C_exp1_comp,2022.2.4,59.99552433821862,
25.5,315,1,-1,0,107,107,103,248.2188649000018,248.2188649000018,248.71930659998907,248.78585459999158,248.836155099998,248.836155099998,248.836155099998,248.836155099998,248.88607409998076,248.88607409998076,248.88607409998076,248.88607409998076,248.88607409998076,248.88607409998076,248.88607409998076,248.88607409998076,248.88607409998076,left,0.4119842000072822,249.32006679999176,249.32006679999176,space,11.45048769999994,10,001,2025-12-19_11h45.07.930,2025C_exp1_comp,2022.2.4,59.99552433821862,
25.5,45,1,0,1,0,108,22,260.79813429998467,260.79813429998467,261.298732700001,261.36540419998346,261.4156500999816,261.4156500999816,261.4156500999816,261.4156500999816,261.4656167999783,261.4656167999783,261.4656167999783,261.4656167999783,261.4656167999783,261.4656167999783,261.4656167999783,261.4656167999783,261.4656167999783,left,1.0716675999865402,262.5667916999955,262.5667916999955,None,,10,001,2025-12-19_11h45.07.930,2025C_exp1_comp,2022.2.4,59.99552433821862,
35.3,315,1,0,1,1,109,33,262.5667916999955,262.5667916999955,263.06707389999065,263.133737199998,263.1841316999926,263.1841316999926,263.1841316999926,263.1841316999926,263.2337361999962,263.2337361999962,263.2337361999962,263.2337361999962,263.2337361999962,263.2337361999962,263.2337361999962,263.2337361999962,263.2337361999962,right,0.9766658000007737,264.23482379998313,264.23482379998313,None,,10,001,2025-12-19_11h45.07.930,2025C_exp1_comp,2022.2.4,59.99552433821862,
39.2,45,1,-1,1,2,110,97,264.23482379998313,264.23482379998313,264.7354554999911,264.8020350000006,264.8524799000006,264.8524799000006,264.8524799000006,264.8524799000006,264.90218919998733,264.90218919998733,264.90218919998733,264.90218919998733,264.90218919998733,264.90218919998733,264.90218919998733,264.90218919998733,264.90218919998733,left,0.5322497999877669,265.45266179999453,265.45266179999453,None,,10,001,2025-12-19_11h45.07.930,2025C_exp1_comp,2022.2.4,59.99552433821862,
42.7,45,-1,-1,1,3,111,80,265.45266179999453,265.45266179999453,265.9532818000007,266.0199436999974,266.070166599995,266.070166599995,266.070166599995,266.070166599995,266.12009729997953,266.12009729997953,266.12009729997953,266.12009729997953,266.12009729997953,266.12009729997953,266.12009729997953,266.12009729997953,266.12009729997953,left,0.482395600003656,266.62062329999753,266.62062329999753,None,,10,001,2025-12-19_11h45.07.930,2025C_exp1_comp,2022.2.4,59.99552433821862,
42.7,315,-1,0,1,4,112,17,266.62062329999753,266.62062329999753,267.12120719999075,267.187586199987,267.23806169998716,267.23806169998716,267.23806169998716,267.23806169998716,267.2879478999821,267.2879478999821,267.2879478999821,267.2879478999821,267.2879478999821,267.2879478999821,267.2879478999821,267.2879478999821,267.2879478999821,left,0.6901968000165652,268.00532909997855,268.00532909997855,None,,10,001,2025-12-19_11h45.07.930,2025C_exp1_comp,2022.2.4,59.99552433821862,
39.2,315,-1,0,1,5,113,16,268.00532909997855,268.00532909997855,268.50588849998894,268.5725678000017,268.62288559999433,268.62288559999433,268.62288559999433,268.62288559999433,268.6726728999929,268.6726728999929,268.6726728999929,268.6726728999929,268.6726728999929,268.6726728999929,268.6726728999929,268.6726728999929,268.6726728999929,left,0.44130600002245046,269.1398036000028,269.1398036000028,None,,10,001,2025-12-19_11h45.07.930,2025C_exp1_comp,2022.2.4,59.99552433821862,
12.1,45,-1,-1,1,6,114,72,269.1398036000028,269.1398036000028,269.64016509999055,269.70707979999133,269.7574509999831,269.7574509999831,269.7574509999831,269.7574509999831,269.80693339998834,269.80693339998834,269.80693339998834,269.80693339998834,269.80693339998834,269.80693339998834,269.80693339998834,269.80693339998834,269.80693339998834,right,0.5629272000223864,270.39091439999174,270.39091439999174,None,,10,001,2025-12-19_11h45.07.930,2025C_exp1_comp,2022.2.4,59.99552433821862,
12.1,315,-1,-1,1,7,115,81,270.39091439999174,270.39091439999174,270.8917605000024,270.9583374999929,271.0086134999874,271.0086134999874,271.0086134999874,271.0086134999874,271.0585441000003,271.0585441000003,271.0585441000003,271.0585441000003,271.0585441000003,271.0585441000003,271.0585441000003,271.0585441000003,271.0585441000003,right,0.44817640000837855,271.525662799977,271.525662799977,None,,10,001,2025-12-19_11h45.07.930,2025C_exp1_comp,2022.2.4,59.99552433821862,
19.6,45,-1,0,1,8,116,2,271.525662799977,271.525662799977,272.02603579999413,272.0927316999878,272.14303179999115,272.14303179999115,272.14303179999115,272.14303179999115,272.1928499999922,272.1928499999922,272.1928499999922,272.1928499999922,272.1928499999922,272.1928499999922,272.1928499999922,272.1928499999922,272.1928499999922,right,0.4725631000183057,272.69320219999645,272.69320219999645,None,,10,001,2025-12-19_11h45.07.930,2025C_exp1_comp,2022.2.4,59.99552433821862,
22.7,315,-1,-1,1,9,117,84,272.69320219999645,272.69320219999645,273.19383579998976,273.26047409998137,273.3105674999824,273.3105674999824,273.3105674999824,273.3105674999824,273.360674800002,273.360674800002,273.360674800002,273.360674800002,273.360674800002,273.360674800002,273.360674800002,273.360674800002,273.360674800002,right,0.5127839999913704,273.8944789999805,273.8944789999805,None,,10,001,2025-12-19_11h45.07.930,2025C_exp1_comp,2022.2.4,59.99552433821862,
15.7,45,-1,1,1,10,118,37,273.8944789999805,273.8944789999805,274.3950788999791,274.46165349998046,274.5121024999826,274.5121024999826,274.5121024999826,274.5121024999826,274.5617744999763,274.5617744999763,274.5617744999763,274.5617744999763,274.5617744999763,274.5617744999763,274.5617744999763,274.5617744999763,274.5617744999763,right,0.4326887000061106,275.0123352999799,275.0123352999799,None,,10,001,2025-12-19_11h45.07.930,2025C_exp1_comp,2022.2.4,59.99552433821862,
42.7,315,1,1,1,11,119,71,275.0123352999799,275.0123352999799,275.5129468999803,275.57957810000516,275.6300127999857,275.6300127999857,275.6300127999857,275.6300127999857,275.6796471999842,275.6796471999842,275.6796471999842,275.6796471999842,275.6796471999842,275.6796471999842,275.6796471999842,275.6796471999842,275.6796471999842,right,0.40169699999387376,276.1133671999851,276.1133671999851,None,,10,001,2025-12-19_11h45.07.930,2025C_exp1_comp,2022.2.4,59.99552433821862,
35.3,315,-1,0,1,12,120,15,276.1133671999851,276.1133671999851,276.61395999998786,276.6805609999865,276.73100599998725,276.73100599998725,276.73100599998725,276.73100599998725,276.7806822999846,276.7806822999846,276.7806822999846,276.7806822999846,276.7806822999846,276.7806822999846,276.7806822999846,276.7806822999846,276.7806822999846,right,0.8217942999908701,277.6315177999786,277.6315177999786,None,,10,001,2025-12-19_11h45.07.930,2025C_exp1_comp,2022.2.4,59.99552433821862,
35.3,45,-1,1,1,13,121,42,277.6315177999786,277.6315177999786,278.1322319000028,278.1989299999841,278.2492734999978,278.2492734999978,278.2492734999978,278.2492734999978,278.29882639998686,278.29882639998686,278.29882639998686,278.29882639998686,278.29882639998686,278.29882639998686,278.29882639998686,278.29882639998686,278.29882639998686,right,0.5825616999936756,278.8995875999972,278.8995875999972,None,,10,001,2025-12-19_11h45.07.930,2025C_exp1_comp,2022.2.4,59.99552433821862,
35.3,315,1,1,1,14,122,69,278.8995875999972,278.8995875999972,279.3997929999896,279.4667773999972,279.51703729998553,279.51703729998553,279.51703729998553,279.51703729998553,279.5667820999806,279.5667820999806,279.5667820999806,279.5667820999806,279.5667820999806,279.5667820999806,279.5667820999806,279.5667820999806,279.5667820999806,left,0.6759997000044677,280.26759709999897,280.26759709999897,None,,10,001,2025-12-19_11h45.07.930,2025C_exp1_comp,2022.2.4,59.99552433821862,
22.7,45,1,0,1,15,123,21,280.26759709999897,280.26759709999897,280.76812569997855,280.83466619998217,280.885240100004,280.885240100004,280.885240100004,280.885240100004,280.93506089999573,280.93506089999573,280.93506089999573,280.93506089999573,280.93506089999573,280.93506089999573,280.93506089999573,280.93506089999573,280.93506089999573,left,0.4982779999845661,281.451814799977,281.451814799977,None,,10,001,2025-12-19_11h45.07.930,2025C_exp1_comp,2022.2.4,59.99552433821862,
22.7,45,-1,1,1,16,124,39,281.451814799977,281.451814799977,281.95264989999123,282.019192799984,282.0695236999891,282.0695236999891,282.0695236999891,282.0695236999891,282.11939740000525,282.11939740000525,282.11939740000525,282.11939740000525,282.11939740000525,282.11939740000525,282.11939740000525,282.11939740000525,282.11939740000525,right,0.6182503000018187,282.7697952000017,282.7697952000017,None,,10,001,2025-12-19_11h45.07.930,2025C_exp1_comp,2022.2.4,59.99552433821862,
29.4,45,-1,0,1,17,125,5,282.7697952000017,282.7697952000017,283.2702892999805,283.33698490000097,283.38726529999985,283.38726529999985,283.38726529999985,283.38726529999985,283.43749260000186,283.43749260000186,283.43749260000186,283.43749260000186,283.43749260000186,283.43749260000186,283.43749260000186,283.43749260000186,283.43749260000186,left,0.7246304999862332,284.18815469997935,284.18815469997935,None,,10,001,2025-12-19_11h45.07.930,2025C_exp1_comp,2022.2.4,59.99552433821862,
35.3,45,-1,0,1,18,126,6,284.18815469997935,284.18815469997935,284.6885551000014,284.75539529998787,284.805735300004,284.805735300004,284.805735300004,284.805735300004,284.8553683999926,284.8553683999926,284.8553683999926,284.8553683999926,284.8553683999926,284.8553683999926,284.8553683999926,284.8553683999926,284.8553683999926,right,0.8659538999781944,285.73972270000377,285.73972270000377,None,,10,001,2025-12-19_11h45.07.930,2025C_exp1_comp,2022.2.4,59.99552433821862,
22.7,315,-1,0,1,19,127,12,285.73972270000377,285.73972270000377,286.2402252999891,286.30694399998174,286.35722559998976,286.35722559998976,286.35722559998976,286.35722559998976,286.40701619998435,286.40701619998435,286.40701619998435,286.40701619998435,286.40701619998435,286.40701619998435,286.40701619998435,286.40701619998435,286.40701619998435,right,0.48229769998579286,286.90738829999464,286.90738829999464,None,,10,001,2025-12-19_11h45.07.930,2025C_exp1_comp,2022.2.4,59.99552433821862,
29.4,45,-1,1,1,20,128,41,286.90738829999464,286.90738829999464,287.40803150000283,287.47469390000333,287.5248223999806,287.5248223999806,287.5248223999806,287.5248223999806,287.57487169999513,287.57487169999513,287.57487169999513,287.57487169999513,287.57487169999513,287.57487169999513,287.57487169999513,287.57487169999513,287.57487169999513,right,0.48263030001544394,288.0752983999846,288.0752983999846,None,,10,001,2025-12-19_11h45.07.930,2025C_exp1_comp,2022.2.4,59.99552433821862,
12.1,45,1,0,1,21,129,18,288.0752983999846,288.0752983999846,288.57594379998045,288.6426763999916,288.6929728999967,288.6929728999967,288.6929728999967,288.6929728999967,288.7426239000051,288.7426239000051,288.7426239000051,288.7426239000051,288.7426239000051,288.7426239000051,288.7426239000051,288.7426239000051,288.7426239000051,left,0.7398917000100482,289.5100720000046,289.5100720000046,None,,10,001,2025-12-19_11h45.07.930,2025C_exp1_comp,2022.2.4,59.99552433821862,
12.1,315,1,0,1,22,130,27,289.5100720000046,289.5100720000046,290.01063839998096,290.0775448999775,290.1278104999801,290.1278104999801,290.1278104999801,290.1278104999801,290.177555799979,290.177555799979,290.177555799979,290.177555799979,290.177555799979,290.177555799979,290.177555799979,290.177555799979,290.177555799979,left,0.4562558000034187,290.6612884999777,290.6612884999777,None,,10,001,2025-12-19_11h45.07.930,2025C_exp1_comp,2022.2.4,59.99552433821862,
12.1,315,-1,0,1,23,131,9,290.6612884999777,290.6612884999777,291.1618823999888,291.2286619999795,291.278796300001,291.278796300001,291.278796300001,291.278796300001,291.3286186000041,291.3286186000041,291.3286186000041,291.3286186000041,291.3286186000041,291.3286186000041,291.3286186000041,291.3286186000041,291.3286186000041,right,0.7699267999851145,292.1295667999948,292.1295667999948,None,,10,001,2025-12-19_11h45.07.930,2025C_exp1_comp,2022.2.4,59.99552433821862,
39.2,315,-1,-1,1,24,132,88,292.1295667999948,292.1295667999948,292.630232800002,292.6968629999901,292.74697789998027,292.74697789998027,292.74697789998027,292.74697789998027,292.79665439997916,292.79665439997916,292.79665439997916,292.79665439997916,292.79665439997916,292.79665439997916,292.79665439997916,292.79665439997916,292.79665439997916,left,0.6374742000189144,293.4640954999777,293.4640954999777,None,,10,001,2025-12-19_11h45.07.930,2025C_exp1_comp,2022.2.4,59.99552433821862,
39.2,315,-1,1,1,25,133,52,293.4640954999777,293.4640954999777,293.96456130000297,294.03123929997673,294.08161999998265,294.08161999998265,294.08161999998265,294.08161999998265,294.13140519999433,294.13140519999433,294.13140519999433,294.13140519999433,294.13140519999433,294.13140519999433,294.13140519999433,294.13140519999433,294.13140519999433,right,0.5823787999979686,294.73202719999244,294.73202719999244,None,,10,001,2025-12-19_11h45.07.930,2025C_exp1_comp,2022.2.4,59.99552433821862,
42.7,45,1,0,1,26,134,26,294.73202719999244,294.73202719999244,295.23246420000214,295.299274399993,295.34958159999223,295.34958159999223,295.34958159999223,295.34958159999223,295.3993963999965,295.3993963999965,295.3993963999965,295.3993963999965,295.3993963999965,295.3993963999965,295.3993963999965,295.3993963999965,295.3993963999965,left,0.41106770001351833,295.833075499977,295.833075499977,None,,10,001,2025-12-19_11h45.07.930,2025C_exp1_comp,2022.2.4,59.99552433821862,
19.6,315,1,1,1,27,135,65,295.833075499977,295.833075499977,296.3336241999932,296.40034599998035,296.45064289998845,296.45064289998845,296.45064289998845,296.45064289998845,296.50045550000505,296.50045550000505,296.50045550000505,296.50045550000505,296.50045550000505,296.50045550000505,296.50045550000505,296.50045550000505,296.50045550000505,right,0.43803300001309253,296.9674674999842,296.9674674999842,None,,10,001,2025-12-19_11h45.07.930,2025C_exp1_comp,2022.2.4,59.99552433821862,
39.2,315,1,0,1,28,136,34,296.9674674999842,296.9674674999842,297.4680919999955,297.53484559999197,297.585113499983,297.585113499983,297.585113499983,297.585113499983,297.6347930000047,297.6347930000047,297.6347930000047,297.6347930000047,297.6347930000047,297.6347930000047,297.6347930000047,297.6347930000047,297.6347930000047,left,0.7756980000121985,298.43576920000487,298.43576920000487,None,,10,001,2025-12-19_11h45.07.930,2025C_exp1_comp,2022.2.4,59.99552433821862,
29.4,45,1,-1,1,29,137,95,298.43576920000487,298.43576920000487,298.9362458999967,299.0031040000031,299.0532600999868,299.0532600999868,299.0532600999868,299.0532600999868,299.1030759999994,299.1030759999994,299.1030759999994,299.1030759999994,299.1030759999994,299.1030759999994,299.1030759999994,299.1030759999994,299.1030759999994,left,0.5148484999954235,299.63705439999467,299.63705439999467,None,,10,001,2025-12-19_11h45.07.930,2025C_exp1_comp,2022.2.4,59.99552433821862,
25.5,45,-1,0,1,30,138,4,299.63705439999467,299.63705439999467,300.1372928999772,300.20412739997846,300.2544610000041,300.2544610000041,300.2544610000041,300.2544610000041,300.304263500002,300.304263500002,300.304263500002,300.304263500002,300.304263500002,300.304263500002,300.304263500002,300.304263500002,300.304263500002,right,0.4422024999803398,300.77114559998154,300.77114559998154,None,,10,001,2025-12-19_11h45.07.930,2025C_exp1_comp,2022.2.4,59.99552433821862,
39.2,45,-1,-1,1,31,139,79,300.77114559998154,300.77114559998154,301.27203789999476,301.3387849999999,301.38914419998764,301.38914419998764,301.38914419998764,301.38914419998764,301.4389214999974,301.4389214999974,301.4389214999974,301.4389214999974,301.4389214999974,301.4389214999974,301.4389214999974,301.4389214999974,301.4389214999974,left,0.5150252000021283,301.97267600000487,301.97267600000487,None,,10,001,2025-12-19_11h45.07.930,2025C_exp1_comp,2022.2.4,59.99552433821862,
42.7,45,1,1,1,32,140,62,301.97267600000487,301.97267600000487,302.4730778999801,302.53982979999273,302.59012249999796,302.59012249999796,302.59012249999796,302.59012249999796,302.63990559999365,302.63990559999365,302.63990559999365,302.63990559999365,302.63990559999365,302.63990559999365,302.63990559999365,302.63990559999365,302.63990559999365,right,0.5147096999862697,303.1737979000027,303.1737979000027,None,,10,001,2025-12-19_11h45.07.930,2025C_exp1_comp,2022.2.4,59.99552433821862,
25.5,45,-1,1,1,33,141,40,303.1737979000027,303.1737979000027,303.67431439997745,303.74099619998015,303.7912841999787,303.7912841999787,303.7912841999787,303.7912841999787,303.8411187999882,303.8411187999882,303.8411187999882,303.8411187999882,303.8411187999882,303.8411187999882,303.8411187999882,303.8411187999882,303.8411187999882,right,0.8490671000035945,304.70871159998933,304.70871159998933,None,,10,001,2025-12-19_11h45.07.930,2025C_exp1_comp,2022.2.4,59.99552433821862,
22.7,45,-1,0,1,34,142,3,304.70871159998933,304.70871159998933,305.2092220999766,305.2759116999805,305.32610939998995,305.32610939998995,305.32610939998995,305.32610939998995,305.3760366999777,305.3760366999777,305.3760366999777,305.3760366999777,305.3760366999777,305.3760366999777,305.3760366999777,305.3760366999777,305.3760366999777,right,0.47337619998143055,305.8765637000033,305.8765637000033,None,,10,001,2025-12-19_11h45.07.930,2025C_exp1_comp,2022.2.4,59.99552433821862,
15.7,45,1,-1,1,35,143,91,305.8765637000033,305.8765637000033,306.3770475999918,306.4436314999766,306.49404869999853,306.49404869999853,306.49404869999853,306.49404869999853,306.5438620999921,306.5438620999921,306.5438620999921,306.5438620999921,306.5438620999921,306.5438620999921,306.5438620999921,306.5438620999921,306.5438620999921,left,0.642343899991829,307.21116999999504,307.21116999999504,None,,10,001,2025-12-19_11h45.07.930,2025C_exp1_comp,2022.2.4,59.99552433821862,
42.7,315,-1,-1,1,36,144,89,307.21116999999504,307.21116999999504,307.71168099998613,307.7782914999989,307.82843739999225,307.82843739999225,307.82843739999225,307.82843739999225,307.8783548999927,307.8783548999927,307.8783548999927,307.8783548999927,307.8783548999927,307.8783548999927,307.8783548999927,307.8783548999927,307.8783548999927,left,0.5001220999984071,308.39582679999876,308.39582679999876,None,,10,001,2025-12-19_11h45.07.930,2025C_exp1_comp,2022.2.4,59.99552433821862,
35.3,315,1,-1,1,37,145,105,308.39582679999876,308.39582679999876,308.8961564999772,308.9629267999844,309.0131931999931,309.0131931999931,309.0131931999931,309.0131931999931,309.0630153999955,309.0630153999955,309.0630153999955,309.0630153999955,309.0630153999955,309.0630153999955,309.0630153999955,309.0630153999955,309.0630153999955,left,0.4345159000076819,309.53014229997643,309.53014229997643,None,,10,001,2025-12-19_11h45.07.930,2025C_exp1_comp,2022.2.4,59.99552433821862,
25.5,315,1,0,1,38,146,31,309.53014229997643,309.53014229997643,310.0305343999935,310.0973599999852,310.1476605999924,310.1476605999924,310.1476605999924,310.1476605999924,310.1973165999807,310.1973165999807,310.1973165999807,310.1973165999807,310.1973165999807,310.1973165999807,310.1973165999807,310.1973165999807,310.1973165999807,right,0.5327867000014521,310.74806949999765,310.74806949999765,None,,10,001,2025-12-19_11h45.07.930,2025C_exp1_comp,2022.2.4,59.99552433821862,
39.2,315,1,1,1,39,147,70,310.74806949999765,310.74806949999765,311.248345,311.31530339998426,311.36575119997724,311.36575119997724,311.36575119997724,311.36575119997724,311.41545589998714,311.41545589998714,311.41545589998714,311.41545589998714,311.41545589998714,311.41545589998714,311.41545589998714,311.41545589998714,311.41545589998714,right,0.5070115999842528,311.94926080000005,311.94926080000005,None,,10,001,2025-12-19_11h45.07.930,2025C_exp1_comp,2022.2.4,59.99552433821862,
19.6,45,1,-1,1,40,148,92,311.94926080000005,311.94926080000005,312.4494713000022,312.51612289997865,312.5664403999981,312.5664403999981,312.5664403999981,312.5664403999981,312.6162047999969,312.6162047999969,312.6162047999969,312.6162047999969,312.6162047999969,312.6162047999969,312.6162047999969,312.6162047999969,312.6162047999969,left,0.6663542999885976,313.3002462000004,313.3002462000004,None,,10,001,2025-12-19_11h45.07.930,2025C_exp1_comp,2022.2.4,59.99552433821862,
12.1,315,1,1,1,41,149,63,313.3002462000004,313.3002462000004,313.8009107999969,313.86781429999974,313.91822319998755,313.91822319998755,313.91822319998755,313.91822319998755,313.96795739998925,313.96795739998925,313.96795739998925,313.96795739998925,313.96795739998925,313.96795739998925,313.96795739998925,313.96795739998925,313.96795739998925,left,0.4893920999893453,314.485045599984,314.485045599984,None,,10,001,2025-12-19_11h45.07.930,2025C_exp1_comp,2022.2.4,59.99552433821862,
39.2,315,1,-1,1,42,150,106,314.485045599984,314.485045599984,314.98561909998534,315.05230939999456,315.102590399998,315.102590399998,315.102590399998,315.102590399998,315.1523018000007,315.1523018000007,315.1523018000007,315.1523018000007,315.1523018000007,315.1523018000007,315.1523018000007,315.1523018000007,315.1523018000007,left,0.4660943000053521,315.6361737999832,315.6361737999832,None,,10,001,2025-12-19_11h45.07.930,2025C_exp1_comp,2022.2.4,59.99552433821862,
42.7,45,-1,0,1,43,151,8,315.6361737999832,315.6361737999832,316.1365892000031,316.20342629999504,316.25377079998725,316.25377079998725,316.25377079998725,316.25377079998725,316.3035536999814,316.3035536999814,316.3035536999814,316.3035536999814,316.3035536999814,316.3035536999814,316.3035536999814,316.3035536999814,316.3035536999814,left,0.6657836999802385,316.9875877999875,316.9875877999875,None,,10,001,2025-12-19_11h45.07.930,2025C_exp1_comp,2022.2.4,59.99552433821862,
15.7,315,-1,-1,1,44,152,82,316.9875877999875,316.9875877999875,317.48818489999394,317.55483539999113,317.6052643999865,317.6052643999865,317.6052643999865,317.6052643999865,317.65491869999096,317.65491869999096,317.65491869999096,317.65491869999096,317.65491869999096,317.65491869999096,317.65491869999096,317.65491869999096,317.65491869999096,right,0.643529299995862,318.3222317000036,318.3222317000036,None,,10,001,2025-12-19_11h45.07.930,2025C_exp1_comp,2022.2.4,59.99552433821862,
19.6,315,-1,-1,1,45,153,83,318.3222317000036,318.3222317000036,318.82265950000146,318.88950069999555,318.9397069999832,318.9397069999832,318.9397069999832,318.9397069999832,318.9894752999826,318.9894752999826,318.9894752999826,318.9894752999826,318.9894752999826,318.9894752999826,318.9894752999826,318.9894752999826,318.9894752999826,right,0.46073630001046695,319.4734077999892,319.4734077999892,None,,10,001,2025-12-19_11h45.07.930,2025C_exp1_comp,2022.2.4,59.99552433821862,
35.3,45,1,0,1,46,154,24,319.4734077999892,319.4734077999892,319.9738951000036,320.0406424999819,320.09084439999424,320.09084439999424,320.09084439999424,320.09084439999424,320.14072189998114,320.14072189998114,320.14072189998114,320.14072189998114,320.14072189998114,320.14072189998114,320.14072189998114,320.14072189998114,320.14072189998114,left,0.7575025999976788,320.92490819998784,320.92490819998784,None,,10,001,2025-12-19_11h45.07.930,2025C_exp1_comp,2022.2.4,59.99552433821862,
12.1,315,-1,1,1,47,155,45,320.92490819998784,320.92490819998784,321.4254052999895,321.4921494000009,321.5424515999912,321.5424515999912,321.5424515999912,321.5424515999912,321.5919471999805,321.5919471999805,321.5919471999805,321.5919471999805,321.5919471999805,321.5919471999805,321.5919471999805,321.5919471999805,321.5919471999805,right,0.6661258999956772,322.27603829998407,322.27603829998407,None,,10,001,2025-12-19_11h45.07.930,2025C_exp1_comp,2022.2.4,59.99552433821862,
19.6,45,1,0,1,48,156,20,322.27603829998407,322.27603829998407,322.7767626999994,322.84363269997993,322.8940806000028,322.8940806000028,322.8940806000028,322.8940806000028,322.94375839998247,322.94375839998247,322.94375839998247,322.94375839998247,322.94375839998247,322.94375839998247,322.94375839998247,322.94375839998247,322.94375839998247,left,6.63359940002556,329.60007859999314,329.60007859999314,None,,10,001,2025-12-19_11h45.07.930,2025C_exp1_comp,2022.2.4,59.99552433821862,
29.4,45,1,0,1,49,157,23,329.60007859999314,329.60007859999314,330.1007696999877,330.1674995999783,330.2176412999979,330.2176412999979,330.2176412999979,330.2176412999979,330.2674354999908,330.2674354999908,330.2674354999908,330.2674354999908,330.2674354999908,330.2674354999908,330.2674354999908,330.2674354999908,330.2674354999908,left,0.6630561000201851,330.95142119997763,330.95142119997763,None,,10,001,2025-12-19_11h45.07.930,2025C_exp1_comp,2022.2.4,59.99552433821862,
29.4,315,-1,0,1,50,158,14,330.95142119997763,330.95142119997763,331.45223539997824,331.5189115999965,331.56923169997754,331.56923169997754,331.56923169997754,331.56923169997754,331.6189266000001,331.6189266000001,331.6189266000001,331.6189266000001,331.6189266000001,331.6189266000001,331.6189266000001,331.6189266000001,331.6189266000001,left,0.6630787000176497,332.30296319999616,332.30296319999616,None,,10,001,2025-12-19_11h45.07.930,2025C_exp1_comp,2022.2.4,59.99552433821862,
22.7,45,-1,-1,1,51,159,75,332.30296319999616,332.30296319999616,332.8034122999816,332.8701265999989,332.92040299999644,332.92040299999644,332.92040299999644,332.92040299999644,332.9701154999784,332.9701154999784,332.9701154999784,332.9701154999784,332.9701154999784,332.9701154999784,332.9701154999784,332.9701154999784,332.9701154999784,left,0.528320999990683,333.52068940000026,333.52068940000026,None,,10,001,2025-12-19_11h45.07.930,2025C_exp1_comp,2022.2.4,59.99552433821862,
25.5,315,-1,-1,1,52,160,85,333.52068940000026,333.52068940000026,334.0214778999798,334.0881288999808,334.13802099999157,334.13802099999157,334.13802099999157,334.13802099999157,334.1881752999907,334.1881752999907,334.1881752999907,334.1881752999907,334.1881752999907,334.1881752999907,334.1881752999907,334.1881752999907,334.1881752999907,left,0.5102544999972451,334.7219982999959,334.7219982999959,None,,10,001,2025-12-19_11h45.07.930,2025C_exp1_comp,2022.2.4,59.99552433821862,
19.6,315,1,0,1,53,161,29,334.7219982999959,334.7219982999959,335.222448799992,335.289197999984,335.33951869999873,335.33951869999873,335.33951869999873,335.33951869999873,335.38927539999713,335.38927539999713,335.38927539999713,335.38927539999713,335.38927539999713,335.38927539999713,335.38927539999713,335.38927539999713,335.38927539999713,left,0.38901779998559505,335.80633829999715,335.80633829999715,None,,10,001,2025-12-19_11h45.07.930,2025C_exp1_comp,2022.2.4,59.99552433821862,
22.7,45,1,-1,1,54,162,93,335.80633829999715,335.80633829999715,336.30694029998267,336.373589099996,336.4238787999784,336.4238787999784,336.4238787999784,336.4238787999784,336.47370989999035,336.47370989999035,336.47370989999035,336.47370989999035,336.47370989999035,336.47370989999035,336.47370989999035,336.47370989999035,336.47370989999035,left,0.39991080001345836,336.89073429998825,336.89073429998825,None,,10,001,2025-12-19_11h45.07.930,2025C_exp1_comp,2022.2.4,59.99552433821862,
22.7,315,-1,1,1,55,163,48,336.89073429998825,336.89073429998825,337.39131669999915,337.45802799999365,337.50822839999455,337.50822839999455,337.50822839999455,337.50822839999455,337.5581370999862,337.5581370999862,337.5581370999862,337.5581370999862,337.5581370999862,337.5581370999862,337.5581370999862,337.5581370999862,337.5581370999862,right,0.4279283999931067,338.0084563999844,338.0084563999844,None,,10,001,2025-12-19_11h45.07.930,2025C_exp1_comp,2022.2.4,59.99552433821862,
25.5,45,-1,-1,1,56,164,76,338.0084563999844,338.0084563999844,338.5091140999866,338.57551639998564,338.6260343999893,338.6260343999893,338.6260343999893,338.6260343999893,338.67590839997865,338.67590839997865,338.67590839997865,338.67590839997865,338.67590839997865,338.67590839997865,338.67590839997865,338.67590839997865,338.67590839997865,left,0.5501856999762822,339.243087299983,339.243087299983,None,,10,001,2025-12-19_11h45.07.930,2025C_exp1_comp,2022.2.4,59.99552433821862,
25.5,315,1,1,1,57,165,67,339.243087299983,339.243087299983,339.7438626999792,339.81050170000526,339.86052439999185,339.86052439999185,339.86052439999185,339.86052439999185,339.9103254999791,339.9103254999791,339.9103254999791,339.9103254999791,339.9103254999791,339.9103254999791,339.9103254999791,339.9103254999791,339.9103254999791,left,0.3475122000090778,340.27752390000387,340.27752390000387,None,,10,001,2025-12-19_11h45.07.930,2025C_exp1_comp,2022.2.4,59.99552433821862,
39.2,45,1,0,1,58,166,25,340.27752390000387,340.27752390000387,340.77801710000494,340.8445839000051,340.8949319999956,340.8949319999956,340.8949319999956,340.8949319999956,340.94483599998057,340.94483599998057,340.94483599998057,340.94483599998057,340.94483599998057,340.94483599998057,340.94483599998057,340.94483599998057,340.94483599998057,left,0.39320600000792183,341.36196059998474,341.36196059998474,None,,10,001,2025-12-19_11h45.07.930,2025C_exp1_comp,2022.2.4,59.99552433821862,
15.7,315,1,0,1,59,167,28,341.36196059998474,341.36196059998474,341.8625003999914,341.92911379999714,341.97937499999534,341.97937499999534,341.97937499999534,341.97937499999534,342.0292274999956,342.0292274999956,342.0292274999956,342.0292274999956,342.0292274999956,342.0292274999956,342.0292274999956,342.0292274999956,342.0292274999956,left,0.3883985999855213,342.44615219999105,342.44615219999105,None,,10,001,2025-12-19_11h45.07.930,2025C_exp1_comp,2022.2.4,59.99552433821862,
29.4,45,-1,-1,1,60,168,77,342.44615219999105,342.44615219999105,342.9466141999874,343.0132294999785,343.0635607999866,343.0635607999866,343.0635607999866,343.0635607999866,343.1133301999944,343.1133301999944,343.1133301999944,343.1133301999944,343.1133301999944,343.1133301999944,343.1133301999944,343.1133301999944,343.1133301999944,left,0.35253579998970963,343.49705760000506,343.49705760000506,None,,10,001,2025-12-19_11h45.07.930,2025C_exp1_comp,2022.2.4,59.99552433821862,
19.6,315,-1,1,1,61,169,47,343.49705760000506,343.49705760000506,343.99807079997845,344.0647581999947,344.1149678999791,344.1149678999791,344.1149678999791,344.1149678999791,344.16474879998714,344.16474879998714,344.16474879998714,344.16474879998714,344.16474879998714,344.16474879998714,344.16474879998714,344.16474879998714,344.16474879998714,right,0.5006958000012673,344.6817045999924,344.6817045999924,None,,10,001,2025-12-19_11h45.07.930,2025C_exp1_comp,2022.2.4,59.99552433821862,
25.5,45,1,1,1,62,170,58,344.6817045999924,344.6817045999924,345.1823551999987,345.24915459999465,345.29944169998635,345.29944169998635,345.29944169998635,345.29944169998635,345.3492434999789,345.3492434999789,345.3492434999789,345.3492434999789,345.3492434999789,345.3492434999789,345.3492434999789,345.3492434999789,345.3492434999789,left,0.8763153999752831,346.2501815999858,346.2501815999858,None,,10,001,2025-12-19_11h45.07.930,2025C_exp1_comp,2022.2.4,59.99552433821862,
42.7,45,1,-1,1,63,171,98,346.2501815999858,346.2501815999858,346.7504698999983,346.81736909999745,346.867680299998,346.867680299998,346.867680299998,346.867680299998,346.9174568000017,346.9174568000017,346.9174568000017,346.9174568000017,346.9174568000017,346.9174568000017,346.9174568000017,346.9174568000017,346.9174568000017,left,0.39630059999763034,347.3345485999889,347.3345485999889,None,,10,001,2025-12-19_11h45.07.930,2025C_exp1_comp,2022.2.4,59.99552433821862,
22.7,315,1,1,1,64,172,66,347.3345485999889,347.3345485999889,347.83505589998094,347.90178919999744,347.95208239997737,347.95208239997737,347.95208239997737,347.95208239997737,348.0018935999833,348.0018935999833,348.0018935999833,348.0018935999833,348.0018935999833,348.0018935999833,348.0018935999833,348.0018935999833,348.0018935999833,left,0.4245303000207059,348.452201099979,348.452201099979,None,,10,001,2025-12-19_11h45.07.930,2025C_exp1_comp,2022.2.4,59.99552433821862,
15.7,45,1,1,1,65,173,55,348.452201099979,348.452201099979,348.95312130000093,349.0197150000022,349.07001429999946,349.07001429999946,349.07001429999946,349.07001429999946,349.1199401000049,349.1199401000049,349.1199401000049,349.1199401000049,349.1199401000049,349.1199401000049,349.1199401000049,349.1199401000049,349.1199401000049,left,0.4105238000047393,349.55362039999454,349.55362039999454,None,,10,001,2025-12-19_11h45.07.930,2025C_exp1_comp,2022.2.4,59.99552433821862,
22.7,45,1,1,1,66,174,57,349.55362039999454,349.55362039999454,350.0539265999978,350.12065969998366,350.170974299981,350.170974299981,350.170974299981,350.170974299981,350.22078289999627,350.22078289999627,350.22078289999627,350.22078289999627,350.22078289999627,350.22078289999627,350.22078289999627,350.22078289999627,350.22078289999627,left,0.38877469999715686,350.6378721999936,350.6378721999936,None,,10,001,2025-12-19_11h45.07.930,2025C_exp1_comp,2022.2.4,59.99552433821862,
39.2,45,1,1,1,67,175,61,350.6378721999936,350.6378721999936,351.1385766000021,351.20511939999415,351.2555283999827,351.2555283999827,351.2555283999827,351.2555283999827,351.30528629999026,351.30528629999026,351.30528629999026,351.30528629999026,351.30528629999026,351.30528629999026,351.30528629999026,351.30528629999026,351.30528629999026,right,0.8801513999933377,352.20610769998166,352.20610769998166,None,,10,001,2025-12-19_11h45.07.930,2025C_exp1_comp,2022.2.4,59.99552433821862,
25.5,315,-1,0,1,68,176,13,352.20610769998166,352.20610769998166,352.7066896999895,352.7735839999805,352.8237433999893,352.8237433999893,352.8237433999893,352.8237433999893,352.87316580000333,352.87316580000333,352.87316580000333,352.87316580000333,352.87316580000333,352.87316580000333,352.87316580000333,352.87316580000333,352.87316580000333,right,0.6652597000065725,353.5573321999982,353.5573321999982,None,,10,001,2025-12-19_11h45.07.930,2025C_exp1_comp,2022.2.4,59.99552433821862,
15.7,45,1,0,1,69,177,19,353.5573321999982,353.5573321999982,354.0578719000041,354.12451140000485,354.1749906000041,354.1749906000041,354.1749906000041,354.1749906000041,354.2247924999974,354.2247924999974,354.2247924999974,354.2247924999974,354.2247924999974,354.2247924999974,354.2247924999974,354.2247924999974,354.2247924999974,left,0.40932219999376684,354.6585619999969,354.6585619999969,None,,10,001,2025-12-19_11h45.07.930,2025C_exp1_comp,2022.2.4,59.99552433821862,
42.7,315,-1,1,1,70,178,53,354.6585619999969,354.6585619999969,355.1592483999848,355.22589979998884,355.2762109999894,355.2762109999894,355.2762109999894,355.2762109999894,355.3259547999769,355.3259547999769,355.3259547999769,355.3259547999769,355.3259547999769,355.3259547999769,355.3259547999769,355.3259547999769,355.3259547999769,left,0.428049700014526,355.7762189999921,355.7762189999921,None,,10,001,2025-12-19_11h45.07.930,2025C_exp1_comp,2022.2.4,59.99552433821862,
12.1,45,-1,1,1,71,179,36,355.7762189999921,355.7762189999921,356.27683859999524,356.3435452999838,356.3938108999864,356.3938108999864,356.3938108999864,356.3938108999864,356.4436830999912,356.4436830999912,356.4436830999912,356.4436830999912,356.4436830999912,356.4436830999912,356.4436830999912,356.4436830999912,356.4436830999912,right,0.6698061999923084,357.14448149999953,357.14448149999953,None,,10,001,2025-12-19_11h45.07.930,2025C_exp1_comp,2022.2.4,59.99552433821862,
12.1,45,-1,0,1,72,180,0,357.14448149999953,357.14448149999953,357.6447801000031,357.7116075999802,357.76191780000227,357.76191780000227,357.76191780000227,357.76191780000227,357.8116083999921,357.8116083999921,357.8116083999921,357.8116083999921,357.8116083999921,357.8116083999921,357.8116083999921,357.8116083999921,357.8116083999921,right,0.5023588000040036,358.3455439999816,358.3455439999816,None,,10,001,2025-12-19_11h45.07.930,2025C_exp1_comp,2022.2.4,59.99552433821862,
25.5,315,-1,1,1,73,181,49,358.3455439999816,358.3455439999816,358.8460878999904,358.9126044999866,358.9628152999794,358.9628152999794,358.9628152999794,358.9628152999794,359.01291550000315,359.01291550000315,359.01291550000315,359.01291550000315,359.01291550000315,359.01291550000315,359.01291550000315,359.01291550000315,359.01291550000315,right,0.47641420000582,359.51340209998307,359.51340209998307,None,,10,001,2025-12-19_11h45.07.930,2025C_exp1_comp,2022.2.4,59.99552433821862,
19.6,45,-1,-1,1,74,182,74,359.51340209998307,359.51340209998307,360.01393049999024,360.0805463999859,360.13096949999453,360.13096949999453,360.13096949999453,360.13096949999453,360.18077819998143,360.18077819998143,360.18077819998143,360.18077819998143,360.18077819998143,360.18077819998143,360.18077819998143,360.18077819998143,360.18077819998143,right,0.38928699999814853,360.5978559999785,360.5978559999785,None,,10,001,2025-12-19_11h45.07.930,2025C_exp1_comp,2022.2.4,59.99552433821862,
12.1,45,1,-1,1,75,183,90,360.5978559999785,360.5978559999785,361.09827210000367,361.1647765999951,361.21533929998986,361.21533929998986,361.21533929998986,361.21533929998986,361.26515920000384,361.26515920000384,361.26515920000384,361.26515920000384,361.26515920000384,361.26515920000384,361.26515920000384,361.26515920000384,361.26515920000384,left,0.3767318000027444,361.66542479998316,361.66542479998316,None,,10,001,2025-12-19_11h45.07.930,2025C_exp1_comp,2022.2.4,59.99552433821862,
35.3,45,1,-1,1,76,184,96,361.66542479998316,361.66542479998316,362.1660789999878,362.2329535000026,362.2832330999954,362.2832330999954,362.2832330999954,362.2832330999954,362.3328690000053,362.3328690000053,362.3328690000053,362.3328690000053,362.3328690000053,362.3328690000053,362.3328690000053,362.3328690000053,362.3328690000053,right,0.6212882999971043,362.9837394999922,362.9837394999922,None,,10,001,2025-12-19_11h45.07.930,2025C_exp1_comp,2022.2.4,59.99552433821862,
15.7,315,-1,0,1,77,185,10,362.9837394999922,362.9837394999922,363.4843120999867,363.550900799979,363.6013189999794,363.6013189999794,363.6013189999794,363.6013189999794,363.6511152999883,363.6511152999883,363.6511152999883,363.6511152999883,363.6511152999883,363.6511152999883,363.6511152999883,363.6511152999883,363.6511152999883,right,0.4394324999884702,364.1180218999798,364.1180218999798,None,,10,001,2025-12-19_11h45.07.930,2025C_exp1_comp,2022.2.4,59.99552433821862,
29.4,315,1,1,1,78,186,68,364.1180218999798,364.1180218999798,364.6185250999988,364.68516949997866,364.73555129999295,364.73555129999295,364.73555129999295,364.73555129999295,364.7853277999966,364.7853277999966,364.7853277999966,364.7853277999966,364.7853277999966,364.7853277999966,364.7853277999966,364.7853277999966,364.7853277999966,right,0.4090356999950018,365.2190733999887,365.2190733999887,None,,10,001,2025-12-19_11h45.07.930,2025C_exp1_comp,2022.2.4,59.99552433821862,
22.7,315,1,0,1,79,187,30,365.2190733999887,365.2190733999887,365.7196888999897,365.786492299987,365.8366747999971,365.8366747999971,365.8366747999971,365.8366747999971,365.88632900000084,365.88632900000084,365.88632900000084,365.88632900000084,365.88632900000084,365.88632900000084,365.88632900000084,365.88632900000084,365.88632900000084,left,0.5478478999866638,366.453509199986,366.453509199986,None,,10,001,2025-12-19_11h45.07.930,2025C_exp1_comp,2022.2.4,59.99552433821862,
29.4,315,-1,-1,1,80,188,86,366.453509199986,366.453509199986,366.95430829998804,367.021053799981,367.07133740000427,367.07133740000427,367.07133740000427,367.07133740000427,367.1210142999771,367.1210142999771,367.1210142999771,367.1210142999771,367.1210142999771,367.1210142999771,367.1210142999771,367.1210142999771,367.1210142999771,right,0.8803650999907404,368.02181459998246,368.02181459998246,None,,10,001,2025-12-19_11h45.07.930,2025C_exp1_comp,2022.2.4,59.99552433821862,
42.7,315,1,-1,1,81,189,107,368.02181459998246,368.02181459998246,368.52259809998213,368.58930550000514,368.63959769997746,368.63959769997746,368.63959769997746,368.63959769997746,368.68923590000486,368.68923590000486,368.68923590000486,368.68923590000486,368.68923590000486,368.68923590000486,368.68923590000486,368.68923590000486,368.68923590000486,right,0.46502679999684915,369.17288109997753,369.17288109997753,None,,10,001,2025-12-19_11h45.07.930,2025C_exp1_comp,2022.2.4,59.99552433821862,
22.7,315,1,-1,1,82,190,102,369.17288109997753,369.17288109997753,369.6735800000024,369.74024819998886,369.79029109998373,369.79029109998373,369.79029109998373,369.79029109998373,369.8403785999981,369.8403785999981,369.8403785999981,369.8403785999981,369.8403785999981,369.8403785999981,369.8403785999981,369.8403785999981,369.8403785999981,right,0.5451198000228032,370.40768919998663,370.40768919998663,None,,10,001,2025-12-19_11h45.07.930,2025C_exp1_comp,2022.2.4,59.99552433821862,
15.7,315,-1,1,1,83,191,46,370.40768919998663,370.40768919998663,370.9081019999867,370.9748173999833,371.025227599981,371.025227599981,371.025227599981,371.025227599981,371.0750207999954,371.0750207999954,371.0750207999954,371.0750207999954,371.0750207999954,371.0750207999954,371.0750207999954,371.0750207999954,371.0750207999954,right,0.4469081000133883,371.54179449999356,371.54179449999356,None,,10,001,2025-12-19_11h45.07.930,2025C_exp1_comp,2022.2.4,59.99552433821862,
35.3,45,-1,-1,1,84,192,78,371.54179449999356,371.54179449999356,372.04257540000253,372.1092898999923,372.1597727999906,372.1597727999906,372.1597727999906,372.1597727999906,372.2094288999797,372.2094288999797,372.2094288999797,372.2094288999797,372.2094288999797,372.2094288999797,372.2094288999797,372.2094288999797,372.2094288999797,right,0.375904000014998,372.60969409998506,372.60969409998506,None,,10,001,2025-12-19_11h45.07.930,2025C_exp1_comp,2022.2.4,59.99552433821862,
15.7,45,-1,0,1,85,193,1,372.60969409998506,372.60969409998506,373.1100034999836,373.1767762999807,373.2270917999849,373.2270917999849,373.2270917999849,373.2270917999849,373.27685359999305,373.27685359999305,373.27685359999305,373.27685359999305,373.27685359999305,373.27685359999305,373.27685359999305,373.27685359999305,373.27685359999305,right,0.4209411999909207,373.7272752999852,373.7272752999852,None,,10,001,2025-12-19_11h45.07.930,2025C_exp1_comp,2022.2.4,59.99552433821862,
15.7,315,1,1,1,86,194,64,373.7272752999852,373.7272752999852,374.22813339999993,374.2948349999788,374.3451631999924,374.3451631999924,374.3451631999924,374.3451631999924,374.3949400999991,374.3949400999991,374.3949400999991,374.3949400999991,374.3949400999991,374.3949400999991,374.3949400999991,374.3949400999991,374.3949400999991,right,0.41533289998187684,374.8286915999779,374.8286915999779,None,,10,001,2025-12-19_11h45.07.930,2025C_exp1_comp,2022.2.4,59.99552433821862,
15.7,45,-1,-1,1,87,195,73,374.8286915999779,374.8286915999779,375.3291142999951,375.39583069999935,375.44611489999807,375.44611489999807,375.44611489999807,375.44611489999807,375.49603099998785,375.49603099998785,375.49603099998785,375.49603099998785,375.49603099998785,375.49603099998785,375.49603099998785,375.49603099998785,375.49603099998785,right,0.6491224000055809,376.1633365000016,376.1633365000016,None,,10,001,2025-12-19_11h45.07.930,2025C_exp1_comp,2022.2.4,59.99552433821862,
19.6,315,1,-1,1,88,196,101,376.1633365000016,376.1633365000016,376.6635538999981,376.7302682999871,376.7805725999933,376.7805725999933,376.7805725999933,376.7805725999933,376.8303605999972,376.8303605999972,376.8303605999972,376.8303605999972,376.8303605999972,376.8303605999972,376.8303605999972,376.8303605999972,376.8303605999972,left,0.9632496999984141,377.81504190000123,377.81504190000123,None,,10,001,2025-12-19_11h45.07.930,2025C_exp1_comp,2022.2.4,59.99552433821862,
35.3,45,1,1,1,89,197,60,377.81504190000123,377.81504190000123,378.31539029997657,378.382220999978,378.432548199984,378.432548199984,378.432548199984,378.432548199984,378.48222049998003,378.48222049998003,378.48222049998003,378.48222049998003,378.48222049998003,378.48222049998003,378.48222049998003,378.48222049998003,378.48222049998003,left,0.6480656999920029,379.1496571000025,379.1496571000025,None,,10,001,2025-12-19_11h45.07.930,2025C_exp1_comp,2022.2.4,59.99552433821862,
19.6,45,1,1,1,90,198,56,379.1496571000025,379.1496571000025,379.6501949999947,379.71689429998514,379.76705789999687,379.76705789999687,379.76705789999687,379.76705789999687,379.81677219999256,379.81677219999256,379.81677219999256,379.81677219999256,379.81677219999256,379.81677219999256,379.81677219999256,379.81677219999256,379.81677219999256,left,0.4813797000097111,380.31764589998056,380.31764589998056,None,,10,001,2025-12-19_11h45.07.930,2025C_exp1_comp,2022.2.4,59.99552433821862,
19.6,45,-1,1,1,91,199,38,380.31764589998056,380.31764589998056,380.81804949999787,380.88474189999397,380.93500879997737,380.93500879997737,380.93500879997737,380.93500879997737,380.9848466999829,380.9848466999829,380.9848466999829,380.9848466999829,380.9848466999829,380.9848466999829,380.9848466999829,380.9848466999829,380.9848466999829,right,0.505175899976166,381.518745999987,381.518745999987,None,,10,001,2025-12-19_11h45.07.930,2025C_exp1_comp,2022.2.4,59.99552433821862,
39.2,45,-1,1,1,92,200,43,381.518745999987,381.518745999987,382.0191198999819,382.0860832000035,382.13627469999483,382.13627469999483,382.13627469999483,382.13627469999483,382.18618709998555,382.18618709998555,382.18618709998555,382.18618709998555,382.18618709998555,382.18618709998555,382.18618709998555,382.18618709998555,382.18618709998555,left,0.6470589000091422,382.85338849999243,382.85338849999243,None,,10,001,2025-12-19_11h45.07.930,2025C_exp1_comp,2022.2.4,59.99552433821862,
42.7,315,1,0,1,93,201,35,382.85338849999243,382.85338849999243,383.35388829998556,383.42059749999316,383.47068539998145,383.47068539998145,383.47068539998145,383.47068539998145,383.52070309998817,383.52070309998817,383.52070309998817,383.52070309998817,383.52070309998817,383.52070309998817,383.52070309998817,383.52070309998817,383.52070309998817,left,0.5605902000097558,384.10483470000327,384.10483470000327,None,,10,001,2025-12-19_11h45.07.930,2025C_exp1_comp,2022.2.4,59.99552433821862,
25.5,315,1,-1,1,94,202,103,384.10483470000327,384.10483470000327,384.6051555000013,384.67188419998274,384.72183880000375,384.72183880000375,384.72183880000375,384.72183880000375,384.7716788999969,384.7716788999969,384.7716788999969,384.7716788999969,384.7716788999969,384.7716788999969,384.7716788999969,384.7716788999969,384.7716788999969,left,0.47800329999881797,385.2725795999868,385.2725795999868,None,,10,001,2025-12-19_11h45.07.930,2025C_exp1_comp,2022.2.4,59.99552433821862,
29.4,315,-1,1,1,95,203,50,385.2725795999868,385.2725795999868,385.7730082999915,385.8397255000018,385.8900154999865,385.8900154999865,385.8900154999865,385.8900154999865,385.9398064999841,385.9398064999841,385.9398064999841,385.9398064999841,385.9398064999841,385.9398064999841,385.9398064999841,385.9398064999841,385.9398064999841,left,0.6055512000166345,386.5736193000048,386.5736193000048,None,,10,001,2025-12-19_11h45.07.930,2025C_exp1_comp,2022.2.4,59.99552433821862,
42.7,45,-1,1,1,96,204,44,386.5736193000048,386.5736193000048,387.0742573000025,387.1410785999906,387.1911851000041,387.1911851000041,387.1911851000041,387.1911851000041,387.24102779998793,387.24102779998793,387.24102779998793,387.24102779998793,387.24102779998793,387.24102779998793,387.24102779998793,387.24102779998793,387.24102779998793,left,1.048175000003539,388.3087814000028,388.3087814000028,None,,10,001,2025-12-19_11h45.07.930,2025C_exp1_comp,2022.2.4,59.99552433821862,
35.3,315,-1,1,1,97,205,51,388.3087814000028,388.3087814000028,388.80937109998195,388.8759779999964,388.9263850999996,388.9263850999996,388.9263850999996,388.9263850999996,388.9761903999897,388.9761903999897,388.9761903999897,388.9761903999897,388.9761903999897,388.9761903999897,388.9761903999897,388.9761903999897,388.9761903999897,left,0.9383734999864828,389.943819099979,389.943819099979,None,,10,001,2025-12-19_11h45.07.930,2025C_exp1_comp,2022.2.4,59.99552433821862,
