contrast,ori,side,precue,trials.thisRepN,trials.thisTrialN,trials.thisN,trials.thisIndex,fix1.started,fix2.started,precue_2.started,precue_2.stopped,left_grating.started,right_grating.started,noise_left2.started,noise_right2.started,fix1.stopped,fix2.stopped,left_grating.stopped,right_grating.stopped,noise_left2.stopped,noise_right2.stopped,key_resp.started,fix1_2.started,fix2_2.started,key_resp.keys,key_resp.rt,key_resp_2.started,break_text_2.started,key_resp_2.keys,key_resp_2.rt,participant,session,date,expName,psychopyVersion,frameRate,
19.6,45,1,1,0,0,0,56,18.207785900012823,18.207785900012823,18.68397539999569,18.750840799999423,18.827882700017653,18.827882700017653,18.827882700017653,18.827882700017653,18.850894300005166,18.850894300005166,18.850894300005166,18.850894300005166,18.850894300005166,18.850894300005166,18.867423499992583,18.867423499992583,18.867423499992583,left,1.3687214000092354,20.252319799998077,20.252319799998077,None,,11,001,2025-12-19_13h55.03.919,2025C_exp1_comp,2022.2.4,59.928038414667434,
19.6,315,-1,1,0,1,1,47,20.252319799998077,20.252319799998077,20.752844500006177,20.81959200001438,20.869885099993553,20.869885099993553,20.869885099993553,20.869885099993553,20.919549900019774,20.919549900019774,20.919549900019774,20.919549900019774,20.919549900019774,20.919549900019774,20.919549900019774,20.919549900019774,20.919549900019774,right,1.5002342999796383,22.43792550000944,22.43792550000944,None,,11,001,2025-12-19_13h55.03.919,2025C_exp1_comp,2022.2.4,59.928038414667434,
19.6,315,1,1,0,2,2,65,22.43792550000944,22.43792550000944,22.938393599994015,23.005107200006023,23.05549830000382,23.05549830000382,23.05549830000382,23.05549830000382,23.105240800010506,23.105240800010506,23.105240800010506,23.105240800010506,23.105240800010506,23.105240800010506,23.105240800010506,23.105240800010506,23.105240800010506,left,0.9070170999912079,24.03947600000538,24.03947600000538,None,,11,001,2025-12-19_13h55.03.919,2025C_exp1_comp,2022.2.4,59.928038414667434,
25.5,315,1,-1,0,3,3,103,24.03947600000538,24.03947600000538,24.539912300009746,24.606724500015844,24.657029199996032,24.657029199996032,24.657029199996032,24.657029199996032,24.70685620000586,24.70685620000586,24.70685620000586,24.70685620000586,24.70685620000586,24.70685620000586,24.70685620000586,24.70685620000586,24.70685620000586,right,4.816216100007296,29.544859200017527,29.544859200017527,None,,11,001,2025-12-19_13h55.03.919,2025C_exp1_comp,2022.2.4,59.928038414667434,
12.1,315,1,1,0,4,4,63,29.544859200017527,29.544859200017527,30.045513999997638,30.112209500017343,30.162536000018008,30.162536000018008,30.162536000018008,30.162536000018008,30.212323700019624,30.212323700019624,30.212323700019624,30.212323700019624,30.212323700019624,30.212323700019624,30.212323700019624,30.212323700019624,30.212323700019624,left,0.5280333000118844,30.76285719999578,30.76285719999578,None,,11,001,2025-12-19_13h55.03.919,2025C_exp1_comp,2022.2.4,59.928038414667434,
12.1,45,-1,0,0,5,5,0,30.76285719999578,30.76285719999578,31.2632605000108,31.32996020000428,31.380412200000137,31.380412200000137,31.380412200000137,31.380412200000137,31.430132300010882,31.430132300010882,31.430132300010882,31.430132300010882,31.430132300010882,31.430132300010882,31.430132300010882,31.430132300010882,31.430132300010882,right,0.8368886999960523,32.29773710001609,32.29773710001609,None,,11,001,2025-12-19_13h55.03.919,2025C_exp1_comp,2022.2.4,59.928038414667434,
19.6,45,-1,1,0,6,6,38,32.29773710001609,32.29773710001609,32.7983205000055,32.865044900012435,32.91532289999304,32.91532289999304,32.91532289999304,32.91532289999304,32.965105700015556,32.965105700015556,32.965105700015556,32.965105700015556,32.965105700015556,32.965105700015556,32.965105700015556,32.965105700015556,32.965105700015556,right,0.5741484000172932,33.56572210000013,33.56572210000013,None,,11,001,2025-12-19_13h55.03.919,2025C_exp1_comp,2022.2.4,59.928038414667434,
39.2,45,1,0,0,7,7,25,33.56572210000013,33.56572210000013,34.066219700005604,34.13277900000685,34.18319589999737,34.18319589999737,34.18319589999737,34.18319589999737,34.23295080001117,34.23295080001117,34.23295080001117,34.23295080001117,34.23295080001117,34.23295080001117,34.23295080001117,34.23295080001117,34.23295080001117,left,0.6116347000061069,34.86697390000336,34.86697390000336,None,,11,001,2025-12-19_13h55.03.919,2025C_exp1_comp,2022.2.4,59.928038414667434,
12.1,315,-1,0,0,8,8,9,34.86697390000336,34.86697390000336,35.36747560001095,35.43418660000316,35.484496899996884,35.484496899996884,35.484496899996884,35.484496899996884,35.53416959999595,35.53416959999595,35.53416959999595,35.53416959999595,35.53416959999595,35.53416959999595,35.53416959999595,35.53416959999595,35.53416959999595,right,0.4215023999859113,35.98459040001035,35.98459040001035,None,,11,001,2025-12-19_13h55.03.919,2025C_exp1_comp,2022.2.4,59.928038414667434,
12.1,45,-1,1,0,9,9,36,35.98459040001035,35.98459040001035,36.4850821,36.55193690001033,36.60225630001514,36.60225630001514,36.60225630001514,36.60225630001514,36.65176780000911,36.65176780000911,36.65176780000911,36.65176780000911,36.65176780000911,36.65176780000911,36.65176780000911,36.65176780000911,36.65176780000911,right,0.4317495000141207,37.10242870001821,37.10242870001821,None,,11,001,2025-12-19_13h55.03.919,2025C_exp1_comp,2022.2.4,59.928038414667434,
22.7,45,1,-1,0,10,10,93,37.10242870001821,37.10242870001821,37.603086000017356,37.669472200010205,37.72004919999745,37.72004919999745,37.72004919999745,37.72004919999745,37.76964400001452,37.76964400001452,37.76964400001452,37.76964400001452,37.76964400001452,37.76964400001452,37.76964400001452,37.76964400001452,37.76964400001452,left,0.42658769999979995,38.2203347000177,38.2203347000177,None,,11,001,2025-12-19_13h55.03.919,2025C_exp1_comp,2022.2.4,59.928038414667434,
35.3,45,-1,-1,0,11,11,78,38.2203347000177,38.2203347000177,38.72059460001765,38.787530600005994,38.83780540002044,38.83780540002044,38.83780540002044,38.83780540002044,38.88762100000167,38.88762100000167,38.88762100000167,38.88762100000167,38.88762100000167,38.88762100000167,38.88762100000167,38.88762100000167,38.88762100000167,right,0.8118118999991566,39.72159349999856,39.72159349999856,None,,11,001,2025-12-19_13h55.03.919,2025C_exp1_comp,2022.2.4,59.928038414667434,
12.1,45,1,-1,0,12,12,90,39.72159349999856,39.72159349999856,40.222301600006176,40.28899180001463,40.339249500015285,40.339249500015285,40.339249500015285,40.339249500015285,40.38909720000811,40.38909720000811,40.38909720000811,40.38909720000811,40.38909720000811,40.38909720000811,40.38909720000811,40.38909720000811,40.38909720000811,left,0.4788072000083048,40.88949030000367,40.88949030000367,None,,11,001,2025-12-19_13h55.03.919,2025C_exp1_comp,2022.2.4,59.928038414667434,
22.7,315,-1,-1,0,13,13,84,40.88949030000367,40.88949030000367,41.39020890000393,41.4568618000194,41.50719030000619,41.50719030000619,41.50719030000619,41.50719030000619,41.55697920001694,41.55697920001694,41.55697920001694,41.55697920001694,41.55697920001694,41.55697920001694,41.55697920001694,41.55697920001694,41.55697920001694,right,0.3984509000147227,41.97409669999615,41.97409669999615,None,,11,001,2025-12-19_13h55.03.919,2025C_exp1_comp,2022.2.4,59.928038414667434,
39.2,315,-1,0,0,14,14,16,41.97409669999615,41.97409669999615,42.474600000015926,42.54120229999535,42.59152390001691,42.59152390001691,42.59152390001691,42.59152390001691,42.64144720000331,42.64144720000331,42.64144720000331,42.64144720000331,42.64144720000331,42.64144720000331,42.64144720000331,42.64144720000331,42.64144720000331,left,1.258236300025601,43.92584090001765,43.92584090001765,None,,11,001,2025-12-19_13h55.03.919,2025C_exp1_comp,2022.2.4,59.928038414667434,
29.4,315,1,-1,0,15,15,104,43.92584090001765,43.92584090001765,44.42657040001359,44.49330370000098,44.54366409999784,44.54366409999784,44.54366409999784,44.54366409999784,44.593309100018814,44.593309100018814,44.593309100018814,44.593309100018814,44.593309100018814,44.593309100018814,44.593309100018814,44.593309100018814,44.593309100018814,right,0.6908508999913465,45.31070329999784,45.31070329999784,None,,11,001,2025-12-19_13h55.03.919,2025C_exp1_comp,2022.2.4,59.928038414667434,
22.7,45,-1,1,0,16,16,39,45.31070329999784,45.31070329999784,45.81088030000683,45.877954199997475,45.92821100002038,45.92821100002038,45.92821100002038,45.92821100002038,45.977911800000584,45.977911800000584,45.977911800000584,45.977911800000584,45.977911800000584,45.977911800000584,45.977911800000584,45.977911800000584,45.977911800000584,right,0.8010941999964416,46.79559170000721,46.79559170000721,None,,11,001,2025-12-19_13h55.03.919,2025C_exp1_comp,2022.2.4,59.928038414667434,
22.7,315,1,0,0,17,17,30,46.79559170000721,46.79559170000721,47.29632069999934,47.3630145000061,47.41330149999703,47.41330149999703,47.41330149999703,47.41330149999703,47.46299590001581,47.46299590001581,47.46299590001581,47.46299590001581,47.46299590001581,47.46299590001581,47.46299590001581,47.46299590001581,47.46299590001581,left,0.5961248000094201,48.08002630001283,48.08002630001283,None,,11,001,2025-12-19_13h55.03.919,2025C_exp1_comp,2022.2.4,59.928038414667434,
29.4,315,-1,1,0,18,18,50,48.08002630001283,48.08002630001283,48.58075870000175,48.64752009999938,48.697800399997504,48.697800399997504,48.697800399997504,48.697800399997504,48.747543800011044,48.747543800011044,48.747543800011044,48.747543800011044,48.747543800011044,48.747543800011044,48.747543800011044,48.747543800011044,48.747543800011044,right,0.40793750001466833,49.18098370000371,49.18098370000371,None,,11,001,2025-12-19_13h55.03.919,2025C_exp1_comp,2022.2.4,59.928038414667434,
12.1,45,1,0,0,19,19,18,49.18098370000371,49.18098370000371,49.68161970001529,49.74847290001344,49.79877779999515,49.79877779999515,49.79877779999515,49.79877779999515,49.84856290000607,49.84856290000607,49.84856290000607,49.84856290000607,49.84856290000607,49.84856290000607,49.84856290000607,49.84856290000607,49.84856290000607,left,0.45203059999039397,50.332351899996866,50.332351899996866,None,,11,001,2025-12-19_13h55.03.919,2025C_exp1_comp,2022.2.4,59.928038414667434,
42.7,315,1,1,0,20,20,71,50.332351899996866,50.332351899996866,50.83277750000707,50.89968329999829,50.94980130001204,50.94980130001204,50.94980130001204,50.94980130001204,50.99974070000462,50.99974070000462,50.99974070000462,50.99974070000462,50.99974070000462,50.99974070000462,50.99974070000462,50.99974070000462,50.99974070000462,right,0.46753529997658916,51.50023730000248,51.50023730000248,None,,11,001,2025-12-19_13h55.03.919,2025C_exp1_comp,2022.2.4,59.928038414667434,
25.5,45,-1,-1,0,21,21,76,51.50023730000248,51.50023730000248,52.00073150001117,52.06747840001481,52.11774280000827,52.11774280000827,52.11774280000827,52.11774280000827,52.167450900014956,52.167450900014956,52.167450900014956,52.167450900014956,52.167450900014956,52.167450900014956,52.167450900014956,52.167450900014956,52.167450900014956,right,0.5402758000127506,52.73467239999445,52.73467239999445,None,,11,001,2025-12-19_13h55.03.919,2025C_exp1_comp,2022.2.4,59.928038414667434,
25.5,315,-1,-1,0,22,22,85,52.73467239999445,52.73467239999445,53.23533029999817,53.30171450000489,53.35227450000821,53.35227450000821,53.35227450000821,53.35227450000821,53.40197910001734,53.40197910001734,53.40197910001734,53.40197910001734,53.40197910001734,53.40197910001734,53.40197910001734,53.40197910001734,53.40197910001734,right,0.3850440999958664,53.819312900013756,53.819312900013756,None,,11,001,2025-12-19_13h55.03.919,2025C_exp1_comp,2022.2.4,59.928038414667434,
42.7,315,-1,-1,0,23,23,89,53.819312900013756,53.819312900013756,54.319783500017365,54.386292800016236,54.43675130000338,54.43675130000338,54.43675130000338,54.43675130000338,54.48652740000398,54.48652740000398,54.48652740000398,54.48652740000398,54.48652740000398,54.48652740000398,54.48652740000398,54.48652740000398,54.48652740000398,right,0.5019995000038762,55.020314399997005,55.020314399997005,None,,11,001,2025-12-19_13h55.03.919,2025C_exp1_comp,2022.2.4,59.928038414667434,
42.7,315,1,-1,0,24,24,107,55.020314399997005,55.020314399997005,55.521034700010205,55.58773339999607,55.63807450002059,55.63807450002059,55.63807450002059,55.63807450002059,55.68789749999996,55.68789749999996,55.68789749999996,55.68789749999996,55.68789749999996,55.68789749999996,55.68789749999996,55.68789749999996,55.68789749999996,right,0.4119624000159092,56.121575099998154,56.121575099998154,None,,11,001,2025-12-19_13h55.03.919,2025C_exp1_comp,2022.2.4,59.928038414667434,
39.2,315,1,-1,0,25,25,106,56.121575099998154,56.121575099998154,56.62177410000004,56.68846210002084,56.738758999999845,56.738758999999845,56.738758999999845,56.738758999999845,56.788552300015,56.788552300015,56.788552300015,56.788552300015,56.788552300015,56.788552300015,56.788552300015,56.788552300015,56.788552300015,right,0.41479229999822564,57.22227580001345,57.22227580001345,None,,11,001,2025-12-19_13h55.03.919,2025C_exp1_comp,2022.2.4,59.928038414667434,
25.5,45,-1,0,0,26,26,4,57.22227580001345,57.22227580001345,57.72301139999763,57.78984280000441,57.840133299992885,57.840133299992885,57.840133299992885,57.840133299992885,57.88992469999357,57.88992469999357,57.88992469999357,57.88992469999357,57.88992469999357,57.88992469999357,57.88992469999357,57.88992469999357,57.88992469999357,right,0.866062699991744,58.7743640000117,58.7743640000117,None,,11,001,2025-12-19_13h55.03.919,2025C_exp1_comp,2022.2.4,59.928038414667434,
15.7,45,-1,1,0,27,27,37,58.7743640000117,58.7743640000117,59.27487029999611,59.341568100004224,59.39185220000218,59.39185220000218,59.39185220000218,59.39185220000218,59.44169730000431,59.44169730000431,59.44169730000431,59.44169730000431,59.44169730000431,59.44169730000431,59.44169730000431,59.44169730000431,59.44169730000431,right,0.481895800010534,59.94195569999283,59.94195569999283,None,,11,001,2025-12-19_13h55.03.919,2025C_exp1_comp,2022.2.4,59.928038414667434,
39.2,315,1,1,0,28,28,70,59.94195569999283,59.94195569999283,60.442361399997026,60.50909340000362,60.559490200015716,60.559490200015716,60.559490200015716,60.559490200015716,60.6091688000015,60.6091688000015,60.6091688000015,60.6091688000015,60.6091688000015,60.6091688000015,60.6091688000015,60.6091688000015,60.6091688000015,right,1.0421689000213519,61.677021600014996,61.677021600014996,None,,11,001,2025-12-19_13h55.03.919,2025C_exp1_comp,2022.2.4,59.928038414667434,
19.6,315,-1,0,0,29,29,11,61.677021600014996,61.677021600014996,62.17775350000011,62.244099500006996,62.294586400006665,62.294586400006665,62.294586400006665,62.294586400006665,62.344386200013105,62.344386200013105,62.344386200013105,62.344386200013105,62.344386200013105,62.344386200013105,62.344386200013105,62.344386200013105,62.344386200013105,right,0.754713600006653,63.128513700008625,63.128513700008625,None,,11,001,2025-12-19_13h55.03.919,2025C_exp1_comp,2022.2.4,59.928038414667434,
25.5,315,-1,1,0,30,30,49,63.128513700008625,63.128513700008625,63.629008899995824,63.695455800014315,63.74578309999197,63.74578309999197,63.74578309999197,63.74578309999197,63.796015500003705,63.796015500003705,63.796015500003705,63.796015500003705,63.796015500003705,63.796015500003705,63.796015500003705,63.796015500003705,63.796015500003705,right,1.312272999988636,65.13054220000049,65.13054220000049,None,,11,001,2025-12-19_13h55.03.919,2025C_exp1_comp,2022.2.4,59.928038414667434,
35.3,315,-1,1,0,31,31,51,65.13054220000049,65.13054220000049,65.63101559999632,65.69766629999503,65.74798179999925,65.74798179999925,65.74798179999925,65.74798179999925,65.79752459999872,65.79752459999872,65.79752459999872,65.79752459999872,65.79752459999872,65.79752459999872,65.79752459999872,65.79752459999872,65.79752459999872,right,1.2373964000144042,67.0655451999919,67.0655451999919,None,,11,001,2025-12-19_13h55.03.919,2025C_exp1_comp,2022.2.4,59.928038414667434,
35.3,45,1,1,0,32,32,60,67.0655451999919,67.0655451999919,67.56639379999251,67.63308810000308,67.68326540000271,67.68326540000271,67.68326540000271,67.68326540000271,67.73317880000104,67.73317880000104,67.73317880000104,67.73317880000104,67.73317880000104,67.73317880000104,67.73317880000104,67.73317880000104,67.73317880000104,right,1.590598000009777,69.35140169999795,69.35140169999795,None,,11,001,2025-12-19_13h55.03.919,2025C_exp1_comp,2022.2.4,59.928038414667434,
35.3,45,1,-1,0,33,33,96,69.35140169999795,69.35140169999795,69.85202250001021,69.91875670000445,69.96881890000077,69.96881890000077,69.96881890000077,69.96881890000077,70.01861530001042,70.01861530001042,70.01861530001042,70.01861530001042,70.01861530001042,70.01861530001042,70.01861530001042,70.01861530001042,70.01861530001042,right,2.1692585999844596,72.20413980001467,72.20413980001467,None,,11,001,2025-12-19_13h55.03.919,2025C_exp1_comp,2022.2.4,59.928038414667434,
29.4,315,-1,-1,0,34,34,86,72.20413980001467,72.20413980001467,72.70462080001016,72.77133089999552,72.82177219999721,72.82177219999721,72.82177219999721,72.82177219999721,72.87143430000287,72.87143430000287,72.87143430000287,72.87143430000287,72.87143430000287,72.87143430000287,72.87143430000287,72.87143430000287,72.87143430000287,right,1.0999006000056397,73.98935260000871,73.98935260000871,None,,11,001,2025-12-19_13h55.03.919,2025C_exp1_comp,2022.2.4,59.928038414667434,
15.7,315,1,-1,0,35,35,100,73.98935260000871,73.98935260000871,74.48988579999423,74.55656590001308,74.60688330000266,74.60688330000266,74.60688330000266,74.60688330000266,74.65670859999955,74.65670859999955,74.65670859999955,74.65670859999955,74.65670859999955,74.65670859999955,74.65670859999955,74.65670859999955,74.65670859999955,left,0.6584044999908656,75.34056480001891,75.34056480001891,None,,11,001,2025-12-19_13h55.03.919,2025C_exp1_comp,2022.2.4,59.928038414667434,
39.2,45,-1,1,0,36,36,43,75.34056480001891,75.34056480001891,75.84123069999623,75.90787450000062,75.95801249999204,75.95801249999204,75.95801249999204,75.95801249999204,76.00794330000645,76.00794330000645,76.00794330000645,76.00794330000645,76.00794330000645,76.00794330000645,76.00794330000645,76.00794330000645,76.00794330000645,left,0.899107900011586,76.92561969999224,76.92561969999224,None,,11,001,2025-12-19_13h55.03.919,2025C_exp1_comp,2022.2.4,59.928038414667434,
39.2,45,1,-1,0,37,37,97,76.92561969999224,76.92561969999224,77.42631559999427,77.4929095999978,77.54326609999407,77.54326609999407,77.54326609999407,77.54326609999407,77.59298020001734,77.59298020001734,77.59298020001734,77.59298020001734,77.59298020001734,77.59298020001734,77.59298020001734,77.59298020001734,77.59298020001734,right,0.9869916000170633,78.61065040001995,78.61065040001995,None,,11,001,2025-12-19_13h55.03.919,2025C_exp1_comp,2022.2.4,59.928038414667434,
39.2,45,-1,-1,0,38,38,79,78.61065040001995,78.61065040001995,79.11117049999302,79.17789930000436,79.22817449999275,79.22817449999275,79.22817449999275,79.22817449999275,79.27798489999259,79.27798489999259,79.27798489999259,79.27798489999259,79.27798489999259,79.27798489999259,79.27798489999259,79.27798489999259,79.27798489999259,right,1.2140656000119634,80.51254039999912,80.51254039999912,None,,11,001,2025-12-19_13h55.03.919,2025C_exp1_comp,2022.2.4,59.928038414667434,
42.7,45,1,0,0,39,39,26,80.51254039999912,80.51254039999912,81.01313920001849,81.07999410000048,81.13030970000545,81.13030970000545,81.13030970000545,81.13030970000545,81.17997940001078,81.17997940001078,81.17997940001078,81.17997940001078,81.17997940001078,81.17997940001078,81.17997940001078,81.17997940001078,81.17997940001078,right,1.3513054999930318,82.55614100000821,82.55614100000821,None,,11,001,2025-12-19_13h55.03.919,2025C_exp1_comp,2022.2.4,59.928038414667434,
35.3,45,-1,1,0,40,40,42,82.55614100000821,82.55614100000821,83.04858299999614,83.11512040000525,83.16548389999662,83.16548389999662,83.16548389999662,83.16548389999662,83.21514290000778,83.21514290000778,83.21514290000778,83.21514290000778,83.21514290000778,83.21514290000778,83.23179320001509,83.23179320001509,83.23179320001509,left,0.651650800020434,83.9159243000031,83.9159243000031,None,,11,001,2025-12-19_13h55.03.919,2025C_exp1_comp,2022.2.4,59.928038414667434,
19.6,45,-1,0,0,41,41,2,83.9159243000031,83.9159243000031,84.41636450000806,84.4833612999937,84.53353710001102,84.53353710001102,84.53353710001102,84.53353710001102,84.58327530001407,84.58327530001407,84.58327530001407,84.58327530001407,84.58327530001407,84.58327530001407,84.58327530001407,84.58327530001407,84.58327530001407,right,0.8758365999965463,85.48410500001046,85.48410500001046,None,,11,001,2025-12-19_13h55.03.919,2025C_exp1_comp,2022.2.4,59.928038414667434,
15.7,45,-1,0,0,42,42,1,85.48410500001046,85.48410500001046,85.98483359999955,86.0515507000091,86.1016690999968,86.1016690999968,86.1016690999968,86.1016690999968,86.15154720001738,86.15154720001738,86.15154720001738,86.15154720001738,86.15154720001738,86.15154720001738,86.15154720001738,86.15154720001738,86.15154720001738,right,0.5154381000029389,86.68507750000572,86.68507750000572,None,,11,001,2025-12-19_13h55.03.919,2025C_exp1_comp,2022.2.4,59.928038414667434,
35.3,315,1,0,0,43,43,33,86.68507750000572,86.68507750000572,87.18578890000936,87.2524345999991,87.3026164000039,87.3026164000039,87.3026164000039,87.3026164000039,87.35236180000356,87.35236180000356,87.35236180000356,87.35236180000356,87.35236180000356,87.35236180000356,87.35236180000356,87.35236180000356,87.35236180000356,left,0.666519899998093,88.03663859999506,88.03663859999506,None,,11,001,2025-12-19_13h55.03.919,2025C_exp1_comp,2022.2.4,59.928038414667434,
29.4,45,-1,-1,0,44,44,77,88.03663859999506,88.03663859999506,88.53705879999325,88.60404770000605,88.65403390000574,88.65403390000574,88.65403390000574,88.65403390000574,88.70372660001158,88.70372660001158,88.70372660001158,88.70372660001158,88.70372660001158,88.70372660001158,88.70372660001158,88.70372660001158,88.70372660001158,right,0.5484622999792919,89.27138950000517,89.27138950000517,None,,11,001,2025-12-19_13h55.03.919,2025C_exp1_comp,2022.2.4,59.928038414667434,
12.1,315,-1,1,0,45,45,45,89.27138950000517,89.27138950000517,89.77176610002061,89.83856570001808,89.88892339999438,89.88892339999438,89.88892339999438,89.88892339999438,89.93863260000944,89.93863260000944,89.93863260000944,89.93863260000944,89.93863260000944,89.93863260000944,89.93863260000944,89.93863260000944,89.93863260000944,right,0.4736902999866288,90.43909810000332,90.43909810000332,None,,11,001,2025-12-19_13h55.03.919,2025C_exp1_comp,2022.2.4,59.928038414667434,
29.4,315,1,0,0,46,46,32,90.43909810000332,90.43909810000332,90.93974060000619,91.00644920000923,91.05676649999805,91.05676649999805,91.05676649999805,91.05676649999805,91.10655830000178,91.10655830000178,91.10655830000178,91.10655830000178,91.10655830000178,91.10655830000178,91.10655830000178,91.10655830000178,91.10655830000178,left,0.8333421999996062,91.95742230000906,91.95742230000906,None,,11,001,2025-12-19_13h55.03.919,2025C_exp1_comp,2022.2.4,59.928038414667434,
25.5,45,1,0,0,47,47,22,91.95742230000906,91.95742230000906,92.45777780000935,92.52454030001536,92.57493550001527,92.57493550001527,92.57493550001527,92.57493550001527,92.62468110001646,92.62468110001646,92.62468110001646,92.62468110001646,92.62468110001646,92.62468110001646,92.62468110001646,92.62468110001646,92.62468110001646,left,0.49955720000434667,93.1418757000065,93.1418757000065,None,,11,001,2025-12-19_13h55.03.919,2025C_exp1_comp,2022.2.4,59.928038414667434,
22.7,45,1,0,0,48,48,21,93.1418757000065,93.1418757000065,93.64233040000545,93.70895309999469,93.75938870001119,93.75938870001119,93.75938870001119,93.75938870001119,93.80903760000365,93.80903760000365,93.80903760000365,93.80903760000365,93.80903760000365,93.80903760000365,93.80903760000365,93.80903760000365,93.80903760000365,left,0.45051100000273436,94.27627180001582,94.27627180001582,None,,11,001,2025-12-19_13h55.03.919,2025C_exp1_comp,2022.2.4,59.928038414667434,
29.4,315,1,1,0,49,49,68,94.27627180001582,94.27627180001582,94.77648940001382,94.84375780000119,94.89405190001708,94.89405190001708,94.89405190001708,94.89405190001708,94.94395620000432,94.94395620000432,94.94395620000432,94.94395620000432,94.94395620000432,94.94395620000432,94.94395620000432,94.94395620000432,94.94395620000432,left,0.5472557000175584,95.51091169999563,95.51091169999563,None,,11,001,2025-12-19_13h55.03.919,2025C_exp1_comp,2022.2.4,59.928038414667434,
39.2,45,-1,0,0,50,50,7,95.51091169999563,95.51091169999563,96.01143589999992,96.07797850001953,96.12806469999487,96.12806469999487,96.12806469999487,96.12806469999487,96.17819609999424,96.17819609999424,96.17819609999424,96.17819609999424,96.17819609999424,96.17819609999424,96.17819609999424,96.17819609999424,96.17819609999424,left,0.5937330999877304,96.7951568000135,96.7951568000135,None,,11,001,2025-12-19_13h55.03.919,2025C_exp1_comp,2022.2.4,59.928038414667434,
15.7,315,-1,1,0,51,51,46,96.7951568000135,96.7951568000135,97.29584120001527,97.3630250999995,97.413139900018,97.413139900018,97.413139900018,97.413139900018,97.4630332000088,97.4630332000088,97.4630332000088,97.4630332000088,97.4630332000088,97.4630332000088,97.4630332000088,97.4630332000088,97.4630332000088,right,0.4444044000119902,97.9301087000058,97.9301087000058,None,,11,001,2025-12-19_13h55.03.919,2025C_exp1_comp,2022.2.4,59.928038414667434,
22.7,45,-1,-1,0,52,52,75,97.9301087000058,97.9301087000058,98.43046040000627,98.49716260001878,98.54745310000726,98.54745310000726,98.54745310000726,98.54745310000726,98.59725880000042,98.59725880000042,98.59725880000042,98.59725880000042,98.59725880000042,98.59725880000042,98.59725880000042,98.59725880000042,98.59725880000042,right,0.44708060001721606,99.06461140001193,99.06461140001193,None,,11,001,2025-12-19_13h55.03.919,2025C_exp1_comp,2022.2.4,59.928038414667434,
39.2,315,-1,-1,0,53,53,88,99.06461140001193,99.06461140001193,99.56466540001566,99.63176220000605,99.68210190001992,99.68210190001992,99.68210190001992,99.68210190001992,99.73186880000867,99.73186880000867,99.73186880000867,99.73186880000867,99.73186880000867,99.73186880000867,99.73186880000867,99.73186880000867,99.73186880000867,right,0.6395969000004698,100.39901890000328,100.39901890000328,None,,11,001,2025-12-19_13h55.03.919,2025C_exp1_comp,2022.2.4,59.928038414667434,
15.7,315,-1,0,0,54,54,10,100.39901890000328,100.39901890000328,100.8995891000086,100.96603660000255,101.01657850001357,101.01657850001357,101.01657850001357,101.01657850001357,101.06637430001865,101.06637430001865,101.06637430001865,101.06637430001865,101.06637430001865,101.06637430001865,101.06637430001865,101.06637430001865,101.06637430001865,right,0.40113000001292676,101.48377640001127,101.48377640001127,None,,11,001,2025-12-19_13h55.03.919,2025C_exp1_comp,2022.2.4,59.928038414667434,
39.2,45,1,1,0,55,55,61,101.48377640001127,101.48377640001127,101.98400029999902,102.05074080001214,102.10102950001601,102.10102950001601,102.10102950001601,102.10102950001601,102.1507011000067,102.1507011000067,102.1507011000067,102.1507011000067,102.1507011000067,102.1507011000067,102.1507011000067,102.1507011000067,102.1507011000067,right,0.4132726000098046,102.58448610000778,102.58448610000778,None,,11,001,2025-12-19_13h55.03.919,2025C_exp1_comp,2022.2.4,59.928038414667434,
35.3,45,1,0,0,56,56,24,102.58448610000778,102.58448610000778,103.08491110001341,103.1516144000052,103.20202680001967,103.20202680001967,103.20202680001967,103.20202680001967,103.2517865000118,103.2517865000118,103.2517865000118,103.2517865000118,103.2517865000118,103.2517865000118,103.2517865000118,103.2517865000118,103.2517865000118,left,0.6316143999865744,103.90256200000294,103.90256200000294,None,,11,001,2025-12-19_13h55.03.919,2025C_exp1_comp,2022.2.4,59.928038414667434,
22.7,315,1,1,0,57,57,66,103.90256200000294,103.90256200000294,104.40307030000258,104.46978939999826,104.52009259999613,104.52009259999613,104.52009259999613,104.52009259999613,104.56978710001567,104.56978710001567,104.56978710001567,104.56978710001567,104.56978710001567,104.56978710001567,104.56978710001567,104.56978710001567,104.56978710001567,left,0.44244349998189136,105.0369975999929,105.0369975999929,None,,11,001,2025-12-19_13h55.03.919,2025C_exp1_comp,2022.2.4,59.928038414667434,
19.6,315,1,-1,0,58,58,101,105.0369975999929,105.0369975999929,105.53767920000246,105.60457039999892,105.65472720001708,105.65472720001708,105.65472720001708,105.65472720001708,105.7045352999994,105.7045352999994,105.7045352999994,105.7045352999994,105.7045352999994,105.7045352999994,105.7045352999994,105.7045352999994,105.7045352999994,left,0.4982063999923412,106.22130340000149,106.22130340000149,None,,11,001,2025-12-19_13h55.03.919,2025C_exp1_comp,2022.2.4,59.928038414667434,
25.5,45,-1,1,0,59,59,40,106.22130340000149,106.22130340000149,106.72201810000115,106.78877690000809,106.83908940001857,106.83908940001857,106.83908940001857,106.83908940001857,106.88870790001238,106.88870790001238,106.88870790001238,106.88870790001238,106.88870790001238,106.88870790001238,106.88870790001238,106.88870790001238,106.88870790001238,right,0.38656490002176724,107.30566870002076,107.30566870002076,None,,11,001,2025-12-19_13h55.03.919,2025C_exp1_comp,2022.2.4,59.928038414667434,
42.7,45,-1,0,0,60,60,8,107.30566870002076,107.30566870002076,107.80640850000782,107.87320390000241,107.9235156000068,107.9235156000068,107.9235156000068,107.9235156000068,107.9731670000183,107.9731670000183,107.9731670000183,107.9731670000183,107.9731670000183,107.9731670000183,107.9731670000183,107.9731670000183,107.9731670000183,left,0.4309608999756165,108.42375290000928,108.42375290000928,None,,11,001,2025-12-19_13h55.03.919,2025C_exp1_comp,2022.2.4,59.928038414667434,
25.5,315,1,0,0,61,61,31,108.42375290000928,108.42375290000928,108.92427449999377,108.99097970000003,109.04098340001656,109.04098340001656,109.04098340001656,109.04098340001656,109.0909793000028,109.0909793000028,109.0909793000028,109.0909793000028,109.0909793000028,109.0909793000028,109.0909793000028,109.0909793000028,109.0909793000028,left,0.5690172000031453,109.69168429999263,109.69168429999263,None,,11,001,2025-12-19_13h55.03.919,2025C_exp1_comp,2022.2.4,59.928038414667434,
15.7,315,1,1,0,62,62,64,109.69168429999263,109.69168429999263,110.19224609999219,110.25897220001207,110.30924669999513,110.30924669999513,110.30924669999513,110.30924669999513,110.3589300000167,110.3589300000167,110.3589300000167,110.3589300000167,110.3589300000167,110.3589300000167,110.3589300000167,110.3589300000167,110.3589300000167,left,0.4209582000039518,110.80953779999982,110.80953779999982,None,,11,001,2025-12-19_13h55.03.919,2025C_exp1_comp,2022.2.4,59.928038414667434,
42.7,315,-1,1,0,63,63,53,110.80953779999982,110.80953779999982,111.31000520000816,111.3767754000146,111.4270414999919,111.4270414999919,111.4270414999919,111.4270414999919,111.4765250000055,111.4765250000055,111.4765250000055,111.4765250000055,111.4765250000055,111.4765250000055,111.4765250000055,111.4765250000055,111.4765250000055,left,0.6234269000124186,112.12736169999698,112.12736169999698,None,,11,001,2025-12-19_13h55.03.919,2025C_exp1_comp,2022.2.4,59.928038414667434,
29.4,45,-1,0,0,64,64,5,112.12736169999698,112.12736169999698,112.62793260000763,112.69453060001251,112.74497299999348,112.74497299999348,112.74497299999348,112.74497299999348,112.79477920001955,112.79477920001955,112.79477920001955,112.79477920001955,112.79477920001955,112.79477920001955,112.79477920001955,112.79477920001955,112.79477920001955,right,0.4493193000089377,113.26175269999658,113.26175269999658,None,,11,001,2025-12-19_13h55.03.919,2025C_exp1_comp,2022.2.4,59.928038414667434,
25.5,45,1,-1,0,65,65,94,113.26175269999658,113.26175269999658,113.76241160000791,113.82913570001256,113.87947250000434,113.87947250000434,113.87947250000434,113.87947250000434,113.92917109999689,113.92917109999689,113.92917109999689,113.92917109999689,113.92917109999689,113.92917109999689,113.92917109999689,113.92917109999689,113.92917109999689,left,0.42680890002520755,114.37974639999447,114.37974639999447,None,,11,001,2025-12-19_13h55.03.919,2025C_exp1_comp,2022.2.4,59.928038414667434,
19.6,315,1,0,0,66,66,29,114.37974639999447,114.37974639999447,114.88025980000384,114.94699700002093,114.99722039999324,114.99722039999324,114.99722039999324,114.99722039999324,115.04707910001162,115.04707910001162,115.04707910001162,115.04707910001162,115.04707910001162,115.04707910001162,115.04707910001162,115.04707910001162,115.04707910001162,left,0.46776240001781844,115.54742139999871,115.54742139999871,None,,11,001,2025-12-19_13h55.03.919,2025C_exp1_comp,2022.2.4,59.928038414667434,
35.3,315,1,1,0,67,67,69,115.54742139999871,115.54742139999871,116.04807809999329,116.11480239999946,116.16503880001255,116.16503880001255,116.16503880001255,116.16503880001255,116.21488280000631,116.21488280000631,116.21488280000631,116.21488280000631,116.21488280000631,116.21488280000631,116.21488280000631,116.21488280000631,116.21488280000631,right,0.3407856999838259,116.58167580000008,116.58167580000008,None,,11,001,2025-12-19_13h55.03.919,2025C_exp1_comp,2022.2.4,59.928038414667434,
15.7,315,-1,-1,0,68,68,82,116.58167580000008,116.58167580000008,117.08224449999398,117.1489366000169,117.19970460000332,117.19970460000332,117.19970460000332,117.19970460000332,117.2491219000076,117.2491219000076,117.2491219000076,117.2491219000076,117.2491219000076,117.2491219000076,117.2491219000076,117.2491219000076,117.2491219000076,right,0.4182356999954209,117.69941200001631,117.69941200001631,None,,11,001,2025-12-19_13h55.03.919,2025C_exp1_comp,2022.2.4,59.928038414667434,
29.4,45,1,1,0,69,69,59,117.69941200001631,117.69941200001631,118.19997079999303,118.26659360001213,118.31689380001626,118.31689380001626,118.31689380001626,118.31689380001626,118.36674270001822,118.36674270001822,118.36674270001822,118.36674270001822,118.36674270001822,118.36674270001822,118.36674270001822,118.36674270001822,118.36674270001822,left,0.5165868000185583,118.90056400001049,118.90056400001049,None,,11,001,2025-12-19_13h55.03.919,2025C_exp1_comp,2022.2.4,59.928038414667434,
15.7,45,1,0,0,70,70,19,118.90056400001049,118.90056400001049,119.40132080001058,119.46780549999676,119.51809980001417,119.51809980001417,119.51809980001417,119.51809980001417,119.56797239999287,119.56797239999287,119.56797239999287,119.56797239999287,119.56797239999287,119.56797239999287,119.56797239999287,119.56797239999287,119.56797239999287,left,0.4589437000104226,120.05174460000126,120.05174460000126,None,,11,001,2025-12-19_13h55.03.919,2025C_exp1_comp,2022.2.4,59.928038414667434,
15.7,45,1,-1,0,71,71,91,120.05174460000126,120.05174460000126,120.55223060000571,120.61892840001383,120.6692810000095,120.6692810000095,120.6692810000095,120.6692810000095,120.71906190001755,120.71906190001755,120.71906190001755,120.71906190001755,120.71906190001755,120.71906190001755,120.71906190001755,120.71906190001755,120.71906190001755,left,0.4357579000061378,121.18626810002024,121.18626810002024,None,,11,001,2025-12-19_13h55.03.919,2025C_exp1_comp,2022.2.4,59.928038414667434,
22.7,315,-1,0,0,72,72,12,121.18626810002024,121.18626810002024,121.68668390001403,121.75353069999255,121.8040050000127,121.8040050000127,121.8040050000127,121.8040050000127,121.8535622000054,121.8535622000054,121.8535622000054,121.8535622000054,121.8535622000054,121.8535622000054,121.8535622000054,121.8535622000054,121.8535622000054,right,0.3656806999933906,122.2372597999929,122.2372597999929,None,,11,001,2025-12-19_13h55.03.919,2025C_exp1_comp,2022.2.4,59.928038414667434,
35.3,315,1,-1,0,73,73,105,122.2372597999929,122.2372597999929,122.73779840001953,122.80446690000826,122.85476730001392,122.85476730001392,122.85476730001392,122.85476730001392,122.90490059999865,122.90490059999865,122.90490059999865,122.90490059999865,122.90490059999865,122.90490059999865,122.90490059999865,122.90490059999865,122.90490059999865,right,0.6900943000218831,123.62196780001977,123.62196780001977,None,,11,001,2025-12-19_13h55.03.919,2025C_exp1_comp,2022.2.4,59.928038414667434,
42.7,45,1,-1,0,74,74,98,123.62196780001977,123.62196780001977,124.12249929999234,124.18936390001909,124.23965210001916,124.23965210001916,124.23965210001916,124.23965210001916,124.28927850001492,124.28927850001492,124.28927850001492,124.28927850001492,124.28927850001492,124.28927850001492,124.28927850001492,124.28927850001492,124.28927850001492,right,0.4576855000050273,124.77315920000547,124.77315920000547,None,,11,001,2025-12-19_13h55.03.919,2025C_exp1_comp,2022.2.4,59.928038414667434,
42.7,45,-1,1,0,75,75,44,124.77315920000547,124.77315920000547,125.27377570001408,125.34034270001575,125.39074540001457,125.39074540001457,125.39074540001457,125.39074540001457,125.44050349999452,125.44050349999452,125.44050349999452,125.44050349999452,125.44050349999452,125.44050349999452,125.44050349999452,125.44050349999452,125.44050349999452,left,0.45844110002508387,125.9244933000009,125.9244933000009,None,,11,001,2025-12-19_13h55.03.919,2025C_exp1_comp,2022.2.4,59.928038414667434,
35.3,45,-1,0,0,76,76,6,125.9244933000009,125.9244933000009,126.42474760001642,126.49156439999933,126.54193619999569,126.54193619999569,126.54193619999569,126.54193619999569,126.59166020000703,126.59166020000703,126.59166020000703,126.59166020000703,126.59166020000703,126.59166020000703,126.59166020000703,126.59166020000703,126.59166020000703,right,1.867743100010557,128.47678210001322,128.47678210001322,None,,11,001,2025-12-19_13h55.03.919,2025C_exp1_comp,2022.2.4,59.928038414667434,
15.7,315,1,0,0,77,77,28,128.47678210001322,128.47678210001322,128.9773022000154,129.04420249999384,129.09436410001945,129.09436410001945,129.09436410001945,129.09436410001945,129.14414350001607,129.14414350001607,129.14414350001607,129.14414350001607,129.14414350001607,129.14414350001607,129.14414350001607,129.14414350001607,129.14414350001607,left,0.45094730000710115,129.61135419999482,129.61135419999482,None,,11,001,2025-12-19_13h55.03.919,2025C_exp1_comp,2022.2.4,59.928038414667434,
42.7,45,1,1,0,78,78,62,129.61135419999482,129.61135419999482,130.11182340001687,130.1787578999938,130.2291371000174,130.2291371000174,130.2291371000174,130.2291371000174,130.27856010000687,130.27856010000687,130.27856010000687,130.27856010000687,130.27856010000687,130.27856010000687,130.27856010000687,130.27856010000687,130.27856010000687,right,0.3884041999990586,130.6957567000063,130.6957567000063,None,,11,001,2025-12-19_13h55.03.919,2025C_exp1_comp,2022.2.4,59.928038414667434,
29.4,45,1,0,0,79,79,23,130.6957567000063,130.6957567000063,131.19651750000776,131.26301359999343,131.31327420001617,131.31327420001617,131.31327420001617,131.31327420001617,131.3634141999937,131.3634141999937,131.3634141999937,131.3634141999937,131.3634141999937,131.3634141999937,131.3634141999937,131.3634141999937,131.3634141999937,left,0.43226500001037493,131.81349590001628,131.81349590001628,None,,11,001,2025-12-19_13h55.03.919,2025C_exp1_comp,2022.2.4,59.928038414667434,
22.7,315,-1,1,0,80,80,48,131.81349590001628,131.81349590001628,132.3140854999947,132.38069109999924,132.4311312000209,132.4311312000209,132.4311312000209,132.4311312000209,132.48080910000135,132.48080910000135,132.48080910000135,132.48080910000135,132.48080910000135,132.48080910000135,132.48080910000135,132.48080910000135,132.48080910000135,right,0.35489980000420474,132.86449480001465,132.86449480001465,None,,11,001,2025-12-19_13h55.03.919,2025C_exp1_comp,2022.2.4,59.928038414667434,
22.7,45,1,1,0,81,81,57,132.86449480001465,132.86449480001465,133.36590820000856,133.4317360999994,133.48203230000217,133.48203230000217,133.48203230000217,133.48203230000217,133.53192290000152,133.53192290000152,133.53192290000152,133.53192290000152,133.53192290000152,133.53192290000152,133.53192290000152,133.53192290000152,133.53192290000152,left,0.6470173999841791,134.19916839999496,134.19916839999496,None,,11,001,2025-12-19_13h55.03.919,2025C_exp1_comp,2022.2.4,59.928038414667434,
42.7,45,-1,-1,0,82,82,80,134.19916839999496,134.19916839999496,134.69980100000976,134.76661089999834,134.81691950000823,134.81691950000823,134.81691950000823,134.81691950000823,134.86661480000475,134.86661480000475,134.86661480000475,134.86661480000475,134.86661480000475,134.86661480000475,134.86661480000475,134.86661480000475,134.86661480000475,left,0.5443546999886166,135.43376149999676,135.43376149999676,None,,11,001,2025-12-19_13h55.03.919,2025C_exp1_comp,2022.2.4,59.928038414667434,
12.1,315,1,0,0,83,83,27,135.43376149999676,135.43376149999676,135.93436610000208,136.00107040000148,136.05138260000967,136.05138260000967,136.05138260000967,136.05138260000967,136.10122080001747,136.10122080001747,136.10122080001747,136.10122080001747,136.10122080001747,136.10122080001747,136.10122080001747,136.10122080001747,136.10122080001747,left,0.4463568000064697,136.56828259999747,136.56828259999747,None,,11,001,2025-12-19_13h55.03.919,2025C_exp1_comp,2022.2.4,59.928038414667434,
19.6,45,1,-1,0,84,84,92,136.56828259999747,136.56828259999747,137.06890589999966,137.13543379999464,137.1858227000048,137.1858227000048,137.1858227000048,137.1858227000048,137.23561010000412,137.23561010000412,137.23561010000412,137.23561010000412,137.23561010000412,137.23561010000412,137.23561010000412,137.23561010000412,137.23561010000412,left,0.41538939997553825,137.6693087000167,137.6693087000167,None,,11,001,2025-12-19_13h55.03.919,2025C_exp1_comp,2022.2.4,59.928038414667434,
42.7,315,-1,0,0,85,85,17,137.6693087000167,137.6693087000167,138.16986490000272,138.23708399999305,138.2869430000137,138.2869430000137,138.2869430000137,138.2869430000137,138.33663130001514,138.33663130001514,138.33663130001514,138.33663130001514,138.33663130001514,138.33663130001514,138.33663130001514,138.33663130001514,138.33663130001514,left,0.506405000021914,138.8711067000113,138.8711067000113,None,,11,001,2025-12-19_13h55.03.919,2025C_exp1_comp,2022.2.4,59.928038414667434,
12.1,45,1,1,0,86,86,54,138.8711067000113,138.8711067000113,139.37103120001848,139.43777250000858,139.48804670001846,139.48804670001846,139.48804670001846,139.48804670001846,139.5378311999957,139.5378311999957,139.5378311999957,139.5378311999957,139.5378311999957,139.5378311999957,139.5378311999957,139.5378311999957,139.5378311999957,left,0.4336860000039451,139.98832210002,139.98832210002,None,,11,001,2025-12-19_13h55.03.919,2025C_exp1_comp,2022.2.4,59.928038414667434,
39.2,315,1,0,0,87,87,34,139.98832210002,139.98832210002,140.48883950000163,140.55570130000706,140.60587040000246,140.60587040000246,140.60587040000246,140.60587040000246,140.6556560000172,140.6556560000172,140.6556560000172,140.6556560000172,140.6556560000172,140.6556560000172,140.6556560000172,140.6556560000172,140.6556560000172,right,0.5638976000191178,141.2396321000124,141.2396321000124,None,,11,001,2025-12-19_13h55.03.919,2025C_exp1_comp,2022.2.4,59.928038414667434,
19.6,45,-1,-1,0,88,88,74,141.2396321000124,141.2396321000124,141.74002050000126,141.80683889999636,141.85715500000515,141.85715500000515,141.85715500000515,141.85715500000515,141.90699730001506,141.90699730001506,141.90699730001506,141.90699730001506,141.90699730001506,141.90699730001506,141.90699730001506,141.90699730001506,141.90699730001506,right,0.464187600009609,142.39068080001744,142.39068080001744,None,,11,001,2025-12-19_13h55.03.919,2025C_exp1_comp,2022.2.4,59.928038414667434,
39.2,315,-1,1,0,89,89,52,142.39068080001744,142.39068080001744,142.89131649999763,142.95807190000778,143.00842019999982,143.00842019999982,143.00842019999982,143.00842019999982,143.05813900000066,143.05813900000066,143.05813900000066,143.05813900000066,143.05813900000066,143.05813900000066,143.05813900000066,143.05813900000066,143.05813900000066,right,0.49710619999677874,143.57519140001386,143.57519140001386,None,,11,001,2025-12-19_13h55.03.919,2025C_exp1_comp,2022.2.4,59.928038414667434,
35.3,315,-1,-1,0,90,90,87,143.57519140001386,143.57519140001386,144.07568750000792,144.1424335000047,144.1928862000059,144.1928862000059,144.1928862000059,144.1928862000059,144.24257750000106,144.24257750000106,144.24257750000106,144.24257750000106,144.24257750000106,144.24257750000106,144.24257750000106,144.24257750000106,144.24257750000106,right,1.256249600002775,145.52732449999894,145.52732449999894,None,,11,001,2025-12-19_13h55.03.919,2025C_exp1_comp,2022.2.4,59.928038414667434,
35.3,315,-1,0,0,91,91,15,145.52732449999894,145.52732449999894,146.02767430001404,146.09450310000102,146.14472700000624,146.14472700000624,146.14472700000624,146.14472700000624,146.19452109999838,146.19452109999838,146.19452109999838,146.19452109999838,146.19452109999838,146.19452109999838,146.19452109999838,146.19452109999838,146.19452109999838,right,1.0648213000094984,147.27960150002036,147.27960150002036,None,,11,001,2025-12-19_13h55.03.919,2025C_exp1_comp,2022.2.4,59.928038414667434,
22.7,315,1,-1,0,92,92,102,147.27960150002036,147.27960150002036,147.77949830002035,147.84657670001616,147.89644229999976,147.89644229999976,147.89644229999976,147.89644229999976,147.94626480000443,147.94626480000443,147.94626480000443,147.94626480000443,147.94626480000443,147.94626480000443,147.94626480000443,147.94626480000443,147.94626480000443,left,0.8412346999975853,148.8138181999966,148.8138181999966,None,,11,001,2025-12-19_13h55.03.919,2025C_exp1_comp,2022.2.4,59.928038414667434,
29.4,45,1,-1,0,93,93,95,148.8138181999966,148.8138181999966,149.31431849999353,149.38102880000952,149.43133799999487,149.43133799999487,149.43133799999487,149.43133799999487,149.48114459999488,149.48114459999488,149.48114459999488,149.48114459999488,149.48114459999488,149.48114459999488,149.48114459999488,149.48114459999488,149.48114459999488,right,0.5700144000002183,150.08170219999738,150.08170219999738,None,,11,001,2025-12-19_13h55.03.919,2025C_exp1_comp,2022.2.4,59.928038414667434,
42.7,315,1,0,0,94,94,35,150.08170219999738,150.08170219999738,150.5823406999989,150.64892279999913,150.69923240001663,150.69923240001663,150.69923240001663,150.69923240001663,150.7491888999939,150.7491888999939,150.7491888999939,150.7491888999939,150.7491888999939,150.7491888999939,150.7491888999939,150.7491888999939,150.7491888999939,right,0.46164150000549853,151.2331220000051,151.2331220000051,None,,11,001,2025-12-19_13h55.03.919,2025C_exp1_comp,2022.2.4,59.928038414667434,
19.6,315,-1,-1,0,95,95,83,151.2331220000051,151.2331220000051,151.733352500014,151.80020850000437,151.85041410001577,151.85041410001577,151.85041410001577,151.85041410001577,151.9003023999976,151.9003023999976,151.9003023999976,151.9003023999976,151.9003023999976,151.9003023999976,151.9003023999976,151.9003023999976,151.9003023999976,right,0.5106029000016861,152.43418060001568,152.43418060001568,None,,11,001,2025-12-19_13h55.03.919,2025C_exp1_comp,2022.2.4,59.928038414667434,
15.7,45,-1,-1,0,96,96,73,152.43418060001568,152.43418060001568,152.93495379999513,153.00127900001826,153.05161320001935,153.05161320001935,153.05161320001935,153.05161320001935,153.1014259000076,153.1014259000076,153.1014259000076,153.1014259000076,153.1014259000076,153.1014259000076,153.1014259000076,153.1014259000076,153.1014259000076,right,0.5741493999958038,153.70200930000283,153.70200930000283,None,,11,001,2025-12-19_13h55.03.919,2025C_exp1_comp,2022.2.4,59.928038414667434,
22.7,45,-1,0,0,97,97,3,153.70200930000283,153.70200930000283,154.2026034000155,154.2695231999969,154.31963300000643,154.31963300000643,154.31963300000643,154.31963300000643,154.36939360000542,154.36939360000542,154.36939360000542,154.36939360000542,154.36939360000542,154.36939360000542,154.36939360000542,154.36939360000542,154.36939360000542,right,0.8573572000022978,155.2535764000204,155.2535764000204,None,,11,001,2025-12-19_13h55.03.919,2025C_exp1_comp,2022.2.4,59.928038414667434,
12.1,315,-1,-1,0,98,98,81,155.2535764000204,155.2535764000204,155.75405930000124,155.8207601000031,155.8710997000162,155.8710997000162,155.8710997000162,155.8710997000162,155.92088039999362,155.92088039999362,155.92088039999362,155.92088039999362,155.92088039999362,155.92088039999362,155.92088039999362,155.92088039999362,155.92088039999362,right,0.48230340000009164,156.42145570000866,156.42145570000866,None,,11,001,2025-12-19_13h55.03.919,2025C_exp1_comp,2022.2.4,59.928038414667434,
25.5,45,1,1,0,99,99,58,156.42145570000866,156.42145570000866,156.9220142000122,156.98869670002023,157.0390423000208,157.0390423000208,157.0390423000208,157.0390423000208,157.08885709999595,157.08885709999595,157.08885709999595,157.08885709999595,157.08885709999595,157.08885709999595,157.08885709999595,157.08885709999595,157.08885709999595,left,0.5139519000076689,157.62262390000978,157.62262390000978,None,,11,001,2025-12-19_13h55.03.919,2025C_exp1_comp,2022.2.4,59.928038414667434,
29.4,45,-1,1,0,100,100,41,157.62262390000978,157.62262390000978,158.12307780000265,158.18985190000967,158.2401499999978,158.2401499999978,158.2401499999978,158.2401499999978,158.28993550001178,158.28993550001178,158.28993550001178,158.28993550001178,158.28993550001178,158.28993550001178,158.28993550001178,158.28993550001178,158.28993550001178,right,0.3851835999812465,158.707109400013,158.707109400013,None,,11,001,2025-12-19_13h55.03.919,2025C_exp1_comp,2022.2.4,59.928038414667434,
15.7,45,1,1,0,101,101,55,158.707109400013,158.707109400013,159.2076151999936,159.27431060001254,159.32469050001237,159.32469050001237,159.32469050001237,159.32469050001237,159.37436060002074,159.37436060002074,159.37436060002074,159.37436060002074,159.37436060002074,159.37436060002074,159.37436060002074,159.37436060002074,159.37436060002074,left,0.372741600003792,159.77475060001598,159.77475060001598,None,,11,001,2025-12-19_13h55.03.919,2025C_exp1_comp,2022.2.4,59.928038414667434,
12.1,315,1,-1,0,102,102,99,159.77475060001598,159.77475060001598,160.27523120000842,160.34194179999758,160.39263109999592,160.39263109999592,160.39263109999592,160.39263109999592,160.44216400000732,160.44216400000732,160.44216400000732,160.44216400000732,160.44216400000732,160.44216400000732,160.44216400000732,160.44216400000732,160.44216400000732,left,0.39308759997948073,160.85936860000947,160.85936860000947,None,,11,001,2025-12-19_13h55.03.919,2025C_exp1_comp,2022.2.4,59.928038414667434,
29.4,315,-1,0,0,103,103,14,160.85936860000947,160.85936860000947,161.35975980001967,161.4263617999968,161.47672850001254,161.47672850001254,161.47672850001254,161.47672850001254,161.52646190000814,161.52646190000814,161.52646190000814,161.52646190000814,161.52646190000814,161.52646190000814,161.52646190000814,161.52646190000814,161.52646190000814,right,0.5805753000022378,162.1270569000044,162.1270569000044,None,,11,001,2025-12-19_13h55.03.919,2025C_exp1_comp,2022.2.4,59.928038414667434,
12.1,45,-1,-1,0,104,104,72,162.1270569000044,162.1270569000044,162.6275865000207,162.69438200001605,162.7446325000201,162.7446325000201,162.7446325000201,162.7446325000201,162.79440040001646,162.79440040001646,162.79440040001646,162.79440040001646,162.79440040001646,162.79440040001646,162.79440040001646,162.79440040001646,162.79440040001646,right,0.39252250001300126,163.21168850001413,163.21168850001413,None,,11,001,2025-12-19_13h55.03.919,2025C_exp1_comp,2022.2.4,59.928038414667434,
25.5,315,-1,0,0,105,105,13,163.21168850001413,163.21168850001413,163.71222590000252,163.77874929999234,163.82927109999582,163.82927109999582,163.82927109999582,163.82927109999582,163.878813599993,163.878813599993,163.878813599993,163.878813599993,163.878813599993,163.878813599993,163.878813599993,163.878813599993,163.878813599993,right,0.732531600020593,164.62955370001146,164.62955370001146,None,,11,001,2025-12-19_13h55.03.919,2025C_exp1_comp,2022.2.4,59.928038414667434,
25.5,315,1,1,0,106,106,67,164.62955370001146,164.62955370001146,165.13033859999268,165.196803800005,165.24711739999475,165.24711739999475,165.24711739999475,165.24711739999475,165.29691219999222,165.29691219999222,165.29691219999222,165.29691219999222,165.29691219999222,165.29691219999222,165.29691219999222,165.29691219999222,165.29691219999222,left,0.8898265000025276,166.21488580000005,166.21488580000005,None,,11,001,2025-12-19_13h55.03.919,2025C_exp1_comp,2022.2.4,59.928038414667434,
19.6,45,1,0,0,107,107,20,166.21488580000005,166.21488580000005,166.71497250001994,166.7818616000004,166.8324113000126,166.8324113000126,166.8324113000126,166.8324113000126,166.88188920001267,166.88188920001267,166.88188920001267,166.88188920001267,166.88188920001267,166.88188920001267,166.88188920001267,166.88188920001267,166.88188920001267,left,0.5369270999799483,167.44919090002077,167.44919090002077,space,3.2096523999935016,11,001,2025-12-19_13h55.03.919,2025C_exp1_comp,2022.2.4,59.928038414667434,
12.1,315,-1,1,1,0,108,45,170.68566210000427,170.68566210000427,171.18619170002057,171.25285260000965,171.30314400000498,171.30314400000498,171.30314400000498,171.30314400000498,171.3529552000109,171.3529552000109,171.3529552000109,171.3529552000109,171.3529552000109,171.3529552000109,171.3529552000109,171.3529552000109,171.3529552000109,right,0.4422838000173215,171.82015220000176,171.82015220000176,None,,11,001,2025-12-19_13h55.03.919,2025C_exp1_comp,2022.2.4,59.928038414667434,
39.2,315,1,1,1,1,109,70,171.82015220000176,171.82015220000176,172.32075610000174,172.38731469999766,172.43776659999276,172.43776659999276,172.43776659999276,172.43776659999276,172.48740539999562,172.48740539999562,172.48740539999562,172.48740539999562,172.48740539999562,172.48740539999562,172.48740539999562,172.48740539999562,172.48740539999562,right,0.40353650000179186,172.92122799999197,172.92122799999197,None,,11,001,2025-12-19_13h55.03.919,2025C_exp1_comp,2022.2.4,59.928038414667434,
25.5,45,1,-1,1,2,110,94,172.92122799999197,172.92122799999197,173.42178870001226,173.48861430000397,173.5388123000157,173.5388123000157,173.5388123000157,173.5388123000157,173.58861910001724,173.58861910001724,173.58861910001724,173.58861910001724,173.58861910001724,173.58861910001724,173.58861910001724,173.58861910001724,173.58861910001724,left,0.630222900013905,174.2392735000176,174.2392735000176,None,,11,001,2025-12-19_13h55.03.919,2025C_exp1_comp,2022.2.4,59.928038414667434,
42.7,315,-1,1,1,3,111,53,174.2392735000176,174.2392735000176,174.73979370002053,174.80661590001546,174.8573518000194,174.8573518000194,174.8573518000194,174.8573518000194,174.9065169999958,174.9065169999958,174.9065169999958,174.9065169999958,174.9065169999958,174.9065169999958,174.9065169999958,174.9065169999958,174.9065169999958,left,0.648275499988813,175.57384789999924,175.57384789999924,None,,11,001,2025-12-19_13h55.03.919,2025C_exp1_comp,2022.2.4,59.928038414667434,
42.7,315,-1,0,1,4,112,17,175.57384789999924,175.57384789999924,176.07441000000108,176.14117310001166,176.19149019999895,176.19149019999895,176.19149019999895,176.19149019999895,176.24123959999997,176.24123959999997,176.24123959999997,176.24123959999997,176.24123959999997,176.24123959999997,176.24123959999997,176.24123959999997,176.24123959999997,left,0.7218160000047646,176.99201099999482,176.99201099999482,None,,11,001,2025-12-19_13h55.03.919,2025C_exp1_comp,2022.2.4,59.928038414667434,
19.6,45,-1,0,1,5,113,2,176.99201099999482,176.99201099999482,177.4925329000107,177.5592542999948,177.60952800000086,177.60952800000086,177.60952800000086,177.60952800000086,177.6593603999936,177.6593603999936,177.6593603999936,177.6593603999936,177.6593603999936,177.6593603999936,177.6593603999936,177.6593603999936,177.6593603999936,right,0.431818100012606,178.10969499999192,178.10969499999192,None,,11,001,2025-12-19_13h55.03.919,2025C_exp1_comp,2022.2.4,59.928038414667434,
25.5,45,-1,-1,1,6,114,76,178.10969499999192,178.10969499999192,178.6103928000084,178.67704559999402,178.72747850001906,178.72747850001906,178.72747850001906,178.72747850001906,178.77712440001778,178.77712440001778,178.77712440001778,178.77712440001778,178.77712440001778,178.77712440001778,178.77712440001778,178.77712440001778,178.77712440001778,right,0.5863200999738183,179.39431709999917,179.39431709999917,None,,11,001,2025-12-19_13h55.03.919,2025C_exp1_comp,2022.2.4,59.928038414667434,
35.3,315,-1,1,1,7,115,51,179.39431709999917,179.39431709999917,179.89494500000728,179.96163780000643,180.01194830000168,180.01194830000168,180.01194830000168,180.01194830000168,180.06175700001768,180.06175700001768,180.06175700001768,180.06175700001768,180.06175700001768,180.06175700001768,180.06175700001768,180.06175700001768,180.06175700001768,right,0.3817079000000376,180.46216739999363,180.46216739999363,None,,11,001,2025-12-19_13h55.03.919,2025C_exp1_comp,2022.2.4,59.928038414667434,
42.7,45,-1,0,1,8,116,8,180.46216739999363,180.46216739999363,180.9626671000151,181.02938730001915,181.07972999999765,181.07972999999765,181.07972999999765,181.07972999999765,181.1294928000134,181.1294928000134,181.1294928000134,181.1294928000134,181.1294928000134,181.1294928000134,181.1294928000134,181.1294928000134,181.1294928000134,right,0.5374231000023428,181.69661149999592,181.69661149999592,None,,11,001,2025-12-19_13h55.03.919,2025C_exp1_comp,2022.2.4,59.928038414667434,
22.7,45,-1,1,1,9,117,39,181.69661149999592,181.69661149999592,182.19720550000784,182.26383260000148,182.3142647999921,182.3142647999921,182.3142647999921,182.3142647999921,182.36475490001612,182.36475490001612,182.36475490001612,182.36475490001612,182.36475490001612,182.36475490001612,182.36475490001612,182.36475490001612,182.36475490001612,right,0.42205580000882037,182.81448359999922,182.81448359999922,None,,11,001,2025-12-19_13h55.03.919,2025C_exp1_comp,2022.2.4,59.928038414667434,
15.7,45,1,0,1,10,118,19,182.81448359999922,182.81448359999922,183.3149051000073,183.3817415999947,183.43220989999827,183.43220989999827,183.43220989999827,183.43220989999827,183.48175890001585,183.48175890001585,183.48175890001585,183.48175890001585,183.48175890001585,183.48175890001585,183.48175890001585,183.48175890001585,183.48175890001585,left,0.4577856000105385,183.96565880000708,183.96565880000708,None,,11,001,2025-12-19_13h55.03.919,2025C_exp1_comp,2022.2.4,59.928038414667434,
12.1,315,1,-1,1,11,119,99,183.96565880000708,183.96565880000708,184.4661236999964,184.5329963999975,184.58307310001692,184.58307310001692,184.58307310001692,184.58307310001692,184.6328756000148,184.6328756000148,184.6328756000148,184.6328756000148,184.6328756000148,184.6328756000148,184.6328756000148,184.6328756000148,184.6328756000148,left,0.4019157000002451,185.0667345999973,185.0667345999973,None,,11,001,2025-12-19_13h55.03.919,2025C_exp1_comp,2022.2.4,59.928038414667434,
35.3,315,1,0,1,12,120,33,185.0667345999973,185.0667345999973,185.56728260000818,185.63388269999996,185.68432430000394,185.68432430000394,185.68432430000394,185.68432430000394,185.73412880001706,185.73412880001706,185.73412880001706,185.73412880001706,185.73412880001706,185.73412880001706,185.73412880001706,185.73412880001706,185.73412880001706,right,0.5325424000038765,186.28469480000786,186.28469480000786,None,,11,001,2025-12-19_13h55.03.919,2025C_exp1_comp,2022.2.4,59.928038414667434,
15.7,45,1,-1,1,13,121,91,186.28469480000786,186.28469480000786,186.78513619999285,186.85184049999225,186.90215430001263,186.90215430001263,186.90215430001263,186.90215430001263,186.95198979999986,186.95198979999986,186.95198979999986,186.95198979999986,186.95198979999986,186.95198979999986,186.95198979999986,186.95198979999986,186.95198979999986,left,0.46738670000922866,187.4524686000077,187.4524686000077,None,,11,001,2025-12-19_13h55.03.919,2025C_exp1_comp,2022.2.4,59.928038414667434,
29.4,45,1,0,1,14,122,23,187.4524686000077,187.4524686000077,187.95303249999415,188.01968719999422,188.07015690000844,188.07015690000844,188.07015690000844,188.07015690000844,188.1198049999948,188.1198049999948,188.1198049999948,188.1198049999948,188.1198049999948,188.1198049999948,188.1198049999948,188.1198049999948,188.1198049999948,left,0.435750900011044,188.58688330001314,188.58688330001314,None,,11,001,2025-12-19_13h55.03.919,2025C_exp1_comp,2022.2.4,59.928038414667434,
15.7,45,-1,1,1,15,123,37,188.58688330001314,188.58688330001314,189.08744890001253,189.1550724999979,189.20450769999297,189.20450769999297,189.20450769999297,189.20450769999297,189.25415789999533,189.25415789999533,189.25415789999533,189.25415789999533,189.25415789999533,189.25415789999533,189.25415789999533,189.25415789999533,189.25415789999533,right,0.43656149998423643,189.72133940001368,189.72133940001368,None,,11,001,2025-12-19_13h55.03.919,2025C_exp1_comp,2022.2.4,59.928038414667434,
15.7,315,-1,1,1,16,124,46,189.72133940001368,189.72133940001368,190.22182020000764,190.28853459999664,190.33890269999392,190.33890269999392,190.33890269999392,190.33890269999392,190.3887029000034,190.3887029000034,190.3887029000034,190.3887029000034,190.3887029000034,190.3887029000034,190.3887029000034,190.3887029000034,190.3887029000034,right,0.35058009999920614,190.77233959999285,190.77233959999285,None,,11,001,2025-12-19_13h55.03.919,2025C_exp1_comp,2022.2.4,59.928038414667434,
12.1,45,-1,1,1,17,125,36,190.77233959999285,190.77233959999285,191.27285619999748,191.3396611000062,191.39008830001694,191.39008830001694,191.39008830001694,191.39008830001694,191.4397615000198,191.4397615000198,191.4397615000198,191.4397615000198,191.4397615000198,191.4397615000198,191.4397615000198,191.4397615000198,191.4397615000198,right,0.355062699993141,191.82340200000908,191.82340200000908,None,,11,001,2025-12-19_13h55.03.919,2025C_exp1_comp,2022.2.4,59.928038414667434,
29.4,315,1,1,1,18,126,68,191.82340200000908,191.82340200000908,192.32413009999436,192.39062640001066,192.44096710000304,192.44096710000304,192.44096710000304,192.44096710000304,192.49080349999713,192.49080349999713,192.49080349999713,192.49080349999713,192.49080349999713,192.49080349999713,192.49080349999713,192.49080349999713,192.49080349999713,left,0.42412189999595284,192.94130679999944,192.94130679999944,None,,11,001,2025-12-19_13h55.03.919,2025C_exp1_comp,2022.2.4,59.928038414667434,
12.1,45,-1,-1,1,19,127,72,192.94130679999944,192.94130679999944,193.44169840001268,193.50849330000347,193.55879650000134,193.55879650000134,193.55879650000134,193.55879650000134,193.60863940001582,193.60863940001582,193.60863940001582,193.60863940001582,193.60863940001582,193.60863940001582,193.60863940001582,193.60863940001582,193.60863940001582,right,0.36220760000287555,193.99251340000774,193.99251340000774,None,,11,001,2025-12-19_13h55.03.919,2025C_exp1_comp,2022.2.4,59.928038414667434,
42.7,315,1,-1,1,20,128,107,193.99251340000774,193.99251340000774,194.49279640000896,194.55961409999873,194.60976140000275,194.60976140000275,194.60976140000275,194.60976140000275,194.65961830000742,194.65961830000742,194.65961830000742,194.65961830000742,194.65961830000742,194.65961830000742,194.65961830000742,194.65961830000742,194.65961830000742,right,0.3280588999914471,195.01006890001008,195.01006890001008,None,,11,001,2025-12-19_13h55.03.919,2025C_exp1_comp,2022.2.4,59.928038414667434,
42.7,45,1,1,1,21,129,62,195.01006890001008,195.01006890001008,195.51054560000193,195.57718459999887,195.6275857000146,195.6275857000146,195.6275857000146,195.6275857000146,195.67734530000598,195.67734530000598,195.67734530000598,195.67734530000598,195.67734530000598,195.67734530000598,195.67734530000598,195.67734530000598,195.67734530000598,right,0.34980940000968985,196.04428780000308,196.04428780000308,None,,11,001,2025-12-19_13h55.03.919,2025C_exp1_comp,2022.2.4,59.928038414667434,
19.6,315,1,-1,1,22,130,101,196.04428780000308,196.04428780000308,196.54479099999298,196.61163900000975,196.66300090000732,196.66300090000732,196.66300090000732,196.66300090000732,196.7117508999945,196.7117508999945,196.7117508999945,196.7117508999945,196.7117508999945,196.7117508999945,196.7117508999945,196.7117508999945,196.7117508999945,left,0.44291290000546724,197.17883829999482,197.17883829999482,None,,11,001,2025-12-19_13h55.03.919,2025C_exp1_comp,2022.2.4,59.928038414667434,
39.2,45,1,1,1,23,131,61,197.17883829999482,197.17883829999482,197.6794341999921,197.74636330001522,197.79629280001973,197.79629280001973,197.79629280001973,197.79629280001973,197.84614460001467,197.84614460001467,197.84614460001467,197.84614460001467,197.84614460001467,197.84614460001467,197.84614460001467,197.84614460001467,197.84614460001467,left,1.0927685000060592,198.96386660001008,198.96386660001008,None,,11,001,2025-12-19_13h55.03.919,2025C_exp1_comp,2022.2.4,59.928038414667434,
19.6,315,-1,-1,1,24,132,83,198.96386660001008,198.96386660001008,199.4643827000109,199.53121980000287,199.58138740001596,199.58138740001596,199.58138740001596,199.58138740001596,199.6312048000109,199.6312048000109,199.6312048000109,199.6312048000109,199.6312048000109,199.6312048000109,199.6312048000109,199.6312048000109,199.6312048000109,right,0.48357240002951585,200.131684699998,200.131684699998,None,,11,001,2025-12-19_13h55.03.919,2025C_exp1_comp,2022.2.4,59.928038414667434,
12.1,315,-1,-1,1,25,133,81,200.131684699998,200.131684699998,200.63221710000653,200.69903849999537,200.7493449000176,200.7493449000176,200.7493449000176,200.7493449000176,200.79948600000353,200.79948600000353,200.79948600000353,200.79948600000353,200.79948600000353,200.79948600000353,200.79948600000353,200.79948600000353,200.79948600000353,right,0.3953332999954,201.21611259999918,201.21611259999918,None,,11,001,2025-12-19_13h55.03.919,2025C_exp1_comp,2022.2.4,59.928038414667434,
12.1,45,1,-1,1,26,134,90,201.21611259999918,201.21611259999918,201.71662089999882,201.78342059999704,201.83399139999528,201.83399139999528,201.83399139999528,201.83399139999528,201.88345019999542,201.88345019999542,201.88345019999542,201.88345019999542,201.88345019999542,201.88345019999542,201.88345019999542,201.88345019999542,201.88345019999542,left,0.39989220001734793,202.30059379999875,202.30059379999875,None,,11,001,2025-12-19_13h55.03.919,2025C_exp1_comp,2022.2.4,59.928038414667434,
22.7,315,1,0,1,27,135,30,202.30059379999875,202.30059379999875,202.80108279999695,202.86783880001167,202.9180937000201,202.9180937000201,202.9180937000201,202.9180937000201,202.96795950000524,202.96795950000524,202.96795950000524,202.96795950000524,202.96795950000524,202.96795950000524,202.96795950000524,202.96795950000524,202.96795950000524,left,0.475019000004977,203.4683627000195,203.4683627000195,None,,11,001,2025-12-19_13h55.03.919,2025C_exp1_comp,2022.2.4,59.928038414667434,
25.5,315,-1,-1,1,28,136,85,203.4683627000195,203.4683627000195,203.9689750999969,204.03559770001448,204.08590900001582,204.08590900001582,204.08590900001582,204.08590900001582,204.1356999000127,204.1356999000127,204.1356999000127,204.1356999000127,204.1356999000127,204.1356999000127,204.1356999000127,204.1356999000127,204.1356999000127,right,0.4040907000016887,204.56947529999889,204.56947529999889,None,,11,001,2025-12-19_13h55.03.919,2025C_exp1_comp,2022.2.4,59.928038414667434,
29.4,315,1,-1,1,29,137,104,204.56947529999889,204.56947529999889,205.0706657000119,205.13670110001112,205.18699089999427,205.18699089999427,205.18699089999427,205.18699089999427,205.2367685000063,205.2367685000063,205.2367685000063,205.2367685000063,205.2367685000063,205.2367685000063,205.2367685000063,205.2367685000063,205.2367685000063,left,0.40618979997816496,205.67072670001653,205.67072670001653,None,,11,001,2025-12-19_13h55.03.919,2025C_exp1_comp,2022.2.4,59.928038414667434,
19.6,45,1,0,1,30,138,20,205.67072670001653,205.67072670001653,206.1710815000115,206.23790850001387,206.28823760000523,206.28823760000523,206.28823760000523,206.28823760000523,206.33810710001853,206.33810710001853,206.33810710001853,206.33810710001853,206.33810710001853,206.33810710001853,206.33810710001853,206.33810710001853,206.33810710001853,left,0.4167001000023447,206.77177350001875,206.77177350001875,None,,11,001,2025-12-19_13h55.03.919,2025C_exp1_comp,2022.2.4,59.928038414667434,
25.5,45,1,0,1,31,139,22,206.77177350001875,206.77177350001875,207.27236470000935,207.3390469000151,207.38919489999535,207.38919489999535,207.38919489999535,207.38919489999535,207.43899789999705,207.43899789999705,207.43899789999705,207.43899789999705,207.43899789999705,207.43899789999705,207.43899789999705,207.43899789999705,207.43899789999705,left,0.37173319997964427,207.8394413999922,207.8394413999922,None,,11,001,2025-12-19_13h55.03.919,2025C_exp1_comp,2022.2.4,59.928038414667434,
19.6,45,-1,1,1,32,140,38,207.8394413999922,207.8394413999922,208.34012790000997,208.40705150002032,208.45726190001005,208.45726190001005,208.45726190001005,208.45726190001005,208.50705509999534,208.50705509999534,208.50705509999534,208.50705509999534,208.50705509999534,208.50705509999534,208.50705509999534,208.50705509999534,208.50705509999534,right,0.4166370000166353,208.94084339999245,208.94084339999245,None,,11,001,2025-12-19_13h55.03.919,2025C_exp1_comp,2022.2.4,59.928038414667434,
39.2,45,-1,-1,1,33,141,79,208.94084339999245,208.94084339999245,209.44122969999444,209.50805730000138,209.55837529999553,209.55837529999553,209.55837529999553,209.55837529999553,209.608031700016,209.608031700016,209.608031700016,209.608031700016,209.608031700016,209.608031700016,209.608031700016,209.608031700016,209.608031700016,right,0.7153120000148192,210.34247840000899,210.34247840000899,None,,11,001,2025-12-19_13h55.03.919,2025C_exp1_comp,2022.2.4,59.928038414667434,
39.2,45,-1,0,1,34,142,7,210.34247840000899,210.34247840000899,210.84280969999963,210.9095668999944,210.9597810000123,210.9597810000123,210.9597810000123,210.9597810000123,211.00949310002034,211.00949310002034,211.00949310002034,211.00949310002034,211.00949310002034,211.00949310002034,211.00949310002034,211.00949310002034,211.00949310002034,right,0.6497472999908496,211.676881899999,211.676881899999,None,,11,001,2025-12-19_13h55.03.919,2025C_exp1_comp,2022.2.4,59.928038414667434,
35.3,315,-1,-1,1,35,143,87,211.676881899999,211.676881899999,212.17758499999763,212.2439837999991,212.29410460000508,212.29410460000508,212.29410460000508,212.29410460000508,212.34407039999496,212.34407039999496,212.34407039999496,212.34407039999496,212.34407039999496,212.34407039999496,212.34407039999496,212.34407039999496,212.34407039999496,right,0.5792912000033539,212.94482629999402,212.94482629999402,None,,11,001,2025-12-19_13h55.03.919,2025C_exp1_comp,2022.2.4,59.928038414667434,
19.6,45,1,1,1,36,144,56,212.94482629999402,212.94482629999402,213.44519769999897,213.51203850001912,213.56235799999558,213.56235799999558,213.56235799999558,213.56235799999558,213.6121198000037,213.6121198000037,213.6121198000037,213.6121198000037,213.6121198000037,213.6121198000037,213.6121198000037,213.6121198000037,213.6121198000037,left,0.6318122999800835,214.2627979000099,214.2627979000099,None,,11,001,2025-12-19_13h55.03.919,2025C_exp1_comp,2022.2.4,59.928038414667434,
35.3,45,1,0,1,37,145,24,214.2627979000099,214.2627979000099,214.7633474000031,214.82987830002094,214.8803991000168,214.8803991000168,214.8803991000168,214.8803991000168,214.9302086000098,214.9302086000098,214.9302086000098,214.9302086000098,214.9302086000098,214.9302086000098,214.9302086000098,214.9302086000098,214.9302086000098,left,0.7532541999826208,215.71418120001908,215.71418120001908,None,,11,001,2025-12-19_13h55.03.919,2025C_exp1_comp,2022.2.4,59.928038414667434,
39.2,45,-1,1,1,38,146,43,215.71418120001908,215.71418120001908,216.21479610001552,216.28148850001162,216.33195839999826,216.33195839999826,216.33195839999826,216.33195839999826,216.38160880000214,216.38160880000214,216.38160880000214,216.38160880000214,216.38160880000214,216.38160880000214,216.38160880000214,216.38160880000214,216.38160880000214,left,0.589753300009761,216.99894280001172,216.99894280001172,None,,11,001,2025-12-19_13h55.03.919,2025C_exp1_comp,2022.2.4,59.928038414667434,
29.4,45,1,-1,1,39,147,95,216.99894280001172,216.99894280001172,217.4993897000095,217.5660823000071,217.61637420000625,217.61637420000625,217.61637420000625,217.61637420000625,217.6662154000078,217.6662154000078,217.6662154000078,217.6662154000078,217.6662154000078,217.6662154000078,217.6662154000078,217.6662154000078,217.6662154000078,left,0.5775667000270914,218.26679630001308,218.26679630001308,None,,11,001,2025-12-19_13h55.03.919,2025C_exp1_comp,2022.2.4,59.928038414667434,
15.7,45,-1,0,1,40,148,1,218.26679630001308,218.26679630001308,218.76722740000696,218.83394080001744,218.88432800001465,218.88432800001465,218.88432800001465,218.88432800001465,218.9340765000088,218.9340765000088,218.9340765000088,218.9340765000088,218.9340765000088,218.9340765000088,218.9340765000088,218.9340765000088,218.9340765000088,right,0.4612222000141628,219.41813130001538,219.41813130001538,None,,11,001,2025-12-19_13h55.03.919,2025C_exp1_comp,2022.2.4,59.928038414667434,
22.7,315,1,1,1,41,149,66,219.41813130001538,219.41813130001538,219.91847410000628,219.98507890000474,220.03551320001134,220.03551320001134,220.03551320001134,220.03551320001134,220.08522440001252,220.08522440001252,220.08522440001252,220.08522440001252,220.08522440001252,220.08522440001252,220.08522440001252,220.08522440001252,220.08522440001252,left,0.8218236000102479,220.93615759999375,220.93615759999375,None,,11,001,2025-12-19_13h55.03.919,2025C_exp1_comp,2022.2.4,59.928038414667434,
39.2,315,-1,-1,1,42,150,88,220.93615759999375,220.93615759999375,221.43669750000117,221.50329870000132,221.55371229999582,221.55371229999582,221.55371229999582,221.55371229999582,221.60337660001824,221.60337660001824,221.60337660001824,221.60337660001824,221.60337660001824,221.60337660001824,221.60337660001824,221.60337660001824,221.60337660001824,left,0.49603909999132156,222.1206407000136,222.1206407000136,None,,11,001,2025-12-19_13h55.03.919,2025C_exp1_comp,2022.2.4,59.928038414667434,
15.7,315,1,-1,1,43,151,100,222.1206407000136,222.1206407000136,222.62090870001703,222.68791410000995,222.73810600000434,222.73810600000434,222.73810600000434,222.73810600000434,222.78797410000698,222.78797410000698,222.78797410000698,222.78797410000698,222.78797410000698,222.78797410000698,222.78797410000698,222.78797410000698,222.78797410000698,left,0.42396309998002835,223.2384025999927,223.2384025999927,None,,11,001,2025-12-19_13h55.03.919,2025C_exp1_comp,2022.2.4,59.928038414667434,
39.2,315,-1,0,1,44,152,16,223.2384025999927,223.2384025999927,223.73891790001653,223.80567289999453,223.85594020001008,223.85594020001008,223.85594020001008,223.85594020001008,223.90575580002042,223.90575580002042,223.90575580002042,223.90575580002042,223.90575580002042,223.90575580002042,223.90575580002042,223.90575580002042,223.90575580002042,left,0.6169950000185054,224.53969700000016,224.53969700000016,None,,11,001,2025-12-19_13h55.03.919,2025C_exp1_comp,2022.2.4,59.928038414667434,
25.5,45,1,1,1,45,153,58,224.53969700000016,224.53969700000016,225.0402999999933,225.10691649999353,225.15735749999294,225.15735749999294,225.15735749999294,225.15735749999294,225.20713260001503,225.20713260001503,225.20713260001503,225.20713260001503,225.20713260001503,225.20713260001503,225.20713260001503,225.20713260001503,225.20713260001503,left,0.5403510000032838,225.77423989999807,225.77423989999807,None,,11,001,2025-12-19_13h55.03.919,2025C_exp1_comp,2022.2.4,59.928038414667434,
29.4,315,-1,1,1,46,154,50,225.77423989999807,225.77423989999807,226.27480210000067,226.3416533000127,226.3919664999994,226.3919664999994,226.3919664999994,226.3919664999994,226.44152220000979,226.44152220000979,226.44152220000979,226.44152220000979,226.44152220000979,226.44152220000979,226.44152220000979,226.44152220000979,226.44152220000979,right,1.9295494999969378,228.39350070001092,228.39350070001092,None,,11,001,2025-12-19_13h55.03.919,2025C_exp1_comp,2022.2.4,59.928038414667434,
19.6,45,1,-1,1,47,155,92,228.39350070001092,228.39350070001092,228.89393419999396,228.9608172000153,229.01125929999398,229.01125929999398,229.01125929999398,229.01125929999398,229.0610122999933,229.0610122999933,229.0610122999933,229.0610122999933,229.0610122999933,229.0610122999933,229.0610122999933,229.0610122999933,229.0610122999933,left,0.47007209999719635,229.56130010000197,229.56130010000197,None,,11,001,2025-12-19_13h55.03.919,2025C_exp1_comp,2022.2.4,59.928038414667434,
39.2,45,1,0,1,48,156,25,229.56130010000197,229.56130010000197,230.06210820001434,230.1285914000182,230.1789798999962,230.1789798999962,230.1789798999962,230.1789798999962,230.22861300001387,230.22861300001387,230.22861300001387,230.22861300001387,230.22861300001387,230.22861300001387,230.22861300001387,230.22861300001387,230.22861300001387,right,0.6947546000010334,230.94583500002045,230.94583500002045,None,,11,001,2025-12-19_13h55.03.919,2025C_exp1_comp,2022.2.4,59.928038414667434,
25.5,315,1,-1,1,49,157,103,230.94583500002045,230.94583500002045,231.44669939999585,231.51337490000878,231.56368930000463,231.56368930000463,231.56368930000463,231.56368930000463,231.61336940000183,231.61336940000183,231.61336940000183,231.61336940000183,231.61336940000183,231.61336940000183,231.61336940000183,231.61336940000183,231.61336940000183,left,0.4066803999885451,232.0470944000117,232.0470944000117,None,,11,001,2025-12-19_13h55.03.919,2025C_exp1_comp,2022.2.4,59.928038414667434,
42.7,45,-1,1,1,50,158,44,232.0470944000117,232.0470944000117,232.5477535999962,232.61432640001294,232.6647794000164,232.6647794000164,232.6647794000164,232.6647794000164,232.71449660000508,232.71449660000508,232.71449660000508,232.71449660000508,232.71449660000508,232.71449660000508,232.71449660000508,232.71449660000508,232.71449660000508,left,0.3845953000127338,233.1316777000029,233.1316777000029,None,,11,001,2025-12-19_13h55.03.919,2025C_exp1_comp,2022.2.4,59.928038414667434,
42.7,45,1,0,1,51,159,26,233.1316777000029,233.1316777000029,233.63202690001344,233.69890479999594,233.74919289999525,233.74919289999525,233.74919289999525,233.74919289999525,233.79878989999997,233.79878989999997,233.79878989999997,233.79878989999997,233.79878989999997,233.79878989999997,233.79878989999997,233.79878989999997,233.79878989999997,left,0.6773855999927036,234.49955670000054,234.49955670000054,None,,11,001,2025-12-19_13h55.03.919,2025C_exp1_comp,2022.2.4,59.928038414667434,
25.5,45,-1,1,1,52,160,40,234.49955670000054,234.49955670000054,235.00020330000552,235.06689919999917,235.11696670000674,235.11696670000674,235.11696670000674,235.11696670000674,235.1671983000124,235.1671983000124,235.1671983000124,235.1671983000124,235.1671983000124,235.1671983000124,235.1671983000124,235.1671983000124,235.1671983000124,left,0.5729441000148654,235.76762940001208,235.76762940001208,None,,11,001,2025-12-19_13h55.03.919,2025C_exp1_comp,2022.2.4,59.928038414667434,
15.7,45,-1,-1,1,53,161,73,235.76762940001208,235.76762940001208,236.26803770000697,236.3346902000194,236.38486280001234,236.38486280001234,236.38486280001234,236.38486280001234,236.43476180001744,236.43476180001744,236.43476180001744,236.43476180001744,236.43476180001744,236.43476180001744,236.43476180001744,236.43476180001744,236.43476180001744,right,0.9284589000162669,237.38570080001955,237.38570080001955,None,,11,001,2025-12-19_13h55.03.919,2025C_exp1_comp,2022.2.4,59.928038414667434,
29.4,45,-1,0,1,54,162,5,237.38570080001955,237.38570080001955,237.88638100001845,237.95310549999704,238.00338810001267,238.00338810001267,238.00338810001267,238.00338810001267,238.05339119999553,238.05339119999553,238.05339119999553,238.05339119999553,238.05339119999553,238.05339119999553,238.05339119999553,238.05339119999553,238.05339119999553,right,0.5266980000014883,238.60379359999206,238.60379359999206,None,,11,001,2025-12-19_13h55.03.919,2025C_exp1_comp,2022.2.4,59.928038414667434,
29.4,45,-1,-1,1,55,163,77,238.60379359999206,238.60379359999206,239.10432980000041,239.17091370001435,239.22123580001062,239.22123580001062,239.22123580001062,239.22123580001062,239.27085390000138,239.27085390000138,239.27085390000138,239.27085390000138,239.27085390000138,239.27085390000138,239.27085390000138,239.27085390000138,239.27085390000138,right,0.45212490000994876,239.75495940001565,239.75495940001565,None,,11,001,2025-12-19_13h55.03.919,2025C_exp1_comp,2022.2.4,59.928038414667434,
22.7,315,-1,-1,1,56,164,84,239.75495940001565,239.75495940001565,240.2553087999986,240.32215809999616,240.37261140000192,240.37261140000192,240.37261140000192,240.37261140000192,240.42231789999641,240.42231789999641,240.42231789999641,240.42231789999641,240.42231789999641,240.42231789999641,240.42231789999641,240.42231789999641,240.42231789999641,right,0.36557369999354705,240.80602180000278,240.80602180000278,None,,11,001,2025-12-19_13h55.03.919,2025C_exp1_comp,2022.2.4,59.928038414667434,
15.7,315,1,0,1,57,165,28,240.80602180000278,240.80602180000278,241.3063647999952,241.37300039999536,241.4231820999994,241.4231820999994,241.4231820999994,241.4231820999994,241.47298809999484,241.47298809999484,241.47298809999484,241.47298809999484,241.47298809999484,241.47298809999484,241.47298809999484,241.47298809999484,241.47298809999484,left,0.41823360000853427,241.92379440000514,241.92379440000514,None,,11,001,2025-12-19_13h55.03.919,2025C_exp1_comp,2022.2.4,59.928038414667434,
12.1,45,1,0,1,58,166,18,241.92379440000514,241.92379440000514,242.42418729999918,242.49099930000375,242.54131000000052,242.54131000000052,242.54131000000052,242.54131000000052,242.59112769999774,242.59112769999774,242.59112769999774,242.59112769999774,242.59112769999774,242.59112769999774,242.59112769999774,242.59112769999774,242.59112769999774,left,1.7643974000238813,244.37603690000833,244.37603690000833,None,,11,001,2025-12-19_13h55.03.919,2025C_exp1_comp,2022.2.4,59.928038414667434,
29.4,45,-1,1,1,59,167,41,244.37603690000833,244.37603690000833,244.87673859999632,244.94360009999946,244.99388490000274,244.99388490000274,244.99388490000274,244.99388490000274,245.04325290000997,245.04325290000997,245.04325290000997,245.04325290000997,245.04325290000997,245.04325290000997,245.04325290000997,245.04325290000997,245.04325290000997,right,0.5284220999747049,245.5939645000035,245.5939645000035,None,,11,001,2025-12-19_13h55.03.919,2025C_exp1_comp,2022.2.4,59.928038414667434,
29.4,315,1,0,1,60,168,32,245.5939645000035,245.5939645000035,246.0947730000189,246.16125070001,246.21170290000737,246.21170290000737,246.21170290000737,246.21170290000737,246.26150079999934,246.26150079999934,246.26150079999934,246.26150079999934,246.26150079999934,246.26150079999934,246.26150079999934,246.26150079999934,246.26150079999934,right,5.181348500016611,251.46657260000939,251.46657260000939,None,,11,001,2025-12-19_13h55.03.919,2025C_exp1_comp,2022.2.4,59.928038414667434,
35.3,315,-1,0,1,61,169,15,251.46657260000939,251.46657260000939,251.96717439999338,252.03388570001698,252.0841841000074,252.0841841000074,252.0841841000074,252.0841841000074,252.1338800000085,252.1338800000085,252.1338800000085,252.1338800000085,252.1338800000085,252.1338800000085,252.1338800000085,252.1338800000085,252.1338800000085,right,0.9099025999894366,253.06824789999519,253.06824789999519,None,,11,001,2025-12-19_13h55.03.919,2025C_exp1_comp,2022.2.4,59.928038414667434,
39.2,315,1,-1,1,62,170,106,253.06824789999519,253.06824789999519,253.56858580000699,253.63545739999972,253.68572320000385,253.68572320000385,253.68572320000385,253.68572320000385,253.73554690001765,253.73554690001765,253.73554690001765,253.73554690001765,253.73554690001765,253.73554690001765,253.73554690001765,253.73554690001765,253.73554690001765,right,0.5322355000243988,254.28599669999676,254.28599669999676,None,,11,001,2025-12-19_13h55.03.919,2025C_exp1_comp,2022.2.4,59.928038414667434,
22.7,315,-1,1,1,63,171,48,254.28599669999676,254.28599669999676,254.78662359999726,254.85341169999447,254.90368000001763,254.90368000001763,254.90368000001763,254.90368000001763,254.95337249999284,254.95337249999284,254.95337249999284,254.95337249999284,254.95337249999284,254.95337249999284,254.95337249999284,254.95337249999284,254.95337249999284,right,0.6175354000006337,255.58727630000794,255.58727630000794,None,,11,001,2025-12-19_13h55.03.919,2025C_exp1_comp,2022.2.4,59.928038414667434,
42.7,315,1,0,1,64,172,35,255.58727630000794,255.58727630000794,256.08807270001853,256.15468120001606,256.2050132000004,256.2050132000004,256.2050132000004,256.2050132000004,256.2548084000009,256.2548084000009,256.2548084000009,256.2548084000009,256.2548084000009,256.2548084000009,256.2548084000009,256.2548084000009,256.2548084000009,right,0.5321217000018805,256.8052763000014,256.8052763000014,None,,11,001,2025-12-19_13h55.03.919,2025C_exp1_comp,2022.2.4,59.928038414667434,
22.7,45,1,0,1,65,173,21,256.8052763000014,256.8052763000014,257.3058310000051,257.37253369999235,257.4228315000073,257.4228315000073,257.4228315000073,257.4228315000073,257.47259789999225,257.47259789999225,257.47259789999225,257.47259789999225,257.47259789999225,257.47259789999225,257.47259789999225,257.47259789999225,257.47259789999225,left,0.5394731000124011,258.03983240001253,258.03983240001253,None,,11,001,2025-12-19_13h55.03.919,2025C_exp1_comp,2022.2.4,59.928038414667434,
42.7,45,1,-1,1,66,174,98,258.03983240001253,258.03983240001253,258.54041370001505,258.607107799995,258.6574023000139,258.6574023000139,258.6574023000139,258.6574023000139,258.7070839999942,258.7070839999942,258.7070839999942,258.7070839999942,258.7070839999942,258.7070839999942,258.7070839999942,258.7070839999942,258.7070839999942,right,0.4090483000036329,259.14098480000393,259.14098480000393,None,,11,001,2025-12-19_13h55.03.919,2025C_exp1_comp,2022.2.4,59.928038414667434,
12.1,315,1,1,1,67,175,63,259.14098480000393,259.14098480000393,259.6415324000118,259.7080939000007,259.7585299000202,259.7585299000202,259.7585299000202,259.7585299000202,259.80819179999526,259.80819179999526,259.80819179999526,259.80819179999526,259.80819179999526,259.80819179999526,259.80819179999526,259.80819179999526,259.80819179999526,left,0.6996385000238661,260.52567669999553,260.52567669999553,None,,11,001,2025-12-19_13h55.03.919,2025C_exp1_comp,2022.2.4,59.928038414667434,
15.7,45,1,1,1,68,176,55,260.52567669999553,260.52567669999553,261.0263033999945,261.0928111000103,261.14308609999716,261.14308609999716,261.14308609999716,261.14308609999716,261.1930274000042,261.1930274000042,261.1930274000042,261.1930274000042,261.1930274000042,261.1930274000042,261.1930274000042,261.1930274000042,261.1930274000042,left,0.5949499999987893,261.8102162000141,261.8102162000141,None,,11,001,2025-12-19_13h55.03.919,2025C_exp1_comp,2022.2.4,59.928038414667434,
12.1,315,-1,0,1,69,177,9,261.8102162000141,261.8102162000141,262.3107764000015,262.37743680001586,262.42778130000806,262.42778130000806,262.42778130000806,262.42778130000806,262.47756880000816,262.47756880000816,262.47756880000816,262.47756880000816,262.47756880000816,262.47756880000816,262.47756880000816,262.47756880000816,262.47756880000816,right,0.398041500011459,262.8947351000097,262.8947351000097,None,,11,001,2025-12-19_13h55.03.919,2025C_exp1_comp,2022.2.4,59.928038414667434,
29.4,315,-1,-1,1,70,178,86,262.8947351000097,262.8947351000097,263.3949474999972,263.46200050000334,263.5122887000034,263.5122887000034,263.5122887000034,263.5122887000034,263.56208180001704,263.56208180001704,263.56208180001704,263.56208180001704,263.56208180001704,263.56208180001704,263.56208180001704,263.56208180001704,263.56208180001704,right,0.4168305000057444,263.99582840001676,263.99582840001676,None,,11,001,2025-12-19_13h55.03.919,2025C_exp1_comp,2022.2.4,59.928038414667434,
19.6,315,1,1,1,71,179,65,263.99582840001676,263.99582840001676,264.49636370001826,264.5630514000077,264.613402899995,264.613402899995,264.613402899995,264.613402899995,264.6631599999964,264.6631599999964,264.6631599999964,264.6631599999964,264.6631599999964,264.6631599999964,264.6631599999964,264.6631599999964,264.6631599999964,left,0.5161678000004031,265.19690410001203,265.19690410001203,None,,11,001,2025-12-19_13h55.03.919,2025C_exp1_comp,2022.2.4,59.928038414667434,
35.3,315,1,-1,1,72,180,105,265.19690410001203,265.19690410001203,265.6977213000064,265.76416380002047,265.8145739000174,265.8145739000174,265.8145739000174,265.8145739000174,265.8643624999968,265.8643624999968,265.8643624999968,265.8643624999968,265.8643624999968,265.8643624999968,265.8643624999968,265.8643624999968,265.8643624999968,left,0.4586282999953255,266.3479651999951,266.3479651999951,None,,11,001,2025-12-19_13h55.03.919,2025C_exp1_comp,2022.2.4,59.928038414667434,
19.6,315,-1,1,1,73,181,47,266.3479651999951,266.3479651999951,266.84845220000716,266.91518159999396,266.9656113999954,266.9656113999954,266.9656113999954,266.9656113999954,267.01550330000464,267.01550330000464,267.01550330000464,267.01550330000464,267.01550330000464,267.01550330000464,267.01550330000464,267.01550330000464,267.01550330000464,right,0.3399539000238292,267.3822950000176,267.3822950000176,None,,11,001,2025-12-19_13h55.03.919,2025C_exp1_comp,2022.2.4,59.928038414667434,
15.7,315,-1,0,1,74,182,10,267.3822950000176,267.3822950000176,267.8831264000037,267.9498893000127,268.0000190999999,268.0000190999999,268.0000190999999,268.0000190999999,268.04999490000773,268.04999490000773,268.04999490000773,268.04999490000773,268.04999490000773,268.04999490000773,268.04999490000773,268.04999490000773,268.04999490000773,right,0.3538323999964632,268.43353260000004,268.43353260000004,None,,11,001,2025-12-19_13h55.03.919,2025C_exp1_comp,2022.2.4,59.928038414667434,
39.2,315,1,0,1,75,183,34,268.43353260000004,268.43353260000004,268.93406729999697,269.0007020000194,269.05111699999543,269.05111699999543,269.05111699999543,269.05111699999543,269.10085420001997,269.10085420001997,269.10085420001997,269.10085420001997,269.10085420001997,269.10085420001997,269.10085420001997,269.10085420001997,269.10085420001997,right,0.3744109999970533,269.5014208999928,269.5014208999928,None,,11,001,2025-12-19_13h55.03.919,2025C_exp1_comp,2022.2.4,59.928038414667434,
19.6,45,-1,-1,1,76,184,74,269.5014208999928,269.5014208999928,270.0018495999975,270.06839570001466,270.11883389999275,270.11883389999275,270.11883389999275,270.11883389999275,270.16864439999335,270.16864439999335,270.16864439999335,270.16864439999335,270.16864439999335,270.16864439999335,270.16864439999335,270.16864439999335,270.16864439999335,right,0.36328610000782646,270.5523703999934,270.5523703999934,None,,11,001,2025-12-19_13h55.03.919,2025C_exp1_comp,2022.2.4,59.928038414667434,
25.5,315,-1,0,1,77,185,13,270.5523703999934,270.5523703999934,271.05281079999986,271.11958500000765,271.16985910001677,271.16985910001677,271.16985910001677,271.16985910001677,271.2197412000096,271.2197412000096,271.2197412000096,271.2197412000096,271.2197412000096,271.2197412000096,271.2197412000096,271.2197412000096,271.2197412000096,right,0.34358179999981076,271.5866050000186,271.5866050000186,None,,11,001,2025-12-19_13h55.03.919,2025C_exp1_comp,2022.2.4,59.928038414667434,
25.5,315,1,0,1,78,186,31,271.5866050000186,271.5866050000186,272.08722010001657,272.1540879000095,272.20439880000777,272.20439880000777,272.20439880000777,272.20439880000777,272.2538787999947,272.2538787999947,272.2538787999947,272.2538787999947,272.2538787999947,272.2538787999947,272.2538787999947,272.2538787999947,272.2538787999947,left,0.5178407999919727,272.8044598000124,272.8044598000124,None,,11,001,2025-12-19_13h55.03.919,2025C_exp1_comp,2022.2.4,59.928038414667434,
22.7,315,1,-1,1,79,187,102,272.8044598000124,272.8044598000124,273.3049781000009,273.37182840000605,273.42231130000437,273.42231130000437,273.42231130000437,273.42231130000437,273.4720345000096,273.4720345000096,273.4720345000096,273.4720345000096,273.4720345000096,273.4720345000096,273.4720345000096,273.4720345000096,273.4720345000096,left,0.4352530000032857,273.9389316000161,273.9389316000161,None,,11,001,2025-12-19_13h55.03.919,2025C_exp1_comp,2022.2.4,59.928038414667434,
22.7,45,-1,0,1,80,188,3,273.9389316000161,273.9389316000161,274.43958750000456,274.50642770002014,274.5565032000013,274.5565032000013,274.5565032000013,274.5565032000013,274.60634309999296,274.60634309999296,274.60634309999296,274.60634309999296,274.60634309999296,274.60634309999296,274.60634309999296,274.60634309999296,274.60634309999296,right,0.39655890001449734,275.0234973000188,275.0234973000188,None,,11,001,2025-12-19_13h55.03.919,2025C_exp1_comp,2022.2.4,59.928038414667434,
35.3,45,-1,-1,1,81,189,78,275.0234973000188,275.0234973000188,275.524030200002,275.5904821000004,275.6408419999934,275.6408419999934,275.6408419999934,275.6408419999934,275.6908083000162,275.6908083000162,275.6908083000162,275.6908083000162,275.6908083000162,275.6908083000162,275.6908083000162,275.6908083000162,275.6908083000162,right,1.0163185000128578,276.72534659999656,276.72534659999656,None,,11,001,2025-12-19_13h55.03.919,2025C_exp1_comp,2022.2.4,59.928038414667434,
19.6,315,1,0,1,82,190,29,276.72534659999656,276.72534659999656,277.2256277000124,277.29234970000107,277.34271339999395,277.34271339999395,277.34271339999395,277.34271339999395,277.3925117000181,277.3925117000181,277.3925117000181,277.3925117000181,277.3925117000181,277.3925117000181,277.3925117000181,277.3925117000181,277.3925117000181,left,0.5394836000050418,277.95975420001196,277.95975420001196,None,,11,001,2025-12-19_13h55.03.919,2025C_exp1_comp,2022.2.4,59.928038414667434,
25.5,45,-1,0,1,83,191,4,277.95975420001196,277.95975420001196,278.4604143000033,278.52713850000873,278.5774367999984,278.5774367999984,278.5774367999984,278.5774367999984,278.62710899999365,278.62710899999365,278.62710899999365,278.62710899999365,278.62710899999365,278.62710899999365,278.62710899999365,278.62710899999365,278.62710899999365,right,0.3759818999969866,279.0274250000075,279.0274250000075,None,,11,001,2025-12-19_13h55.03.919,2025C_exp1_comp,2022.2.4,59.928038414667434,
22.7,315,-1,0,1,84,192,12,279.0274250000075,279.0274250000075,279.5279877000139,279.5947220000089,279.6449123000202,279.6449123000202,279.6449123000202,279.6449123000202,279.6947431000008,279.6947431000008,279.6947431000008,279.6947431000008,279.6947431000008,279.6947431000008,279.6947431000008,279.6947431000008,279.6947431000008,right,0.38087560000712983,280.0949450000189,280.0949450000189,None,,11,001,2025-12-19_13h55.03.919,2025C_exp1_comp,2022.2.4,59.928038414667434,
15.7,315,-1,-1,1,85,193,82,280.0949450000189,280.0949450000189,280.5957249000203,280.66241640000953,280.71272539999336,280.71272539999336,280.71272539999336,280.71272539999336,280.7623184999975,280.7623184999975,280.7623184999975,280.7623184999975,280.7623184999975,280.7623184999975,280.7623184999975,280.7623184999975,280.7623184999975,right,0.3688088999770116,281.1632360999938,281.1632360999938,None,,11,001,2025-12-19_13h55.03.919,2025C_exp1_comp,2022.2.4,59.928038414667434,
12.1,315,1,0,1,86,194,27,281.1632360999938,281.1632360999938,281.66348099999595,281.73008800001116,281.78041500001564,281.78041500001564,281.78041500001564,281.78041500001564,281.8301289000083,281.8301289000083,281.8301289000083,281.8301289000083,281.8301289000083,281.8301289000083,281.8301289000083,281.8301289000083,281.8301289000083,left,0.4129425999999512,282.263936000003,282.263936000003,None,,11,001,2025-12-19_13h55.03.919,2025C_exp1_comp,2022.2.4,59.928038414667434,
35.3,315,1,1,1,87,195,69,282.263936000003,282.263936000003,282.76446420000866,282.83109740001964,282.8812956000038,282.8812956000038,282.8812956000038,282.8812956000038,282.9312929000007,282.9312929000007,282.9312929000007,282.9312929000007,282.9312929000007,282.9312929000007,282.9312929000007,282.9312929000007,282.9312929000007,right,0.3917764000070747,283.3484906000085,283.3484906000085,None,,11,001,2025-12-19_13h55.03.919,2025C_exp1_comp,2022.2.4,59.928038414667434,
19.6,315,-1,0,1,88,196,11,283.3484906000085,283.3484906000085,283.84898599999724,283.91568330000155,283.9659767000121,283.9659767000121,283.9659767000121,283.9659767000121,284.01567530000466,284.01567530000466,284.01567530000466,284.01567530000466,284.01567530000466,284.01567530000466,284.01567530000466,284.01567530000466,284.01567530000466,right,0.42012170000816695,284.4661438000039,284.4661438000039,None,,11,001,2025-12-19_13h55.03.919,2025C_exp1_comp,2022.2.4,59.928038414667434,
25.5,315,-1,1,1,89,197,49,284.4661438000039,284.4661438000039,284.96652459999314,285.0333464000141,285.0837371000089,285.0837371000089,285.0837371000089,285.0837371000089,285.1336515000148,285.1336515000148,285.1336515000148,285.1336515000148,285.1336515000148,285.1336515000148,285.1336515000148,285.1336515000148,285.1336515000148,right,0.4299814999976661,285.58402140002,285.58402140002,None,,11,001,2025-12-19_13h55.03.919,2025C_exp1_comp,2022.2.4,59.928038414667434,
39.2,45,1,-1,1,90,198,97,285.58402140002,285.58402140002,286.08473120001145,286.15140190001694,286.2016372999933,286.2016372999933,286.2016372999933,286.2016372999933,286.2512359000102,286.2512359000102,286.2512359000102,286.2512359000102,286.2512359000102,286.2512359000102,286.2512359000102,286.2512359000102,286.2512359000102,right,0.6486340999836102,286.9187704999931,286.9187704999931,None,,11,001,2025-12-19_13h55.03.919,2025C_exp1_comp,2022.2.4,59.928038414667434,
42.7,315,-1,-1,1,91,199,89,286.9187704999931,286.9187704999931,287.41931110000587,287.48606379999546,287.5361988999939,287.5361988999939,287.5361988999939,287.5361988999939,287.58607059999486,287.58607059999486,287.58607059999486,287.58607059999486,287.58607059999486,287.58607059999486,287.58607059999486,287.58607059999486,287.58607059999486,right,0.5207282000046689,288.1364489000116,288.1364489000116,None,,11,001,2025-12-19_13h55.03.919,2025C_exp1_comp,2022.2.4,59.928038414667434,
35.3,45,-1,1,1,92,200,42,288.1364489000116,288.1364489000116,288.63720610001474,288.7037421000132,288.75400190000073,288.75400190000073,288.75400190000073,288.75400190000073,288.8038898000086,288.8038898000086,288.8038898000086,288.8038898000086,288.8038898000086,288.8038898000086,288.8038898000086,288.8038898000086,288.8038898000086,right,0.4628954000072554,289.2876012000197,289.2876012000197,None,,11,001,2025-12-19_13h55.03.919,2025C_exp1_comp,2022.2.4,59.928038414667434,
35.3,45,-1,0,1,93,201,6,289.2876012000197,289.2876012000197,289.78839689999586,289.85480190001545,289.9051749999926,289.9051749999926,289.9051749999926,289.9051749999926,289.95492330001434,289.95492330001434,289.95492330001434,289.95492330001434,289.95492330001434,289.95492330001434,289.95492330001434,289.95492330001434,289.95492330001434,left,0.7438981000159401,290.72250730000087,290.72250730000087,None,,11,001,2025-12-19_13h55.03.919,2025C_exp1_comp,2022.2.4,59.928038414667434,
22.7,45,-1,-1,1,94,202,75,290.72250730000087,290.72250730000087,291.2229357000033,291.2900236000132,291.3403315000178,291.3403315000178,291.3403315000178,291.3403315000178,291.3898514000175,291.3898514000175,291.3898514000175,291.3898514000175,291.3898514000175,291.3898514000175,291.3898514000175,291.3898514000175,291.3898514000175,right,0.41299710000748746,291.82365070001106,291.82365070001106,None,,11,001,2025-12-19_13h55.03.919,2025C_exp1_comp,2022.2.4,59.928038414667434,
35.3,45,1,1,1,95,203,60,291.82365070001106,291.82365070001106,292.3242642999976,292.3908916999935,292.44116139999824,292.44116139999824,292.44116139999824,292.44116139999824,292.49096130000544,292.49096130000544,292.49096130000544,292.49096130000544,292.49096130000544,292.49096130000544,292.49096130000544,292.49096130000544,292.49096130000544,right,0.3919626999995671,292.9080173000111,292.9080173000111,None,,11,001,2025-12-19_13h55.03.919,2025C_exp1_comp,2022.2.4,59.928038414667434,
35.3,45,1,-1,1,96,204,96,292.9080173000111,292.9080173000111,293.4085834000143,293.4752745000005,293.5255911000131,293.5255911000131,293.5255911000131,293.5255911000131,293.5753025000158,293.5753025000158,293.5753025000158,293.5753025000158,293.5753025000158,293.5753025000158,293.5753025000158,293.5753025000158,293.5753025000158,left,0.4440972000011243,294.0424985999998,294.0424985999998,None,,11,001,2025-12-19_13h55.03.919,2025C_exp1_comp,2022.2.4,59.928038414667434,
