contrast,ori,lefttarget,righttarget,postcue,precue,trials.thisRepN,trials.thisTrialN,trials.thisN,trials.thisIndex,fix1.started,fix2.started,precue_2.started,precue_2.stopped,left_grating.started,right_grating.started,noise_left.started,noise_right.started,fix1.stopped,fix2.stopped,left_grating.stopped,right_grating.stopped,noise_left.stopped,noise_right.stopped,key_resp.started,postcue_2.started,fix1_2.started,fix2_2.started,key_resp.keys,key_resp.rt,key_resp_2.started,break_text_2.started,key_resp_2.keys,key_resp_2.rt,participant,session,date,expName,psychopyVersion,frameRate,
19.6,45,1,0,-1,0,0,0,0,20,18.96788340000785,18.96788340000785,19.441035800002282,19.507792399992468,19.568100100004813,19.568100100004813,19.568100100004813,19.568100100004813,19.607909299986204,19.607909299986204,19.607909299986204,19.607909299986204,19.607909299986204,19.607909299986204,19.624620899994625,19.624620899994625,19.624620899994625,19.624620899994625,num_1,11.618981400009943,31.26952830000664,31.26952830000664,None,,11,001,2025-12-19_13h10.34.385,2025C_exp1_detect,2022.2.4,60.006900790251144,
39.2,45,1,1,1,1,0,1,1,421,31.26952830000664,31.26952830000664,31.770063899981324,31.83684340000036,31.88713899999857,31.88713899999857,31.88713899999857,31.88713899999857,31.93699459999334,31.93699459999334,31.93699459999334,31.93699459999334,31.93699459999334,31.93699459999334,31.93699459999334,31.93699459999334,31.93699459999334,31.93699459999334,num_3,2.6025832999730483,34.556171899981564,34.556171899981564,None,,11,001,2025-12-19_13h10.34.385,2025C_exp1_detect,2022.2.4,60.006900790251144,
39.2,45,1,1,1,0,0,2,2,133,34.556171899981564,34.556171899981564,35.05662600000505,35.123346899985336,35.173703100008424,35.173703100008424,35.173703100008424,35.173703100008424,35.223651300009806,35.223651300009806,35.223651300009806,35.223651300009806,35.223651300009806,35.223651300009806,35.223651300009806,35.223651300009806,35.223651300009806,35.223651300009806,num_3,2.8603082000045106,38.10996169998543,38.10996169998543,None,,11,001,2025-12-19_13h10.34.385,2025C_exp1_detect,2022.2.4,60.006900790251144,
15.7,45,0,1,1,-1,0,3,3,253,38.10996169998543,38.10996169998543,38.61030249999021,38.676991499989526,38.72716139999102,38.72716139999102,38.72716139999102,38.72716139999102,38.77706550000585,38.77706550000585,38.77706550000585,38.77706550000585,38.77706550000585,38.77706550000585,38.77706550000585,38.77706550000585,38.77706550000585,38.77706550000585,num_3,27.99422809999669,66.78842609998537,66.78842609998537,None,,11,001,2025-12-19_13h10.34.385,2025C_exp1_detect,2022.2.4,60.006900790251144,
29.4,45,1,1,-1,-1,0,4,4,203,66.78842609998537,66.78842609998537,67.28894490000675,67.35564510000404,67.40595869999379,67.40595869999379,67.40595869999379,67.40595869999379,67.45570940000471,67.45570940000471,67.45570940000471,67.45570940000471,67.45570940000471,67.45570940000471,67.45570940000471,67.45570940000471,67.45570940000471,67.45570940000471,num_3,3.8841252000129316,71.35965539998142,71.35965539998142,None,,11,001,2025-12-19_13h10.34.385,2025C_exp1_detect,2022.2.4,60.006900790251144,
29.4,315,0,0,-1,0,0,5,5,14,71.35965539998142,71.35965539998142,71.8601323000039,71.92684450000525,71.97710309998365,71.97710309998365,71.97710309998365,71.97710309998365,72.02696970000397,72.02696970000397,72.02696970000397,72.02696970000397,72.02696970000397,72.02696970000397,72.02696970000397,72.02696970000397,72.02696970000397,72.02696970000397,num_3,2.0730711999931373,74.12900929999887,74.12900929999887,None,,11,001,2025-12-19_13h10.34.385,2025C_exp1_detect,2022.2.4,60.006900790251144,
39.2,45,0,0,-1,-1,0,6,6,151,74.12900929999887,74.12900929999887,74.62966129998676,74.69635260000359,74.74659029999748,74.74659029999748,74.74659029999748,74.74659029999748,74.7966599999927,74.7966599999927,74.7966599999927,74.7966599999927,74.7966599999927,74.7966599999927,74.7966599999927,74.7966599999927,74.7966599999927,74.7966599999927,num_1,1.2384286999877077,76.06425319999107,76.06425319999107,None,,11,001,2025-12-19_13h10.34.385,2025C_exp1_detect,2022.2.4,60.006900790251144,
15.7,315,0,0,1,1,0,7,7,370,76.06425319999107,76.06425319999107,76.56475459999638,76.63147839999874,76.68177140000626,76.68177140000626,76.68177140000626,76.68177140000626,76.73166489999858,76.73166489999858,76.73166489999858,76.73166489999858,76.73166489999858,76.73166489999858,76.73166489999858,76.73166489999858,76.73166489999858,76.73166489999858,num_3,3.039974900020752,79.80151160000241,79.80151160000241,None,,11,001,2025-12-19_13h10.34.385,2025C_exp1_detect,2022.2.4,60.006900790251144,
25.5,315,1,0,-1,0,0,8,8,31,79.80151160000241,79.80151160000241,80.30216220000875,80.3685382999829,80.41884150000988,80.41884150000988,80.41884150000988,80.41884150000988,80.46889160000137,80.46889160000137,80.46889160000137,80.46889160000137,80.46889160000137,80.46889160000137,80.46889160000137,80.46889160000137,80.46889160000137,80.46889160000137,num_3,2.2864417000091635,82.7876183000044,82.7876183000044,None,,11,001,2025-12-19_13h10.34.385,2025C_exp1_detect,2022.2.4,60.006900790251144,
12.1,45,0,0,-1,0,0,9,9,0,82.7876183000044,82.7876183000044,83.28817069999059,83.35487229999853,83.40515499998583,83.40515499998583,83.40515499998583,83.40515499998583,83.45505550000235,83.45505550000235,83.45505550000235,83.45505550000235,83.45505550000235,83.45505550000235,83.45505550000235,83.45505550000235,83.45505550000235,83.45505550000235,num_3,3.388663899997482,86.87516379999579,86.87516379999579,None,,11,001,2025-12-19_13h10.34.385,2025C_exp1_detect,2022.2.4,60.006900790251144,
12.1,315,0,1,-1,1,0,10,10,333,86.87516379999579,86.87516379999579,87.37558319998789,87.4425127999857,87.49265999998897,87.49265999998897,87.49265999998897,87.49265999998897,87.54258889998891,87.54258889998891,87.54258889998891,87.54258889998891,87.54258889998891,87.54258889998891,87.54258889998891,87.54258889998891,87.54258889998891,87.54258889998891,num_1,0.9966571999830194,88.56011799999396,88.56011799999396,None,,11,001,2025-12-19_13h10.34.385,2025C_exp1_detect,2022.2.4,60.006900790251144,
12.1,45,1,1,-1,-1,0,11,11,198,88.56011799999396,88.56011799999396,89.06107019999763,89.12767069999245,89.17779220000375,89.17779220000375,89.17779220000375,89.17779220000375,89.22773109999252,89.22773109999252,89.22773109999252,89.22773109999252,89.22773109999252,89.22773109999252,89.22773109999252,89.22773109999252,89.22773109999252,89.22773109999252,num_1,1.199748900020495,90.44545810000272,90.44545810000272,None,,11,001,2025-12-19_13h10.34.385,2025C_exp1_detect,2022.2.4,60.006900790251144,
15.7,45,1,0,-1,1,0,12,12,307,90.44545810000272,90.44545810000272,90.94632439999259,91.01289499999257,91.06315810000524,91.06315810000524,91.06315810000524,91.06315810000524,91.112750100001,91.112750100001,91.112750100001,91.112750100001,91.112750100001,91.112750100001,91.112750100001,91.112750100001,91.112750100001,91.112750100001,num_1,0.8268250999972224,91.96361869998509,91.96361869998509,None,,11,001,2025-12-19_13h10.34.385,2025C_exp1_detect,2022.2.4,60.006900790251144,
25.5,45,1,0,-1,0,0,13,13,22,91.96361869998509,91.96361869998509,92.46434159998898,92.53112100000726,92.58129249999183,92.58129249999183,92.58129249999183,92.58129249999183,92.63116849999642,92.63116849999642,92.63116849999642,92.63116849999642,92.63116849999642,92.63116849999642,92.63116849999642,92.63116849999642,92.63116849999642,92.63116849999642,num_1,0.820570800016867,93.4817470999842,93.4817470999842,None,,11,001,2025-12-19_13h10.34.385,2025C_exp1_detect,2022.2.4,60.006900790251144,
39.2,45,1,0,1,1,0,14,14,385,93.4817470999842,93.4817470999842,93.98246339999605,94.04917839998961,94.0994807999814,94.0994807999814,94.0994807999814,94.0994807999814,94.1493921999936,94.1493921999936,94.1493921999936,94.1493921999936,94.1493921999936,94.1493921999936,94.1493921999936,94.1493921999936,94.1493921999936,94.1493921999936,num_3,4.878521200007526,99.05388930000481,99.05388930000481,None,,11,001,2025-12-19_13h10.34.385,2025C_exp1_detect,2022.2.4,60.006900790251144,
29.4,315,1,1,1,0,0,15,15,140,99.05388930000481,99.05388930000481,99.55445739999413,99.62158320000162,99.6717340000032,99.6717340000032,99.6717340000032,99.6717340000032,99.72152389999246,99.72152389999246,99.72152389999246,99.72152389999246,99.72152389999246,99.72152389999246,99.72152389999246,99.72152389999246,99.72152389999246,99.72152389999246,num_3,1.2107937000109814,100.95584119998966,100.95584119998966,None,,11,001,2025-12-19_13h10.34.385,2025C_exp1_detect,2022.2.4,60.006900790251144,
42.7,315,1,0,-1,0,0,16,16,35,100.95584119998966,100.95584119998966,101.456792699988,101.52332419998129,101.57346479999251,101.57346479999251,101.57346479999251,101.57346479999251,101.62319559999742,101.62319559999742,101.62319559999742,101.62319559999742,101.62319559999742,101.62319559999742,101.62319559999742,101.62319559999742,101.62319559999742,101.62319559999742,num_1,0.9572795999993104,102.60743709999952,102.60743709999952,None,,11,001,2025-12-19_13h10.34.385,2025C_exp1_detect,2022.2.4,60.006900790251144,
29.4,315,1,1,-1,-1,0,17,17,212,102.60743709999952,102.60743709999952,103.10833960000309,103.17492379999021,103.22536569999647,103.22536569999647,103.22536569999647,103.22536569999647,103.27506789998733,103.27506789998733,103.27506789998733,103.27506789998733,103.27506789998733,103.27506789998733,103.27506789998733,103.27506789998733,103.27506789998733,103.27506789998733,num_1,0.8801271000120323,104.17576630000258,104.17576630000258,None,,11,001,2025-12-19_13h10.34.385,2025C_exp1_detect,2022.2.4,60.006900790251144,
35.3,315,0,1,-1,1,0,18,18,339,104.17576630000258,104.17576630000258,104.67661009999574,104.74333949998254,104.79357330000494,104.79357330000494,104.79357330000494,104.79357330000494,104.8435618999938,104.8435618999938,104.8435618999938,104.8435618999938,104.8435618999938,104.8435618999938,104.8435618999938,104.8435618999938,104.8435618999938,104.8435618999938,num_1,1.5521538999746554,106.42822410000372,106.42822410000372,None,,11,001,2025-12-19_13h10.34.385,2025C_exp1_detect,2022.2.4,60.006900790251144,
15.7,45,0,0,1,-1,0,19,19,217,106.42822410000372,106.42822410000372,106.92867659998592,106.99551209999481,107.0458110999898,107.0458110999898,107.0458110999898,107.0458110999898,107.09562929999083,107.09562929999083,107.09562929999083,107.09562929999083,107.09562929999083,107.09562929999083,107.09562929999083,107.09562929999083,107.09562929999083,107.09562929999083,num_3,1.0680435999820475,108.17971789999865,108.17971789999865,None,,11,001,2025-12-19_13h10.34.385,2025C_exp1_detect,2022.2.4,60.006900790251144,
29.4,315,0,0,1,0,0,20,20,86,108.17971789999865,108.17971789999865,108.68053300000611,108.74725009998656,108.79747130000032,108.79747130000032,108.79747130000032,108.79747130000032,108.84728089999408,108.84728089999408,108.84728089999408,108.84728089999408,108.84728089999408,108.84728089999408,108.84728089999408,108.84728089999408,108.84728089999408,108.84728089999408,num_1,1.7883713000046555,110.66585590000614,110.66585590000614,None,,11,001,2025-12-19_13h10.34.385,2025C_exp1_detect,2022.2.4,60.006900790251144,
35.3,315,1,0,-1,0,0,21,21,33,110.66585590000614,110.66585590000614,111.16657480000868,111.2331664999947,111.28361169999698,111.28361169999698,111.28361169999698,111.28361169999698,111.33343589998549,111.33343589998549,111.33343589998549,111.33343589998549,111.33343589998549,111.33343589998549,111.33343589998549,111.33343589998549,111.33343589998549,111.33343589998549,num_1,1.0782746000040788,112.43396669998765,112.43396669998765,None,,11,001,2025-12-19_13h10.34.385,2025C_exp1_detect,2022.2.4,60.006900790251144,
19.6,315,1,0,1,0,0,22,22,101,112.43396669998765,112.43396669998765,112.9347376000078,113.00146030000178,113.05174979998264,113.05174979998264,113.05174979998264,113.05174979998264,113.10163689998444,113.10163689998444,113.10163689998444,113.10163689998444,113.10163689998444,113.10163689998444,113.10163689998444,113.10163689998444,113.10163689998444,113.10163689998444,num_1,1.727270099974703,114.85332249998464,114.85332249998464,None,,11,001,2025-12-19_13h10.34.385,2025C_exp1_detect,2022.2.4,60.006900790251144,
39.2,45,0,0,-1,1,0,23,23,295,114.85332249998464,114.85332249998464,115.35381400000188,115.42052640000475,115.4706549999828,115.4706549999828,115.4706549999828,115.4706549999828,115.52062429999933,115.52062429999933,115.52062429999933,115.52062429999933,115.52062429999933,115.52062429999933,115.52062429999933,115.52062429999933,115.52062429999933,115.52062429999933,num_1,0.9862941000028513,116.5380570999987,116.5380570999987,None,,11,001,2025-12-19_13h10.34.385,2025C_exp1_detect,2022.2.4,60.006900790251144,
22.7,45,1,0,1,1,0,24,24,381,116.5380570999987,116.5380570999987,117.03854770000908,117.10533759999089,117.1556481999869,117.1556481999869,117.1556481999869,117.1556481999869,117.205449400004,117.205449400004,117.205449400004,117.205449400004,117.205449400004,117.205449400004,117.205449400004,117.205449400004,117.205449400004,117.205449400004,num_3,0.9263733999978285,118.15635000000475,118.15635000000475,None,,11,001,2025-12-19_13h10.34.385,2025C_exp1_detect,2022.2.4,60.006900790251144,
19.6,315,1,1,1,1,0,25,25,425,118.15635000000475,118.15635000000475,118.6571641000046,118.72380999999586,118.77415290000499,118.77415290000499,118.77415290000499,118.77415290000499,118.82400619998225,118.82400619998225,118.82400619998225,118.82400619998225,118.82400619998225,118.82400619998225,118.82400619998225,118.82400619998225,118.82400619998225,118.82400619998225,num_1,1.2119049000029918,120.05829349998385,120.05829349998385,None,,11,001,2025-12-19_13h10.34.385,2025C_exp1_detect,2022.2.4,60.006900790251144,
29.4,45,1,0,1,0,0,26,26,95,120.05829349998385,120.05829349998385,120.5589670999907,120.625440600008,120.67603800000506,120.67603800000506,120.67603800000506,120.67603800000506,120.72607410000637,120.72607410000637,120.72607410000637,120.72607410000637,120.72607410000637,120.72607410000637,120.72607410000637,120.72607410000637,120.72607410000637,120.72607410000637,num_3,0.9102575000142679,121.65982209998765,121.65982209998765,None,,11,001,2025-12-19_13h10.34.385,2025C_exp1_detect,2022.2.4,60.006900790251144,
42.7,45,0,1,-1,-1,0,27,27,188,121.65982209998765,121.65982209998765,122.16050490000634,122.22735129998182,122.27763589998358,122.27763589998358,122.27763589998358,122.27763589998358,122.32754639998893,122.32754639998893,122.32754639998893,122.32754639998893,122.32754639998893,122.32754639998893,122.32754639998893,122.32754639998893,122.32754639998893,122.32754639998893,num_1,1.0289169999887235,123.37826319999294,123.37826319999294,None,,11,001,2025-12-19_13h10.34.385,2025C_exp1_detect,2022.2.4,60.006900790251144,
35.3,315,1,1,-1,-1,0,28,28,213,123.37826319999294,123.37826319999294,123.8789911000058,123.94577099999879,123.99600260000443,123.99600260000443,123.99600260000443,123.99600260000443,124.04571340000257,124.04571340000257,124.04571340000257,124.04571340000257,124.04571340000257,124.04571340000257,124.04571340000257,124.04571340000257,124.04571340000257,124.04571340000257,num_1,0.8543666999903508,124.92976009999984,124.92976009999984,None,,11,001,2025-12-19_13h10.34.385,2025C_exp1_detect,2022.2.4,60.006900790251144,
15.7,315,0,1,-1,-1,0,29,29,190,124.92976009999984,124.92976009999984,125.43056539999088,125.49729639998986,125.54757969998172,125.54757969998172,125.54757969998172,125.54757969998172,125.59744529999443,125.59744529999443,125.59744529999443,125.59744529999443,125.59744529999443,125.59744529999443,125.59744529999443,125.59744529999443,125.59744529999443,125.59744529999443,num_1,0.6950284999911673,126.31447449998814,126.31447449998814,None,,11,001,2025-12-19_13h10.34.385,2025C_exp1_detect,2022.2.4,60.006900790251144,
15.7,315,1,0,1,1,0,30,30,388,126.31447449998814,126.31447449998814,126.81535260000965,126.88212699998985,126.93236959999194,126.93236959999194,126.93236959999194,126.93236959999194,126.98223200000939,126.98223200000939,126.98223200000939,126.98223200000939,126.98223200000939,126.98223200000939,126.98223200000939,126.98223200000939,126.98223200000939,126.98223200000939,num_3,2.3334172000177205,129.33433039998636,129.33433039998636,None,,11,001,2025-12-19_13h10.34.385,2025C_exp1_detect,2022.2.4,60.006900790251144,
15.7,315,1,0,1,-1,0,31,31,244,129.33433039998636,129.33433039998636,129.8349404000037,129.9016030000057,129.95188139998936,129.95188139998936,129.95188139998936,129.95188139998936,130.00179809998372,130.00179809998372,130.00179809998372,130.00179809998372,130.00179809998372,130.00179809998372,130.00179809998372,130.00179809998372,130.00179809998372,130.00179809998372,num_1,1.6500413999892771,131.66984049999155,131.66984049999155,None,,11,001,2025-12-19_13h10.34.385,2025C_exp1_detect,2022.2.4,60.006900790251144,
29.4,45,1,0,-1,0,0,32,32,23,131.66984049999155,131.66984049999155,132.1706035999814,132.23744259998784,132.28761480000685,132.28761480000685,132.28761480000685,132.28761480000685,132.33757430000696,132.33757430000696,132.33757430000696,132.33757430000696,132.33757430000696,132.33757430000696,132.33757430000696,132.33757430000696,132.33757430000696,132.33757430000696,num_1,1.210894299991196,133.57179409998935,133.57179409998935,None,,11,001,2025-12-19_13h10.34.385,2025C_exp1_detect,2022.2.4,60.006900790251144,
15.7,315,0,1,1,0,0,33,33,118,133.57179409998935,133.57179409998935,134.0726899000001,134.13923739999882,134.18946510000387,134.18946510000387,134.18946510000387,134.18946510000387,134.2391867999977,134.2391867999977,134.2391867999977,134.2391867999977,134.2391867999977,134.2391867999977,134.2391867999977,134.2391867999977,134.2391867999977,134.2391867999977,num_1,1.0039051999920048,135.27349920000415,135.27349920000415,None,,11,001,2025-12-19_13h10.34.385,2025C_exp1_detect,2022.2.4,60.006900790251144,
35.3,45,1,1,-1,-1,0,34,34,204,135.27349920000415,135.27349920000415,135.77422289998503,135.840947699995,135.8912112999824,135.8912112999824,135.8912112999824,135.8912112999824,135.9407765000069,135.9407765000069,135.9407765000069,135.9407765000069,135.9407765000069,135.9407765000069,135.9407765000069,135.9407765000069,135.9407765000069,135.9407765000069,num_3,2.9188913999823853,138.87702990000253,138.87702990000253,None,,11,001,2025-12-19_13h10.34.385,2025C_exp1_detect,2022.2.4,60.006900790251144,
12.1,45,0,0,-1,-1,0,35,35,144,138.87702990000253,138.87702990000253,139.3779438000056,139.44453829998383,139.49498679998214,139.49498679998214,139.49498679998214,139.49498679998214,139.54471729998477,139.54471729998477,139.54471729998477,139.54471729998477,139.54471729998477,139.54471729998477,139.54471729998477,139.54471729998477,139.54471729998477,139.54471729998477,num_3,1.1623916999960784,140.72887069999706,140.72887069999706,None,,11,001,2025-12-19_13h10.34.385,2025C_exp1_detect,2022.2.4,60.006900790251144,
39.2,315,1,1,1,0,0,36,36,142,140.72887069999706,140.72887069999706,141.22936719999416,141.2963727999886,141.34673220000695,141.34673220000695,141.34673220000695,141.34673220000695,141.3965409999946,141.3965409999946,141.3965409999946,141.3965409999946,141.3965409999946,141.3965409999946,141.3965409999946,141.3965409999946,141.3965409999946,141.3965409999946,num_3,1.3669783999794163,142.78096430000733,142.78096430000733,None,,11,001,2025-12-19_13h10.34.385,2025C_exp1_detect,2022.2.4,60.006900790251144,
35.3,315,1,1,1,1,0,37,37,429,142.78096430000733,142.78096430000733,143.28148420000798,143.34832230000757,143.3987792999833,143.3987792999833,143.3987792999833,143.3987792999833,143.44875489998958,143.44875489998958,143.44875489998958,143.44875489998958,143.44875489998958,143.44875489998958,143.44875489998958,143.44875489998958,143.44875489998958,143.44875489998958,num_3,1.1548532000160776,144.63278049998917,144.63278049998917,None,,11,001,2025-12-19_13h10.34.385,2025C_exp1_detect,2022.2.4,60.006900790251144,
35.3,315,0,0,-1,0,0,38,38,15,144.63278049998917,144.63278049998917,145.13346379998256,145.20027159998426,145.25045359999058,145.25045359999058,145.25045359999058,145.25045359999058,145.30049259998486,145.30049259998486,145.30049259998486,145.30049259998486,145.30049259998486,145.30049259998486,145.30049259998486,145.30049259998486,145.30049259998486,145.30049259998486,num_1,1.710848699993221,147.0351820999931,147.0351820999931,None,,11,001,2025-12-19_13h10.34.385,2025C_exp1_detect,2022.2.4,60.006900790251144,
42.7,45,0,1,1,1,0,39,39,404,147.0351820999931,147.0351820999931,147.5358164999925,147.60283600000548,147.65315729999566,147.65315729999566,147.65315729999566,147.65315729999566,147.70303820000845,147.70303820000845,147.70303820000845,147.70303820000845,147.70303820000845,147.70303820000845,147.70303820000845,147.70303820000845,147.70303820000845,147.70303820000845,num_1,0.9966574999853037,148.72025469999062,148.72025469999062,None,,11,001,2025-12-19_13h10.34.385,2025C_exp1_detect,2022.2.4,60.006900790251144,
12.1,315,1,1,1,1,0,40,40,423,148.72025469999062,148.72025469999062,149.22107140001026,149.28762459999416,149.33804679999594,149.33804679999594,149.33804679999594,149.33804679999594,149.38780070000212,149.38780070000212,149.38780070000212,149.38780070000212,149.38780070000212,149.38780070000212,149.38780070000212,149.38780070000212,149.38780070000212,149.38780070000212,num_1,0.9281626000010874,150.33875510000507,150.33875510000507,None,,11,001,2025-12-19_13h10.34.385,2025C_exp1_detect,2022.2.4,60.006900790251144,
35.3,45,1,1,1,1,0,41,41,420,150.33875510000507,150.33875510000507,150.83926539999084,150.90616600000067,150.9561735999887,150.9561735999887,150.9561735999887,150.9561735999887,151.00592180000967,151.00592180000967,151.00592180000967,151.00592180000967,151.00592180000967,151.00592180000967,151.00592180000967,151.00592180000967,151.00592180000967,151.00592180000967,num_3,0.9820102999801748,152.00692280000658,152.00692280000658,None,,11,001,2025-12-19_13h10.34.385,2025C_exp1_detect,2022.2.4,60.006900790251144,
39.2,45,1,0,-1,1,0,42,42,313,152.00692280000658,152.00692280000658,152.50748870000825,152.57419489999302,152.6245396999875,152.6245396999875,152.6245396999875,152.6245396999875,152.67433999999776,152.67433999999776,152.67433999999776,152.67433999999776,152.67433999999776,152.67433999999776,152.67433999999776,152.67433999999776,152.67433999999776,152.67433999999776,num_1,1.3534257000137586,154.05884889999288,154.05884889999288,None,,11,001,2025-12-19_13h10.34.385,2025C_exp1_detect,2022.2.4,60.006900790251144,
25.5,45,1,1,-1,0,0,43,43,58,154.05884889999288,154.05884889999288,154.55983879999258,154.62649299998884,154.6765555999882,154.6765555999882,154.6765555999882,154.6765555999882,154.72641050000675,154.72641050000675,154.72641050000675,154.72641050000675,154.72641050000675,154.72641050000675,154.72641050000675,154.72641050000675,154.72641050000675,154.72641050000675,num_3,2.1567234999965876,156.9117877999961,156.9117877999961,None,,11,001,2025-12-19_13h10.34.385,2025C_exp1_detect,2022.2.4,60.006900790251144,
19.6,315,0,1,-1,0,0,44,44,47,156.9117877999961,156.9117877999961,157.41247839998687,157.47922390000895,157.52940800000215,157.52940800000215,157.52940800000215,157.52940800000215,157.57938360000844,157.57938360000844,157.57938360000844,157.57938360000844,157.57938360000844,157.57938360000844,157.57938360000844,157.57938360000844,157.57938360000844,157.57938360000844,num_3,1.4405308999994304,159.04725420000614,159.04725420000614,None,,11,001,2025-12-19_13h10.34.385,2025C_exp1_detect,2022.2.4,60.006900790251144,
42.7,45,1,0,-1,0,0,45,45,26,159.04725420000614,159.04725420000614,159.5480108000047,159.6148428999877,159.6650595999963,159.6650595999963,159.6650595999963,159.6650595999963,159.714913600008,159.714913600008,159.714913600008,159.714913600008,159.714913600008,159.714913600008,159.714913600008,159.714913600008,159.714913600008,159.714913600008,num_1,0.9284408999956213,160.66550339999958,160.66550339999958,None,,11,001,2025-12-19_13h10.34.385,2025C_exp1_detect,2022.2.4,60.006900790251144,
29.4,315,1,0,-1,0,0,46,46,32,160.66550339999958,160.66550339999958,161.16622549999738,161.23295750000398,161.28327489999356,161.28327489999356,161.28327489999356,161.28327489999356,161.33298059998197,161.33298059998197,161.33298059998197,161.33298059998197,161.33298059998197,161.33298059998197,161.33298059998197,161.33298059998197,161.33298059998197,161.33298059998197,num_1,0.7668064000026789,162.11694579999312,162.11694579999312,None,,11,001,2025-12-19_13h10.34.385,2025C_exp1_detect,2022.2.4,60.006900790251144,
39.2,45,1,0,-1,-1,0,47,47,169,162.11694579999312,162.11694579999312,162.61746700000367,162.68433610000648,162.73471719998633,162.73471719998633,162.73471719998633,162.73471719998633,162.78443909998168,162.78443909998168,162.78443909998168,162.78443909998168,162.78443909998168,162.78443909998168,162.78443909998168,162.78443909998168,162.78443909998168,162.78443909998168,num_1,0.9157380000106059,163.7185862000042,163.7185862000042,None,,11,001,2025-12-19_13h10.34.385,2025C_exp1_detect,2022.2.4,60.006900790251144,
25.5,315,0,1,-1,-1,0,48,48,193,163.7185862000042,163.7185862000042,164.21958239999367,164.28615999998874,164.33647809998365,164.33647809998365,164.33647809998365,164.33647809998365,164.38632150000194,164.38632150000194,164.38632150000194,164.38632150000194,164.38632150000194,164.38632150000194,164.38632150000194,164.38632150000194,164.38632150000194,164.38632150000194,num_3,1.0331796999962535,165.4369546000089,165.4369546000089,None,,11,001,2025-12-19_13h10.34.385,2025C_exp1_detect,2022.2.4,60.006900790251144,
35.3,45,0,0,-1,0,0,49,49,6,165.4369546000089,165.4369546000089,165.9377411000023,166.00439660000848,166.05443170000217,166.05443170000217,166.05443170000217,166.05443170000217,166.10471029998735,166.10471029998735,166.10471029998735,166.10471029998735,166.10471029998735,166.10471029998735,166.10471029998735,166.10471029998735,166.10471029998735,166.10471029998735,num_1,2.091175299981842,168.2230348000012,168.2230348000012,None,,11,001,2025-12-19_13h10.34.385,2025C_exp1_detect,2022.2.4,60.006900790251144,
12.1,315,0,0,1,-1,0,50,50,225,168.2230348000012,168.2230348000012,168.7237596999912,168.7903809999989,168.84072509998805,168.84072509998805,168.84072509998805,168.84072509998805,168.890771699982,168.890771699982,168.890771699982,168.890771699982,168.890771699982,168.890771699982,168.890771699982,168.890771699982,168.890771699982,168.890771699982,num_3,2.7376563000143506,171.66003289999207,171.66003289999207,None,,11,001,2025-12-19_13h10.34.385,2025C_exp1_detect,2022.2.4,60.006900790251144,
39.2,45,0,0,1,1,0,51,51,367,171.66003289999207,171.66003289999207,172.16066289998707,172.2273875999963,172.27732439999818,172.27732439999818,172.27732439999818,172.27732439999818,172.32738209998934,172.32738209998934,172.32738209998934,172.32738209998934,172.32738209998934,172.32738209998934,172.32738209998934,172.32738209998934,172.32738209998934,172.32738209998934,num_3,1.2196172999974806,173.57843019999564,173.57843019999564,None,,11,001,2025-12-19_13h10.34.385,2025C_exp1_detect,2022.2.4,60.006900790251144,
42.7,315,1,1,1,0,0,52,52,143,173.57843019999564,173.57843019999564,174.07921019999776,174.1459412999975,174.1961122000066,174.1961122000066,174.1961122000066,174.1961122000066,174.24610250000842,174.24610250000842,174.24610250000842,174.24610250000842,174.24610250000842,174.24610250000842,174.24610250000842,174.24610250000842,174.24610250000842,174.24610250000842,num_3,1.9008731999783777,176.16441289999057,176.16441289999057,None,,11,001,2025-12-19_13h10.34.385,2025C_exp1_detect,2022.2.4,60.006900790251144,
12.1,45,1,1,1,1,0,53,53,414,176.16441289999057,176.16441289999057,176.66476690000854,176.73155399999814,176.7817948999873,176.7817948999873,176.7817948999873,176.7817948999873,176.83162989999983,176.83162989999983,176.83162989999983,176.83162989999983,176.83162989999983,176.83162989999983,176.83162989999983,176.83162989999983,176.83162989999983,176.83162989999983,num_3,2.012101799977245,178.8669901000103,178.8669901000103,None,,11,001,2025-12-19_13h10.34.385,2025C_exp1_detect,2022.2.4,60.006900790251144,
35.3,315,0,1,1,-1,0,54,54,267,178.8669901000103,178.8669901000103,179.36790479999036,179.43462929999805,179.48488820000784,179.48488820000784,179.48488820000784,179.48488820000784,179.5346913000103,179.5346913000103,179.5346913000103,179.5346913000103,179.5346913000103,179.5346913000103,179.5346913000103,179.5346913000103,179.5346913000103,179.5346913000103,num_1,0.7734111000027042,180.3351377999934,180.3351377999934,None,,11,001,2025-12-19_13h10.34.385,2025C_exp1_detect,2022.2.4,60.006900790251144,
25.5,315,1,1,1,0,0,55,55,139,180.3351377999934,180.3351377999934,180.83599849999882,180.9025476000097,180.95301409999956,180.95301409999956,180.95301409999956,180.95301409999956,181.00293489999603,181.00293489999603,181.00293489999603,181.00293489999603,181.00293489999603,181.00293489999603,181.00293489999603,181.00293489999603,181.00293489999603,181.00293489999603,num_3,0.9293693999934476,181.9535237000091,181.9535237000091,None,,11,001,2025-12-19_13h10.34.385,2025C_exp1_detect,2022.2.4,60.006900790251144,
29.4,45,1,1,1,0,0,56,56,131,181.9535237000091,181.9535237000091,182.4540774000052,182.5209429000097,182.5710728999984,182.5710728999984,182.5710728999984,182.5710728999984,182.62098669999978,182.62098669999978,182.62098669999978,182.62098669999978,182.62098669999978,182.62098669999978,182.62098669999978,182.62098669999978,182.62098669999978,182.62098669999978,num_1,3.11017610001727,185.75721099998918,185.75721099998918,None,,11,001,2025-12-19_13h10.34.385,2025C_exp1_detect,2022.2.4,60.006900790251144,
39.2,315,0,1,1,0,0,57,57,124,185.75721099998918,185.75721099998918,186.25802449998446,186.32460950000677,186.37490799999796,186.37490799999796,186.37490799999796,186.37490799999796,186.42489759999444,186.42489759999444,186.42489759999444,186.42489759999444,186.42489759999444,186.42489759999444,186.42489759999444,186.42489759999444,186.42489759999444,186.42489759999444,num_1,0.77007150001009,187.22534740000265,187.22534740000265,None,,11,001,2025-12-19_13h10.34.385,2025C_exp1_detect,2022.2.4,60.006900790251144,
35.3,315,0,1,-1,0,0,58,58,51,187.22534740000265,187.22534740000265,187.72612839998328,187.79286019998835,187.84313229998224,187.84313229998224,187.84313229998224,187.84313229998224,187.8930376000062,187.8930376000062,187.8930376000062,187.8930376000062,187.8930376000062,187.8930376000062,187.8930376000062,187.8930376000062,187.8930376000062,187.8930376000062,num_3,1.086332200007746,189.0107308999868,189.0107308999868,None,,11,001,2025-12-19_13h10.34.385,2025C_exp1_detect,2022.2.4,60.006900790251144,
15.7,315,1,1,-1,-1,0,59,59,208,189.0107308999868,189.0107308999868,189.51122369998484,189.5779443999927,189.62824429999455,189.62824429999455,189.62824429999455,189.62824429999455,189.6780207999982,189.6780207999982,189.6780207999982,189.6780207999982,189.6780207999982,189.6780207999982,189.6780207999982,189.6780207999982,189.6780207999982,189.6780207999982,num_3,1.0458361999772023,190.7455786000064,190.7455786000064,None,,11,001,2025-12-19_13h10.34.385,2025C_exp1_detect,2022.2.4,60.006900790251144,
29.4,45,0,0,-1,-1,0,60,60,149,190.7455786000064,190.7455786000064,191.24628019999363,191.31299740000395,191.36316010000883,191.36316010000883,191.36316010000883,191.36316010000883,191.41325599999982,191.41325599999982,191.41325599999982,191.41325599999982,191.41325599999982,191.41325599999982,191.41325599999982,191.41325599999982,191.41325599999982,191.41325599999982,num_3,1.7739579000044614,193.21470469998894,193.21470469998894,None,,11,001,2025-12-19_13h10.34.385,2025C_exp1_detect,2022.2.4,60.006900790251144,
25.5,315,0,0,-1,0,0,61,61,13,193.21470469998894,193.21470469998894,193.71555900000385,193.78223889999208,193.83232839999255,193.83232839999255,193.83232839999255,193.83232839999255,193.8822810999991,193.8822810999991,193.8822810999991,193.8822810999991,193.8822810999991,193.8822810999991,193.8822810999991,193.8822810999991,193.8822810999991,193.8822810999991,num_1,0.8648407000000589,194.7661669999943,194.7661669999943,None,,11,001,2025-12-19_13h10.34.385,2025C_exp1_detect,2022.2.4,60.006900790251144,
39.2,315,1,0,-1,1,0,62,62,322,194.7661669999943,194.7661669999943,195.26687510000193,195.3335618999845,195.38374759998987,195.38374759998987,195.38374759998987,195.38374759998987,195.4339006000082,195.4339006000082,195.4339006000082,195.4339006000082,195.4339006000082,195.4339006000082,195.4339006000082,195.4339006000082,195.4339006000082,195.4339006000082,num_1,0.8263166999968234,196.28436540000257,196.28436540000257,None,,11,001,2025-12-19_13h10.34.385,2025C_exp1_detect,2022.2.4,60.006900790251144,
19.6,45,1,1,-1,-1,0,63,63,200,196.28436540000257,196.28436540000257,196.78515270000207,196.85185300000012,196.9021866999974,196.9021866999974,196.9021866999974,196.9021866999974,196.95205150000402,196.95205150000402,196.95205150000402,196.95205150000402,196.95205150000402,196.95205150000402,196.95205150000402,196.95205150000402,196.95205150000402,196.95205150000402,num_3,1.2352246999798808,198.21984189999057,198.21984189999057,None,,11,001,2025-12-19_13h10.34.385,2025C_exp1_detect,2022.2.4,60.006900790251144,
15.7,315,1,1,1,0,0,64,64,136,198.21984189999057,198.21984189999057,198.7202955999819,198.78712809999706,198.83733159999247,198.83733159999247,198.83733159999247,198.83733159999247,198.8872917999979,198.8872917999979,198.8872917999979,198.8872917999979,198.8872917999979,198.8872917999979,198.8872917999979,198.8872917999979,198.8872917999979,198.8872917999979,num_3,1.1958539999905042,200.10520009999163,200.10520009999163,None,,11,001,2025-12-19_13h10.34.385,2025C_exp1_detect,2022.2.4,60.006900790251144,
12.1,315,1,0,-1,-1,0,65,65,171,200.10520009999163,200.10520009999163,200.60564279998653,200.67236409999896,200.72263460000977,200.72263460000977,200.72263460000977,200.72263460000977,200.77243789998465,200.77243789998465,200.77243789998465,200.77243789998465,200.77243789998465,200.77243789998465,200.77243789998465,200.77243789998465,200.77243789998465,200.77243789998465,num_1,0.8234620000002906,201.62307020000299,201.62307020000299,None,,11,001,2025-12-19_13h10.34.385,2025C_exp1_detect,2022.2.4,60.006900790251144,
29.4,45,0,1,1,0,0,66,66,113,201.62307020000299,201.62307020000299,202.12389509999775,202.19047599998885,202.24090229999274,202.24090229999274,202.24090229999274,202.24090229999274,202.2907726999838,202.2907726999838,202.2907726999838,202.2907726999838,202.2907726999838,202.2907726999838,202.2907726999838,202.2907726999838,202.2907726999838,202.2907726999838,num_1,1.2813437999866437,203.5919644999958,203.5919644999958,None,,11,001,2025-12-19_13h10.34.385,2025C_exp1_detect,2022.2.4,60.006900790251144,
39.2,45,0,0,1,-1,0,67,67,223,203.5919644999958,203.5919644999958,204.09252380000544,204.15919390000636,204.20950480000465,204.20950480000465,204.20950480000465,204.20950480000465,204.25937509999494,204.25937509999494,204.25937509999494,204.25937509999494,204.25937509999494,204.25937509999494,204.25937509999494,204.25937509999494,204.25937509999494,204.25937509999494,num_3,2.304505699983565,206.59470349998446,206.59470349998446,None,,11,001,2025-12-19_13h10.34.385,2025C_exp1_detect,2022.2.4,60.006900790251144,
12.1,315,0,0,-1,1,0,68,68,297,206.59470349998446,206.59470349998446,207.0952064000012,207.1618804000027,207.21216289998847,207.21216289998847,207.21216289998847,207.21216289998847,207.26206469998579,207.26206469998579,207.26206469998579,207.26206469998579,207.26206469998579,207.26206469998579,207.26206469998579,207.26206469998579,207.26206469998579,207.26206469998579,num_1,0.7742101000039838,208.06281299999682,208.06281299999682,None,,11,001,2025-12-19_13h10.34.385,2025C_exp1_detect,2022.2.4,60.006900790251144,
19.6,45,0,1,-1,0,0,69,69,38,208.06281299999682,208.06281299999682,208.56352259998675,208.63018579999334,208.680638299993,208.680638299993,208.680638299993,208.680638299993,208.7303807999997,208.7303807999997,208.7303807999997,208.7303807999997,208.7303807999997,208.7303807999997,208.7303807999997,208.7303807999997,208.7303807999997,208.7303807999997,num_3,0.9614198000053875,209.71464719998767,209.71464719998767,None,,11,001,2025-12-19_13h10.34.385,2025C_exp1_detect,2022.2.4,60.006900790251144,
19.6,315,0,1,1,1,0,70,70,407,209.71464719998767,209.71464719998767,210.2152830999985,210.28198279999197,210.3322741999873,210.3322741999873,210.3322741999873,210.3322741999873,210.38216189999366,210.38216189999366,210.38216189999366,210.38216189999366,210.38216189999366,210.38216189999366,210.38216189999366,210.38216189999366,210.38216189999366,210.38216189999366,num_3,1.541505800007144,211.95012369999313,211.95012369999313,None,,11,001,2025-12-19_13h10.34.385,2025C_exp1_detect,2022.2.4,60.006900790251144,
29.4,45,1,1,-1,0,0,71,71,59,211.95012369999313,211.95012369999313,212.45104189999984,212.51776149999932,212.56806069999584,212.56806069999584,212.56806069999584,212.56806069999584,212.6176743999822,212.6176743999822,212.6176743999822,212.6176743999822,212.6176743999822,212.6176743999822,212.6176743999822,212.6176743999822,212.6176743999822,212.6176743999822,num_3,1.2901813999924343,213.935384899989,213.935384899989,None,,11,001,2025-12-19_13h10.34.385,2025C_exp1_detect,2022.2.4,60.006900790251144,
12.1,315,0,0,-1,0,0,72,72,9,213.935384899989,213.935384899989,214.4361444999813,214.5029962999979,214.55316089998814,214.55316089998814,214.55316089998814,214.55316089998814,214.60292139998637,214.60292139998637,214.60292139998637,214.60292139998637,214.60292139998637,214.60292139998637,214.60292139998637,214.60292139998637,214.60292139998637,214.60292139998637,num_1,0.7681662999966647,215.40373950000503,215.40373950000503,None,,11,001,2025-12-19_13h10.34.385,2025C_exp1_detect,2022.2.4,60.006900790251144,
29.4,45,0,1,-1,0,0,73,73,41,215.40373950000503,215.40373950000503,215.9039853999857,215.97097389999544,216.0212607999856,216.0212607999856,216.0212607999856,216.0212607999856,216.07113799999934,216.07113799999934,216.07113799999934,216.07113799999934,216.07113799999934,216.07113799999934,216.07113799999934,216.07113799999934,216.07113799999934,216.07113799999934,num_3,0.9004134999995586,216.98866239999188,216.98866239999188,None,,11,001,2025-12-19_13h10.34.385,2025C_exp1_detect,2022.2.4,60.006900790251144,
25.5,315,0,1,1,-1,0,74,74,265,216.98866239999188,216.98866239999188,217.48915010000928,217.5558744999871,217.60628599999472,217.60628599999472,217.60628599999472,217.60628599999472,217.65606350000598,217.65606350000598,217.65606350000598,217.65606350000598,217.65606350000598,217.65606350000598,217.65606350000598,217.65606350000598,217.65606350000598,217.65606350000598,num_3,1.027242699987255,218.70723529998213,218.70723529998213,None,,11,001,2025-12-19_13h10.34.385,2025C_exp1_detect,2022.2.4,60.006900790251144,
12.1,45,1,0,-1,-1,0,75,75,162,218.70723529998213,218.70723529998213,219.20753509999486,219.2742597000033,219.324546799995,219.324546799995,219.324546799995,219.324546799995,219.37445750000188,219.37445750000188,219.37445750000188,219.37445750000188,219.37445750000188,219.37445750000188,219.37445750000188,219.37445750000188,219.37445750000188,219.37445750000188,num_3,1.6937813999829814,221.09251109999605,221.09251109999605,None,,11,001,2025-12-19_13h10.34.385,2025C_exp1_detect,2022.2.4,60.006900790251144,
12.1,315,1,0,1,-1,0,76,76,243,221.09251109999605,221.09251109999605,221.5931191999989,221.65992040000856,221.71044739999343,221.71044739999343,221.71044739999343,221.71044739999343,221.76026750000892,221.76026750000892,221.76026750000892,221.76026750000892,221.76026750000892,221.76026750000892,221.76026750000892,221.76026750000892,221.76026750000892,221.76026750000892,num_3,0.9636536999896634,222.7441229999822,222.7441229999822,None,,11,001,2025-12-19_13h10.34.385,2025C_exp1_detect,2022.2.4,60.006900790251144,
12.1,45,0,1,-1,-1,0,77,77,180,222.7441229999822,222.7441229999822,223.2448536999873,223.31151739999768,223.36197989998618,223.36197989998618,223.36197989998618,223.36197989998618,223.41169740000623,223.41169740000623,223.41169740000623,223.41169740000623,223.41169740000623,223.41169740000623,223.41169740000623,223.41169740000623,223.41169740000623,223.41169740000623,num_3,1.535796100011794,224.9798490999965,224.9798490999965,None,,11,001,2025-12-19_13h10.34.385,2025C_exp1_detect,2022.2.4,60.006900790251144,
35.3,315,0,0,1,0,0,78,78,87,224.9798490999965,224.9798490999965,225.48058350000065,225.5471481999848,225.59755129998666,225.59755129998666,225.59755129998666,225.59755129998666,225.64745799999218,225.64745799999218,225.64745799999218,225.64745799999218,225.64745799999218,225.64745799999218,225.64745799999218,225.64745799999218,225.64745799999218,225.64745799999218,num_1,1.2125799999921583,226.88164879998658,226.88164879998658,None,,11,001,2025-12-19_13h10.34.385,2025C_exp1_detect,2022.2.4,60.006900790251144,
19.6,315,0,0,1,1,0,79,79,371,226.88164879998658,226.88164879998658,227.38241130000097,227.44905009999638,227.49951200000942,227.49951200000942,227.49951200000942,227.49951200000942,227.54936249999446,227.54936249999446,227.54936249999446,227.54936249999446,227.54936249999446,227.54936249999446,227.54936249999446,227.54936249999446,227.54936249999446,227.54936249999446,num_3,2.4468537000066135,230.01821760000894,230.01821760000894,None,,11,001,2025-12-19_13h10.34.385,2025C_exp1_detect,2022.2.4,60.006900790251144,
25.5,45,0,0,1,1,0,80,80,364,230.01821760000894,230.01821760000894,230.51875099999597,230.58553499999107,230.63584539998556,230.63584539998556,230.63584539998556,230.63584539998556,230.68582799998694,230.68582799998694,230.68582799998694,230.68582799998694,230.68582799998694,230.68582799998694,230.68582799998694,230.68582799998694,230.68582799998694,230.68582799998694,num_3,2.2619070999789983,232.97097130000475,232.97097130000475,None,,11,001,2025-12-19_13h10.34.385,2025C_exp1_detect,2022.2.4,60.006900790251144,
19.6,45,1,1,1,1,0,81,81,416,232.97097130000475,232.97097130000475,233.47178180000628,233.5386162000068,233.5889310000057,233.5889310000057,233.5889310000057,233.5889310000057,233.63875509999343,233.63875509999343,233.63875509999343,233.63875509999343,233.63875509999343,233.63875509999343,233.63875509999343,233.63875509999343,233.63875509999343,233.63875509999343,num_3,1.5003576999879442,235.15654510000604,235.15654510000604,None,,11,001,2025-12-19_13h10.34.385,2025C_exp1_detect,2022.2.4,60.006900790251144,
22.7,315,0,0,-1,0,0,82,82,12,235.15654510000604,235.15654510000604,235.65732539998135,235.72395240000333,235.77437080000527,235.77437080000527,235.77437080000527,235.77437080000527,235.82424129999708,235.82424129999708,235.82424129999708,235.82424129999708,235.82424129999708,235.82424129999708,235.82424129999708,235.82424129999708,235.82424129999708,235.82424129999708,num_1,1.0187210000003688,236.8748840999906,236.8748840999906,None,,11,001,2025-12-19_13h10.34.385,2025C_exp1_detect,2022.2.4,60.006900790251144,
12.1,45,1,0,1,0,0,83,83,90,236.8748840999906,236.8748840999906,237.37549929998931,237.44212590000825,237.49243990000105,237.49243990000105,237.49243990000105,237.49243990000105,237.54235099998186,237.54235099998186,237.54235099998186,237.54235099998186,237.54235099998186,237.54235099998186,237.54235099998186,237.54235099998186,237.54235099998186,237.54235099998186,num_3,0.9738044000114314,238.54331809998257,238.54331809998257,None,,11,001,2025-12-19_13h10.34.385,2025C_exp1_detect,2022.2.4,60.006900790251144,
22.7,315,0,1,-1,-1,0,84,84,192,238.54331809998257,238.54331809998257,239.0437832000025,239.110769299994,239.16123130000778,239.16123130000778,239.16123130000778,239.16123130000778,239.21085040000617,239.21085040000617,239.21085040000617,239.21085040000617,239.21085040000617,239.21085040000617,239.21085040000617,239.21085040000617,239.21085040000617,239.21085040000617,num_3,1.0487885000184178,240.27832419998595,240.27832419998595,None,,11,001,2025-12-19_13h10.34.385,2025C_exp1_detect,2022.2.4,60.006900790251144,
22.7,315,0,1,1,0,0,85,85,120,240.27832419998595,240.27832419998595,240.7791307999869,240.84559199999785,240.89615700001013,240.89615700001013,240.89615700001013,240.89615700001013,240.94607449998148,240.94607449998148,240.94607449998148,240.94607449998148,240.94607449998148,240.94607449998148,240.94607449998148,240.94607449998148,240.94607449998148,240.94607449998148,num_3,1.1610337999882177,242.13017960000434,242.13017960000434,None,,11,001,2025-12-19_13h10.34.385,2025C_exp1_detect,2022.2.4,60.006900790251144,
29.4,45,0,1,-1,-1,0,86,86,185,242.13017960000434,242.13017960000434,242.63093889999436,242.69765309998184,242.74795459999586,242.74795459999586,242.74795459999586,242.74795459999586,242.7977062999853,242.7977062999853,242.7977062999853,242.7977062999853,242.7977062999853,242.7977062999853,242.7977062999853,242.7977062999853,242.7977062999853,242.7977062999853,num_3,1.509877400007099,244.33237580000423,244.33237580000423,None,,11,001,2025-12-19_13h10.34.385,2025C_exp1_detect,2022.2.4,60.006900790251144,
25.5,45,0,1,1,-1,0,87,87,256,244.33237580000423,244.33237580000423,244.8331879999896,244.89988449998782,244.95013710000785,244.95013710000785,244.95013710000785,244.95013710000785,244.9997606999823,244.9997606999823,244.9997606999823,244.9997606999823,244.9997606999823,244.9997606999823,244.9997606999823,244.9997606999823,244.9997606999823,244.9997606999823,num_1,0.9957723999978043,246.0174885999877,246.0174885999877,None,,11,001,2025-12-19_13h10.34.385,2025C_exp1_detect,2022.2.4,60.006900790251144,
39.2,315,0,1,-1,1,0,88,88,340,246.0174885999877,246.0174885999877,246.5182988999877,246.58501559999422,246.63514890000806,246.63514890000806,246.63514890000806,246.63514890000806,246.68505430000369,246.68505430000369,246.68505430000369,246.68505430000369,246.68505430000369,246.68505430000369,246.68505430000369,246.68505430000369,246.68505430000369,246.68505430000369,num_3,0.8225186999770813,247.53585369998473,247.53585369998473,None,,11,001,2025-12-19_13h10.34.385,2025C_exp1_detect,2022.2.4,60.006900790251144,
39.2,45,0,0,1,0,0,89,89,79,247.53585369998473,247.53585369998473,248.0362555999891,248.10309950000374,248.15350839999155,248.15350839999155,248.15350839999155,248.15350839999155,248.20341250000638,248.20341250000638,248.20341250000638,248.20341250000638,248.20341250000638,248.20341250000638,248.20341250000638,248.20341250000638,248.20341250000638,248.20341250000638,num_3,1.008934399986174,249.2373379000055,249.2373379000055,None,,11,001,2025-12-19_13h10.34.385,2025C_exp1_detect,2022.2.4,60.006900790251144,
35.3,45,0,1,1,0,0,90,90,114,249.2373379000055,249.2373379000055,249.73820069999783,249.8048911000078,249.85506870000972,249.85506870000972,249.85506870000972,249.85506870000972,249.90509990000282,249.90509990000282,249.90509990000282,249.90509990000282,249.90509990000282,249.90509990000282,249.90509990000282,249.90509990000282,249.90509990000282,249.90509990000282,num_3,1.1227473999897484,251.05591080000158,251.05591080000158,None,,11,001,2025-12-19_13h10.34.385,2025C_exp1_detect,2022.2.4,60.006900790251144,
12.1,315,0,1,1,1,0,91,91,405,251.05591080000158,251.05591080000158,251.5567727999878,251.62337799998932,251.67380839999532,251.67380839999532,251.67380839999532,251.67380839999532,251.7235617999977,251.7235617999977,251.7235617999977,251.7235617999977,251.7235617999977,251.7235617999977,251.7235617999977,251.7235617999977,251.7235617999977,251.7235617999977,num_1,1.104047000000719,252.85762979998253,252.85762979998253,None,,11,001,2025-12-19_13h10.34.385,2025C_exp1_detect,2022.2.4,60.006900790251144,
15.7,315,0,0,-1,0,0,92,92,10,252.85762979998253,252.85762979998253,253.35822490000282,253.42519139999058,253.4756231000065,253.4756231000065,253.4756231000065,253.4756231000065,253.52543320000404,253.52543320000404,253.52543320000404,253.52543320000404,253.52543320000404,253.52543320000404,253.52543320000404,253.52543320000404,253.52543320000404,253.52543320000404,num_1,1.3255795999721158,254.8762502000027,254.8762502000027,None,,11,001,2025-12-19_13h10.34.385,2025C_exp1_detect,2022.2.4,60.006900790251144,
22.7,315,1,0,1,0,0,93,93,102,254.8762502000027,254.8762502000027,255.376834900002,255.44370639999397,255.49388389999513,255.49388389999513,255.49388389999513,255.49388389999513,255.5438950000098,255.5438950000098,255.5438950000098,255.5438950000098,255.5438950000098,255.5438950000098,255.5438950000098,255.5438950000098,255.5438950000098,255.5438950000098,num_3,0.9564174999832176,256.52788639999926,256.52788639999926,None,,11,001,2025-12-19_13h10.34.385,2025C_exp1_detect,2022.2.4,60.006900790251144,
42.7,315,1,0,1,1,0,94,94,395,256.52788639999926,256.52788639999926,257.02884029998677,257.0954073999892,257.1458374999929,257.1458374999929,257.1458374999929,257.1458374999929,257.19550559998606,257.19550559998606,257.19550559998606,257.19550559998606,257.19550559998606,257.19550559998606,257.19550559998606,257.19550559998606,257.19550559998606,257.19550559998606,num_3,1.0484646999975666,258.26298589998623,258.26298589998623,None,,11,001,2025-12-19_13h10.34.385,2025C_exp1_detect,2022.2.4,60.006900790251144,
15.7,45,1,0,1,-1,0,95,95,235,258.26298589998623,258.26298589998623,258.7638112999848,258.8304022999946,258.8806298999989,258.8806298999989,258.8806298999989,258.8806298999989,258.93074559999513,258.93074559999513,258.93074559999513,258.93074559999513,258.93074559999513,258.93074559999513,258.93074559999513,258.93074559999513,258.93074559999513,258.93074559999513,num_3,0.952340899995761,259.91474720000406,259.91474720000406,None,,11,001,2025-12-19_13h10.34.385,2025C_exp1_detect,2022.2.4,60.006900790251144,
29.4,315,1,1,1,1,0,96,96,428,259.91474720000406,259.91474720000406,260.4153745000076,260.482091199985,260.53245140000945,260.53245140000945,260.53245140000945,260.53245140000945,260.58230789998197,260.58230789998197,260.58230789998197,260.58230789998197,260.58230789998197,260.58230789998197,260.58230789998197,260.58230789998197,260.58230789998197,260.58230789998197,num_3,0.8539297000097577,261.4662968000048,261.4662968000048,None,,11,001,2025-12-19_13h10.34.385,2025C_exp1_detect,2022.2.4,60.006900790251144,
12.1,45,0,0,1,0,0,97,97,72,261.4662968000048,261.4662968000048,261.9667787000071,262.0338829999964,262.08406140000443,262.08406140000443,262.08406140000443,262.08406140000443,262.1339415999828,262.1339415999828,262.1339415999828,262.1339415999828,262.1339415999828,262.1339415999828,262.1339415999828,262.1339415999828,262.1339415999828,262.1339415999828,num_3,1.5971014999959152,263.75190879998263,263.75190879998263,None,,11,001,2025-12-19_13h10.34.385,2025C_exp1_detect,2022.2.4,60.006900790251144,
15.7,45,0,1,-1,0,0,98,98,37,263.75190879998263,263.75190879998263,264.2526557999954,264.3194840000069,264.36980670000776,264.36980670000776,264.36980670000776,264.36980670000776,264.4196561999852,264.4196561999852,264.4196561999852,264.4196561999852,264.4196561999852,264.4196561999852,264.4196561999852,264.4196561999852,264.4196561999852,264.4196561999852,num_3,0.824257200001739,265.2702131999831,265.2702131999831,None,,11,001,2025-12-19_13h10.34.385,2025C_exp1_detect,2022.2.4,60.006900790251144,
29.4,315,0,1,1,1,0,99,99,410,265.2702131999831,265.2702131999831,265.77045479998924,265.8373169999977,265.8879214999906,265.8879214999906,265.8879214999906,265.8879214999906,265.9377477999951,265.9377477999951,265.9377477999951,265.9377477999951,265.9377477999951,265.9377477999951,265.9377477999951,265.9377477999951,265.9377477999951,265.9377477999951,num_3,1.057780700008152,267.02168299999903,267.02168299999903,None,,11,001,2025-12-19_13h10.34.385,2025C_exp1_detect,2022.2.4,60.006900790251144,
19.6,315,0,1,1,0,0,100,100,119,267.02168299999903,267.02168299999903,267.5223093999957,267.5893637999834,267.6397660000075,267.6397660000075,267.6397660000075,267.6397660000075,267.6896434999944,267.6896434999944,267.6896434999944,267.6896434999944,267.6896434999944,267.6896434999944,267.6896434999944,267.6896434999944,267.6896434999944,267.6896434999944,num_1,0.6901905999984592,268.4067115999933,268.4067115999933,None,,11,001,2025-12-19_13h10.34.385,2025C_exp1_detect,2022.2.4,60.006900790251144,
25.5,45,1,1,-1,-1,0,101,101,202,268.4067115999933,268.4067115999933,268.90708859998267,268.97392540000146,269.0241698999889,269.0241698999889,269.0241698999889,269.0241698999889,269.074116600008,269.074116600008,269.074116600008,269.074116600008,269.074116600008,269.074116600008,269.074116600008,269.074116600008,269.074116600008,269.074116600008,num_3,0.865262100007385,269.95797809999203,269.95797809999203,None,,11,001,2025-12-19_13h10.34.385,2025C_exp1_detect,2022.2.4,60.006900790251144,
25.5,45,1,1,-1,1,0,102,102,346,269.95797809999203,269.95797809999203,270.45877779999864,270.5254842999857,270.5758092000033,270.5758092000033,270.5758092000033,270.5758092000033,270.6256633999874,270.6256633999874,270.6256633999874,270.6256633999874,270.6256633999874,270.6256633999874,270.6256633999874,270.6256633999874,270.6256633999874,270.6256633999874,num_3,1.041812999988906,271.69347440000274,271.69347440000274,None,,11,001,2025-12-19_13h10.34.385,2025C_exp1_detect,2022.2.4,60.006900790251144,
29.4,315,1,1,-1,1,0,103,103,356,271.69347440000274,271.69347440000274,272.19382859999314,272.26069249998545,272.31097930000396,272.31097930000396,272.31097930000396,272.31097930000396,272.3607878999901,272.3607878999901,272.3607878999901,272.3607878999901,272.3607878999901,272.3607878999901,272.3607878999901,272.3607878999901,272.3607878999901,272.3607878999901,num_3,0.9786350000067614,273.36168139998335,273.36168139998335,None,,11,001,2025-12-19_13h10.34.385,2025C_exp1_detect,2022.2.4,60.006900790251144,
42.7,315,0,0,1,-1,0,104,104,233,273.36168139998335,273.36168139998335,273.8618373000063,273.92856759999995,273.9788705999963,273.9788705999963,273.9788705999963,273.9788705999963,274.02873759999056,274.02873759999056,274.02873759999056,274.02873759999056,274.02873759999056,274.02873759999056,274.02873759999056,274.02873759999056,274.02873759999056,274.02873759999056,num_3,1.1664833999820985,275.2136446000077,275.2136446000077,None,,11,001,2025-12-19_13h10.34.385,2025C_exp1_detect,2022.2.4,60.006900790251144,
19.6,315,0,0,-1,1,0,105,105,299,275.2136446000077,275.2136446000077,275.7140032000025,275.7806960000016,275.8310024999955,275.8310024999955,275.8310024999955,275.8310024999955,275.88089110000874,275.88089110000874,275.88089110000874,275.88089110000874,275.88089110000874,275.88089110000874,275.88089110000874,275.88089110000874,275.88089110000874,275.88089110000874,num_1,0.955175799987046,276.8653962999815,276.8653962999815,None,,11,001,2025-12-19_13h10.34.385,2025C_exp1_detect,2022.2.4,60.006900790251144,
22.7,315,0,1,-1,1,0,106,106,336,276.8653962999815,276.8653962999815,277.36565180000616,277.4324377999874,277.48262589998194,277.48262589998194,277.48262589998194,277.48262589998194,277.5324200000032,277.5324200000032,277.5324200000032,277.5324200000032,277.5324200000032,277.5324200000032,277.5324200000032,277.5324200000032,277.5324200000032,277.5324200000032,num_3,0.8717858000018168,278.43330619999324,278.43330619999324,None,,11,001,2025-12-19_13h10.34.385,2025C_exp1_detect,2022.2.4,60.006900790251144,
15.7,315,0,1,-1,1,0,107,107,334,278.43330619999324,278.43330619999324,278.933858400007,279.00041929999134,279.05090040000505,279.05090040000505,279.05090040000505,279.05090040000505,279.1007724000083,279.1007724000083,279.1007724000083,279.1007724000083,279.1007724000083,279.1007724000083,279.1007724000083,279.1007724000083,279.1007724000083,279.1007724000083,num_3,1.0629161999968346,280.18506029999116,280.18506029999116,space,6.866522199998144,11,001,2025-12-19_13h10.34.385,2025C_exp1_detect,2022.2.4,60.006900790251144,
42.7,45,1,1,1,0,0,108,108,134,287.07536869999603,287.07536869999603,287.5758407000103,287.64257669998915,287.6928939000063,287.6928939000063,287.6928939000063,287.6928939000063,287.7428282999899,287.7428282999899,287.7428282999899,287.7428282999899,287.7428282999899,287.7428282999899,287.7428282999899,287.7428282999899,287.7428282999899,287.7428282999899,num_3,1.2201720000011846,288.9941051999922,288.9941051999922,None,,11,001,2025-12-19_13h10.34.385,2025C_exp1_detect,2022.2.4,60.006900790251144,
25.5,45,0,1,-1,1,0,109,109,328,288.9941051999922,288.9941051999922,289.4946770000097,289.5613999000052,289.6115986999939,289.6115986999939,289.6115986999939,289.6115986999939,289.6614838000096,289.6614838000096,289.6614838000096,289.6614838000096,289.6614838000096,289.6614838000096,289.6614838000096,289.6614838000096,289.6614838000096,289.6614838000096,num_3,0.8469805999775417,290.52899269998306,290.52899269998306,None,,11,001,2025-12-19_13h10.34.385,2025C_exp1_detect,2022.2.4,60.006900790251144,
25.5,315,0,1,1,1,0,110,110,409,290.52899269998306,290.52899269998306,291.02945850000833,291.09622589999344,291.14653289999114,291.14653289999114,291.14653289999114,291.14653289999114,291.1964406000043,291.1964406000043,291.1964406000043,291.1964406000043,291.1964406000043,291.1964406000043,291.1964406000043,291.1964406000043,291.1964406000043,291.1964406000043,num_3,1.1507408999896143,292.3639356000058,292.3639356000058,None,,11,001,2025-12-19_13h10.34.385,2025C_exp1_detect,2022.2.4,60.006900790251144,
42.7,315,0,0,1,0,0,111,111,89,292.3639356000058,292.3639356000058,292.86456359998556,292.9310045999882,292.98138990000007,292.98138990000007,292.98138990000007,292.98138990000007,293.0314023999963,293.0314023999963,293.0314023999963,293.0314023999963,293.0314023999963,293.0314023999963,293.0314023999963,293.0314023999963,293.0314023999963,293.0314023999963,num_1,1.5236491000105161,294.5826878999942,294.5826878999942,None,,11,001,2025-12-19_13h10.34.385,2025C_exp1_detect,2022.2.4,60.006900790251144,
42.7,315,1,0,-1,1,0,112,112,323,294.5826878999942,294.5826878999942,295.0835805000097,295.1501885000034,295.2006365999987,295.2006365999987,295.2006365999987,295.2006365999987,295.2503626999969,295.2503626999969,295.2503626999969,295.2503626999969,295.2503626999969,295.2503626999969,295.2503626999969,295.2503626999969,295.2503626999969,295.2503626999969,num_1,0.9052463000116404,296.18445589998737,296.18445589998737,None,,11,001,2025-12-19_13h10.34.385,2025C_exp1_detect,2022.2.4,60.006900790251144,
22.7,45,0,1,1,0,0,113,113,111,296.18445589998737,296.18445589998737,296.68466649999027,296.75139049999416,296.8016355999862,296.8016355999862,296.8016355999862,296.8016355999862,296.8515291000076,296.8515291000076,296.8515291000076,296.8515291000076,296.8515291000076,296.8515291000076,296.8515291000076,296.8515291000076,296.8515291000076,296.8515291000076,num_1,0.9275938999780919,297.80242659998476,297.80242659998476,None,,11,001,2025-12-19_13h10.34.385,2025C_exp1_detect,2022.2.4,60.006900790251144,
22.7,45,0,0,1,0,0,114,114,75,297.80242659998476,297.80242659998476,298.3031090000004,298.36995140000363,298.4201905000082,298.4201905000082,298.4201905000082,298.4201905000082,298.4701952000032,298.4701952000032,298.4701952000032,298.4701952000032,298.4701952000032,298.4701952000032,298.4701952000032,298.4701952000032,298.4701952000032,298.4701952000032,num_1,1.0777286999800708,299.57115969998995,299.57115969998995,None,,11,001,2025-12-19_13h10.34.385,2025C_exp1_detect,2022.2.4,60.006900790251144,
19.6,45,1,0,-1,-1,0,115,115,164,299.57115969998995,299.57115969998995,300.0716964000021,300.138361099991,300.1886373999878,300.1886373999878,300.1886373999878,300.1886373999878,300.238609299995,300.238609299995,300.238609299995,300.238609299995,300.238609299995,300.238609299995,300.238609299995,300.238609299995,300.238609299995,300.238609299995,num_1,0.8849227999744471,301.1558454000042,301.1558454000042,None,,11,001,2025-12-19_13h10.34.385,2025C_exp1_detect,2022.2.4,60.006900790251144,
22.7,45,1,0,-1,1,0,116,116,309,301.1558454000042,301.1558454000042,301.65672589998576,301.72345709998626,301.77385179998237,301.77385179998237,301.77385179998237,301.77385179998237,301.8237276999862,301.8237276999862,301.8237276999862,301.8237276999862,301.8237276999862,301.8237276999862,301.8237276999862,301.8237276999862,301.8237276999862,301.8237276999862,num_1,0.6913784999924246,302.5408213000046,302.5408213000046,None,,11,001,2025-12-19_13h10.34.385,2025C_exp1_detect,2022.2.4,60.006900790251144,
39.2,45,0,1,1,1,0,117,117,403,302.5408213000046,302.5408213000046,303.0413201999909,303.10792439998477,303.15835849998984,303.15835849998984,303.15835849998984,303.15835849998984,303.207934999984,303.207934999984,303.207934999984,303.207934999984,303.207934999984,303.207934999984,303.207934999984,303.207934999984,303.207934999984,303.207934999984,num_1,0.9322489000041969,304.1590543999919,304.1590543999919,None,,11,001,2025-12-19_13h10.34.385,2025C_exp1_detect,2022.2.4,60.006900790251144,
15.7,315,1,1,1,-1,0,118,118,280,304.1590543999919,304.1590543999919,304.65949739998905,304.7262919000059,304.77662650001,304.77662650001,304.77662650001,304.77662650001,304.8264763999905,304.8264763999905,304.8264763999905,304.8264763999905,304.8264763999905,304.8264763999905,304.8264763999905,304.8264763999905,304.8264763999905,304.8264763999905,num_1,2.33734899997944,307.1954226999951,307.1954226999951,None,,11,001,2025-12-19_13h10.34.385,2025C_exp1_detect,2022.2.4,60.006900790251144,
39.2,45,0,1,-1,0,0,119,119,43,307.1954226999951,307.1954226999951,307.6959224999882,307.7626392999955,307.81295469999895,307.81295469999895,307.81295469999895,307.81295469999895,307.8626716999861,307.8626716999861,307.8626716999861,307.8626716999861,307.8626716999861,307.8626716999861,307.8626716999861,307.8626716999861,307.8626716999861,307.8626716999861,num_3,0.6615944000077434,308.5468159999873,308.5468159999873,None,,11,001,2025-12-19_13h10.34.385,2025C_exp1_detect,2022.2.4,60.006900790251144,
29.4,45,1,1,1,-1,0,120,120,275,308.5468159999873,308.5468159999873,309.04745879999246,309.1139844999998,309.16430999999284,309.16430999999284,309.16430999999284,309.16430999999284,309.2141755000048,309.2141755000048,309.2141755000048,309.2141755000048,309.2141755000048,309.2141755000048,309.2141755000048,309.2141755000048,309.2141755000048,309.2141755000048,num_3,0.8940586000098847,310.1315559000068,310.1315559000068,None,,11,001,2025-12-19_13h10.34.385,2025C_exp1_detect,2022.2.4,60.006900790251144,
42.7,315,1,0,1,0,0,121,121,107,310.1315559000068,310.1315559000068,310.6322445999831,310.69905719999224,310.7492636999814,310.7492636999814,310.7492636999814,310.7492636999814,310.7991700999846,310.7991700999846,310.7991700999846,310.7991700999846,310.7991700999846,310.7991700999846,310.7991700999846,310.7991700999846,310.7991700999846,310.7991700999846,num_3,0.8526144999777898,311.6830079999927,311.6830079999927,None,,11,001,2025-12-19_13h10.34.385,2025C_exp1_detect,2022.2.4,60.006900790251144,
15.7,45,0,0,1,1,0,122,122,361,311.6830079999927,311.6830079999927,312.18377390000387,312.25049089998356,312.3006388999929,312.3006388999929,312.3006388999929,312.3006388999929,312.3506708999921,312.3506708999921,312.3506708999921,312.3506708999921,312.3506708999921,312.3506708999921,312.3506708999921,312.3506708999921,312.3506708999921,312.3506708999921,num_1,1.3091627999965567,313.6853763999825,313.6853763999825,None,,11,001,2025-12-19_13h10.34.385,2025C_exp1_detect,2022.2.4,60.006900790251144,
29.4,315,0,1,1,-1,0,123,123,266,313.6853763999825,313.6853763999825,314.1860533999861,314.252628199989,314.3030494999839,314.3030494999839,314.3030494999839,314.3030494999839,314.3528718999878,314.3528718999878,314.3528718999878,314.3528718999878,314.3528718999878,314.3528718999878,314.3528718999878,314.3528718999878,314.3528718999878,314.3528718999878,num_1,3.9632446999894455,318.33993369998643,318.33993369998643,None,,11,001,2025-12-19_13h10.34.385,2025C_exp1_detect,2022.2.4,60.006900790251144,
19.6,45,0,1,1,0,0,124,124,110,318.33993369998643,318.33993369998643,318.84052379999775,318.9070383000071,318.95731239998713,318.95731239998713,318.95731239998713,318.95731239998713,319.00721909999265,319.00721909999265,319.00721909999265,319.00721909999265,319.00721909999265,319.00721909999265,319.00721909999265,319.00721909999265,319.00721909999265,319.00721909999265,num_1,0.7567737000063062,319.791424199997,319.791424199997,None,,11,001,2025-12-19_13h10.34.385,2025C_exp1_detect,2022.2.4,60.006900790251144,
42.7,315,0,1,1,0,0,125,125,125,319.791424199997,319.791424199997,320.2917296999949,320.3585058999888,320.4089285999944,320.4089285999944,320.4089285999944,320.4089285999944,320.458778500004,320.458778500004,320.458778500004,320.458778500004,320.458778500004,320.458778500004,320.458778500004,320.458778500004,320.458778500004,320.458778500004,num_1,0.6252935999946203,321.10932859999593,321.10932859999593,None,,11,001,2025-12-19_13h10.34.385,2025C_exp1_detect,2022.2.4,60.006900790251144,
39.2,315,0,1,1,1,0,126,126,412,321.10932859999593,321.10932859999593,321.60969979999936,321.67656920000445,321.72684849999496,321.72684849999496,321.72684849999496,321.72684849999496,321.7767051999981,321.7767051999981,321.7767051999981,321.7767051999981,321.7767051999981,321.7767051999981,321.7767051999981,321.7767051999981,321.7767051999981,321.7767051999981,num_1,0.6828419999801554,322.4774335999973,322.4774335999973,None,,11,001,2025-12-19_13h10.34.385,2025C_exp1_detect,2022.2.4,60.006900790251144,
19.6,45,1,1,-1,1,0,127,127,344,322.4774335999973,322.4774335999973,322.9781232000096,323.0446288000094,323.0949336999911,323.0949336999911,323.0949336999911,323.0949336999911,323.14491889998317,323.14491889998317,323.14491889998317,323.14491889998317,323.14491889998317,323.14491889998317,323.14491889998317,323.14491889998317,323.14491889998317,323.14491889998317,num_3,0.7626971999998204,323.92863869998837,323.92863869998837,None,,11,001,2025-12-19_13h10.34.385,2025C_exp1_detect,2022.2.4,60.006900790251144,
35.3,45,0,0,-1,1,0,128,128,294,323.92863869998837,323.92863869998837,324.42946019998635,324.4961677000101,324.54630509999697,324.54630509999697,324.54630509999697,324.54630509999697,324.59619300000486,324.59619300000486,324.59619300000486,324.59619300000486,324.59619300000486,324.59619300000486,324.59619300000486,324.59619300000486,324.59619300000486,324.59619300000486,num_1,0.8553440000105184,325.480186700006,325.480186700006,None,,11,001,2025-12-19_13h10.34.385,2025C_exp1_detect,2022.2.4,60.006900790251144,
39.2,315,0,0,-1,1,0,129,129,304,325.480186700006,325.480186700006,325.98080779999145,326.04739259998314,326.0979066999862,326.0979066999862,326.0979066999862,326.0979066999862,326.1478685000038,326.1478685000038,326.1478685000038,326.1478685000038,326.1478685000038,326.1478685000038,326.1478685000038,326.1478685000038,326.1478685000038,326.1478685000038,num_1,0.7347845000040252,326.91483570000855,326.91483570000855,None,,11,001,2025-12-19_13h10.34.385,2025C_exp1_detect,2022.2.4,60.006900790251144,
29.4,315,0,0,1,1,0,130,130,374,326.91483570000855,326.91483570000855,327.41535910000675,327.482056000008,327.53266870000516,327.53266870000516,327.53266870000516,327.53266870000516,327.58282389998203,327.58282389998203,327.58282389998203,327.58282389998203,327.58282389998203,327.58282389998203,327.58282389998203,327.58282389998203,327.58282389998203,327.58282389998203,num_1,0.8040522999945097,328.4166409999889,328.4166409999889,None,,11,001,2025-12-19_13h10.34.385,2025C_exp1_detect,2022.2.4,60.006900790251144,
19.6,45,0,0,1,-1,0,131,131,218,328.4166409999889,328.4166409999889,328.9171273999964,328.98384519998217,329.03416549999383,329.03416549999383,329.03416549999383,329.03416549999383,329.08403110000654,329.08403110000654,329.08403110000654,329.08403110000654,329.08403110000654,329.08403110000654,329.08403110000654,329.08403110000654,329.08403110000654,329.08403110000654,num_1,0.8396191000065301,329.9515393000038,329.9515393000038,None,,11,001,2025-12-19_13h10.34.385,2025C_exp1_detect,2022.2.4,60.006900790251144,
22.7,315,1,0,-1,1,0,132,132,318,329.9515393000038,329.9515393000038,330.45222449998255,330.5188600999827,330.5691492999904,330.5691492999904,330.5691492999904,330.5691492999904,330.61880910000764,330.61880910000764,330.61880910000764,330.61880910000764,330.61880910000764,330.61880910000764,330.61880910000764,330.61880910000764,330.61880910000764,330.61880910000764,num_1,0.6805122999940068,331.3192718999926,331.3192718999926,None,,11,001,2025-12-19_13h10.34.385,2025C_exp1_detect,2022.2.4,60.006900790251144,
42.7,315,0,0,-1,1,0,133,133,305,331.3192718999926,331.3192718999926,331.82006709999405,331.8866553999833,331.9369993,331.9369993,331.9369993,331.9369993,331.9868446000037,331.9868446000037,331.9868446000037,331.9868446000037,331.9868446000037,331.9868446000037,331.9868446000037,331.9868446000037,331.9868446000037,331.9868446000037,num_1,0.6407535999896936,332.6540134999959,332.6540134999959,None,,11,001,2025-12-19_13h10.34.385,2025C_exp1_detect,2022.2.4,60.006900790251144,
25.5,315,0,0,1,0,0,134,134,85,332.6540134999959,332.6540134999959,333.15494770000805,333.22162379999645,333.2719975000073,333.2719975000073,333.2719975000073,333.2719975000073,333.3218471999862,333.3218471999862,333.3218471999862,333.3218471999862,333.3218471999862,333.3218471999862,333.3218471999862,333.3218471999862,333.3218471999862,333.3218471999862,num_3,2.282019100006437,335.62385679999716,335.62385679999716,None,,11,001,2025-12-19_13h10.34.385,2025C_exp1_detect,2022.2.4,60.006900790251144,
25.5,45,1,0,-1,1,0,135,135,310,335.62385679999716,335.62385679999716,336.1243298999907,336.1908196999866,336.24122339999303,336.24122339999303,336.24122339999303,336.24122339999303,336.2911053999851,336.2911053999851,336.2911053999851,336.2911053999851,336.2911053999851,336.2911053999851,336.2911053999851,336.2911053999851,336.2911053999851,336.2911053999851,num_1,0.7280759999994189,337.0420255000063,337.0420255000063,None,,11,001,2025-12-19_13h10.34.385,2025C_exp1_detect,2022.2.4,60.006900790251144,
39.2,45,1,0,1,-1,0,136,136,241,337.0420255000063,337.0420255000063,337.5424664999882,337.60917019998305,337.65947569999844,337.65947569999844,337.65947569999844,337.65947569999844,337.7092182000051,337.7092182000051,337.7092182000051,337.7092182000051,337.7092182000051,337.7092182000051,337.7092182000051,337.7092182000051,337.7092182000051,337.7092182000051,num_3,1.0228502999816556,338.7605157000071,338.7605157000071,None,,11,001,2025-12-19_13h10.34.385,2025C_exp1_detect,2022.2.4,60.006900790251144,
12.1,315,1,1,-1,1,0,137,137,351,338.7605157000071,338.7605157000071,339.2606647000066,339.32753629999934,339.3777761000092,339.3777761000092,339.3777761000092,339.3777761000092,339.4277000000002,339.4277000000002,339.4277000000002,339.4277000000002,339.4277000000002,339.4277000000002,339.4277000000002,339.4277000000002,339.4277000000002,339.4277000000002,num_3,0.9440962999942712,340.3951401000086,340.3951401000086,None,,11,001,2025-12-19_13h10.34.385,2025C_exp1_detect,2022.2.4,60.006900790251144,
25.5,45,0,0,-1,1,0,138,138,292,340.3951401000086,340.3951401000086,340.8957737000019,340.9622657999862,341.01265439999406,341.01265439999406,341.01265439999406,341.01265439999406,341.06266339999274,341.06266339999274,341.06266339999274,341.06266339999274,341.06266339999274,341.06266339999274,341.06266339999274,341.06266339999274,341.06266339999274,341.06266339999274,num_1,0.701049499999499,341.78011039999546,341.78011039999546,None,,11,001,2025-12-19_13h10.34.385,2025C_exp1_detect,2022.2.4,60.006900790251144,
19.6,315,0,1,1,-1,0,139,139,263,341.78011039999546,341.78011039999546,342.28050210000947,342.3471389999904,342.3974434999982,342.3974434999982,342.3974434999982,342.3974434999982,342.4472881999973,342.4472881999973,342.4472881999973,342.4472881999973,342.4472881999973,342.4472881999973,342.4472881999973,342.4472881999973,342.4472881999973,342.4472881999973,num_1,0.9242420000082348,343.398114599986,343.398114599986,None,,11,001,2025-12-19_13h10.34.385,2025C_exp1_detect,2022.2.4,60.006900790251144,
42.7,45,1,1,-1,-1,0,140,140,206,343.398114599986,343.398114599986,343.8987577999942,343.9654962999921,344.01566649999586,344.01566649999586,344.01566649999586,344.01566649999586,344.06558259998565,344.06558259998565,344.06558259998565,344.06558259998565,344.06558259998565,344.06558259998565,344.06558259998565,344.06558259998565,344.06558259998565,344.06558259998565,num_3,0.8109720000065863,344.9000345999957,344.9000345999957,None,,11,001,2025-12-19_13h10.34.385,2025C_exp1_detect,2022.2.4,60.006900790251144,
15.7,45,1,0,-1,-1,0,141,141,163,344.9000345999957,344.9000345999957,345.4003916000074,345.467227599991,345.5174313999887,345.5174313999887,345.5174313999887,345.5174313999887,345.5673848000006,345.5673848000006,345.5673848000006,345.5673848000006,345.5673848000006,345.5673848000006,345.5673848000006,345.5673848000006,345.5673848000006,345.5673848000006,num_1,0.899550799978897,346.48467289999826,346.48467289999826,None,,11,001,2025-12-19_13h10.34.385,2025C_exp1_detect,2022.2.4,60.006900790251144,
15.7,315,1,1,1,1,0,142,142,424,346.48467289999826,346.48467289999826,346.9852633999835,347.0518408000062,347.1021117999917,347.1021117999917,347.1021117999917,347.1021117999917,347.15200729999924,347.15200729999924,347.15200729999924,347.15200729999924,347.15200729999924,347.15200729999924,347.15200729999924,347.15200729999924,347.15200729999924,347.15200729999924,num_3,1.139880600007018,348.31989969999995,348.31989969999995,None,,11,001,2025-12-19_13h10.34.385,2025C_exp1_detect,2022.2.4,60.006900790251144,
39.2,315,1,1,1,-1,0,143,143,286,348.31989969999995,348.31989969999995,348.820115599985,348.88701750000473,348.9373757999856,348.9373757999856,348.9373757999856,348.9373757999856,348.9871615000011,348.9871615000011,348.9871615000011,348.9871615000011,348.9871615000011,348.9871615000011,348.9871615000011,348.9871615000011,348.9871615000011,348.9871615000011,num_1,1.1523600999789778,350.17156029999023,350.17156029999023,None,,11,001,2025-12-19_13h10.34.385,2025C_exp1_detect,2022.2.4,60.006900790251144,
29.4,45,0,0,1,1,0,144,144,365,350.17156029999023,350.17156029999023,350.6723691000079,350.7390778999834,350.7893772999814,350.7893772999814,350.7893772999814,350.7893772999814,350.8388949999935,350.8388949999935,350.8388949999935,350.8388949999935,350.8388949999935,350.8388949999935,350.8388949999935,350.8388949999935,350.8388949999935,350.8388949999935,num_3,1.1880705000075977,352.0568110999884,352.0568110999884,None,,11,001,2025-12-19_13h10.34.385,2025C_exp1_detect,2022.2.4,60.006900790251144,
29.4,315,1,0,-1,1,0,145,145,320,352.0568110999884,352.0568110999884,352.5574520000082,352.6241608999844,352.6744397000002,352.6744397000002,352.6744397000002,352.6744397000002,352.7243143999949,352.7243143999949,352.7243143999949,352.7243143999949,352.7243143999949,352.7243143999949,352.7243143999949,352.7243143999949,352.7243143999949,352.7243143999949,num_1,0.647915199981071,353.3914156999963,353.3914156999963,None,,11,001,2025-12-19_13h10.34.385,2025C_exp1_detect,2022.2.4,60.006900790251144,
35.3,315,0,0,-1,1,0,146,146,303,353.3914156999963,353.3914156999963,353.89208640001016,353.9588054000051,354.0089916999859,354.0089916999859,354.0089916999859,354.0089916999859,354.05899019999197,354.05899019999197,354.05899019999197,354.05899019999197,354.05899019999197,354.05899019999197,354.05899019999197,354.05899019999197,354.05899019999197,354.05899019999197,num_1,0.6092265000042971,354.692747699999,354.692747699999,None,,11,001,2025-12-19_13h10.34.385,2025C_exp1_detect,2022.2.4,60.006900790251144,
35.3,45,0,1,1,-1,0,147,147,258,354.692747699999,354.692747699999,355.1933843999868,355.2600961999851,355.3104001999891,355.3104001999891,355.3104001999891,355.3104001999891,355.36014899998554,355.36014899998554,355.36014899998554,355.36014899998554,355.36014899998554,355.36014899998554,355.36014899998554,355.36014899998554,355.36014899998554,355.36014899998554,num_1,0.6591545999981463,356.0441608999972,356.0441608999972,None,,11,001,2025-12-19_13h10.34.385,2025C_exp1_detect,2022.2.4,60.006900790251144,
25.5,315,1,1,-1,1,0,148,148,355,356.0441608999972,356.0441608999972,356.54445549999946,356.6112383999862,356.66148109998903,356.66148109998903,356.66148109998903,356.66148109998903,356.71133009999176,356.71133009999176,356.71133009999176,356.71133009999176,356.71133009999176,356.71133009999176,356.71133009999176,356.71133009999176,356.71133009999176,356.71133009999176,num_3,0.6840751999989152,357.4121352999937,357.4121352999937,None,,11,001,2025-12-19_13h10.34.385,2025C_exp1_detect,2022.2.4,60.006900790251144,
12.1,45,0,1,1,1,0,149,149,396,357.4121352999937,357.4121352999937,357.9130171999859,357.97971859999234,358.02990470000077,358.02990470000077,358.02990470000077,358.02990470000077,358.079364300007,358.079364300007,358.079364300007,358.079364300007,358.079364300007,358.079364300007,358.079364300007,358.079364300007,358.079364300007,358.079364300007,num_1,0.7080285999982152,358.81366590000107,358.81366590000107,None,,11,001,2025-12-19_13h10.34.385,2025C_exp1_detect,2022.2.4,60.006900790251144,
15.7,45,1,0,1,1,0,150,150,379,358.81366590000107,358.81366590000107,359.3142629000067,359.3809995999909,359.43135020000045,359.43135020000045,359.43135020000045,359.43135020000045,359.48119900000165,359.48119900000165,359.48119900000165,359.48119900000165,359.48119900000165,359.48119900000165,359.48119900000165,359.48119900000165,359.48119900000165,359.48119900000165,num_3,1.0897541999875102,360.59871120000025,360.59871120000025,None,,11,001,2025-12-19_13h10.34.385,2025C_exp1_detect,2022.2.4,60.006900790251144,
19.6,315,0,0,-1,0,0,151,151,11,360.59871120000025,360.59871120000025,361.09931019999203,361.16600179998204,361.2160151999851,361.2160151999851,361.2160151999851,361.2160151999851,361.26614749999135,361.26614749999135,361.26614749999135,361.26614749999135,361.26614749999135,361.26614749999135,361.26614749999135,361.26614749999135,361.26614749999135,361.26614749999135,num_1,0.8009880000026897,362.0835228000069,362.0835228000069,None,,11,001,2025-12-19_13h10.34.385,2025C_exp1_detect,2022.2.4,60.006900790251144,
15.7,45,0,1,1,1,0,152,152,397,362.0835228000069,362.0835228000069,362.58415219999733,362.650567899982,362.70113339999807,362.70113339999807,362.70113339999807,362.70113339999807,362.7510190999892,362.7510190999892,362.7510190999892,362.7510190999892,362.7510190999892,362.7510190999892,362.7510190999892,362.7510190999892,362.7510190999892,362.7510190999892,num_1,1.2293269999790937,364.0021398999961,364.0021398999961,None,,11,001,2025-12-19_13h10.34.385,2025C_exp1_detect,2022.2.4,60.006900790251144,
19.6,315,1,0,-1,0,0,153,153,29,364.0021398999961,364.0021398999961,364.50269299998763,364.5694087999873,364.61969600000884,364.61969600000884,364.61969600000884,364.61969600000884,364.6694822999998,364.6694822999998,364.6694822999998,364.6694822999998,364.6694822999998,364.6694822999998,364.6694822999998,364.6694822999998,364.6694822999998,364.6694822999998,num_1,0.6693530000047758,365.3700206000067,365.3700206000067,None,,11,001,2025-12-19_13h10.34.385,2025C_exp1_detect,2022.2.4,60.006900790251144,
35.3,45,1,0,1,0,0,154,154,96,365.3700206000067,365.3700206000067,365.87079660000745,365.9374603999895,365.9876210000075,365.9876210000075,365.9876210000075,365.9876210000075,366.03748159998213,366.03748159998213,366.03748159998213,366.03748159998213,366.03748159998213,366.03748159998213,366.03748159998213,366.03748159998213,366.03748159998213,366.03748159998213,num_3,0.6776103999873158,366.7380780999956,366.7380780999956,None,,11,001,2025-12-19_13h10.34.385,2025C_exp1_detect,2022.2.4,60.006900790251144,
19.6,45,0,0,-1,0,0,155,155,2,366.7380780999956,366.7380780999956,367.23890409999876,367.3056207000045,367.35594179999316,367.35594179999316,367.35594179999316,367.35594179999316,367.40553139999975,367.40553139999975,367.40553139999975,367.40553139999975,367.40553139999975,367.40553139999975,367.40553139999975,367.40553139999975,367.40553139999975,367.40553139999975,num_1,0.606135699985316,368.0398093999829,368.0398093999829,None,,11,001,2025-12-19_13h10.34.385,2025C_exp1_detect,2022.2.4,60.006900790251144,
22.7,45,1,1,-1,1,0,156,156,345,368.0398093999829,368.0398093999829,368.5402918999898,368.6070400000026,368.65733309998177,368.65733309998177,368.65733309998177,368.65733309998177,368.707123900007,368.707123900007,368.707123900007,368.707123900007,368.707123900007,368.707123900007,368.707123900007,368.707123900007,368.707123900007,368.707123900007,num_1,0.7611587999854237,369.4907140999858,369.4907140999858,None,,11,001,2025-12-19_13h10.34.385,2025C_exp1_detect,2022.2.4,60.006900790251144,
12.1,315,1,0,-1,0,0,157,157,27,369.4907140999858,369.4907140999858,369.99154109999654,370.0583350000088,370.1086756000004,370.1086756000004,370.1086756000004,370.1086756000004,370.15841199998977,370.15841199998977,370.15841199998977,370.15841199998977,370.15841199998977,370.15841199998977,370.15841199998977,370.15841199998977,370.15841199998977,370.15841199998977,num_1,0.6458108999941032,370.8256365999987,370.8256365999987,None,,11,001,2025-12-19_13h10.34.385,2025C_exp1_detect,2022.2.4,60.006900790251144,
42.7,45,0,1,1,-1,0,158,158,260,370.8256365999987,370.8256365999987,371.3263200999936,371.39314379999996,371.4433241999941,371.4433241999941,371.4433241999941,371.4433241999941,371.4933481999906,371.4933481999906,371.4933481999906,371.4933481999906,371.4933481999906,371.4933481999906,371.4933481999906,371.4933481999906,371.4933481999906,371.4933481999906,num_1,0.8863008000189438,372.4106005000067,372.4106005000067,None,,11,001,2025-12-19_13h10.34.385,2025C_exp1_detect,2022.2.4,60.006900790251144,
19.6,45,0,1,1,-1,0,159,159,254,372.4106005000067,372.4106005000067,372.91094729999895,372.9777984999819,373.0279649999866,373.0279649999866,373.0279649999866,373.0279649999866,373.07799779999186,373.07799779999186,373.07799779999186,373.07799779999186,373.07799779999186,373.07799779999186,373.07799779999186,373.07799779999186,373.07799779999186,373.07799779999186,num_1,0.5809045000059996,373.67824129998917,373.67824129998917,None,,11,001,2025-12-19_13h10.34.385,2025C_exp1_detect,2022.2.4,60.006900790251144,
29.4,45,0,0,1,-1,0,160,160,221,373.67824129998917,373.67824129998917,374.1790931999858,374.24566829999094,374.29596650000894,374.29596650000894,374.29596650000894,374.29596650000894,374.3458563000022,374.3458563000022,374.3458563000022,374.3458563000022,374.3458563000022,374.3458563000022,374.3458563000022,374.3458563000022,374.3458563000022,374.3458563000022,num_1,0.714375800016569,375.07976649998454,375.07976649998454,None,,11,001,2025-12-19_13h10.34.385,2025C_exp1_detect,2022.2.4,60.006900790251144,
29.4,315,0,0,-1,-1,0,161,161,158,375.07976649998454,375.07976649998454,375.58045340000535,375.64715740000247,375.697405599989,375.697405599989,375.697405599989,375.697405599989,375.7470525999961,375.7470525999961,375.7470525999961,375.7470525999961,375.7470525999961,375.7470525999961,375.7470525999961,375.7470525999961,375.7470525999961,375.7470525999961,num_3,0.8088564999925438,376.58141280000564,376.58141280000564,None,,11,001,2025-12-19_13h10.34.385,2025C_exp1_detect,2022.2.4,60.006900790251144,
22.7,315,1,0,-1,0,0,162,162,30,376.58141280000564,376.58141280000564,377.0819266999897,377.1486359999981,377.1988963999902,377.1988963999902,377.1988963999902,377.1988963999902,377.2487911999924,377.2487911999924,377.2487911999924,377.2487911999924,377.2487911999924,377.2487911999924,377.2487911999924,377.2487911999924,377.2487911999924,377.2487911999924,num_1,0.5941624999977648,377.8658030999941,377.8658030999941,None,,11,001,2025-12-19_13h10.34.385,2025C_exp1_detect,2022.2.4,60.006900790251144,
39.2,45,1,1,-1,0,0,163,163,61,377.8658030999941,377.8658030999941,378.3665342000022,378.43326580000576,378.48357129999204,378.48357129999204,378.48357129999204,378.48357129999204,378.5334363000002,378.5334363000002,378.5334363000002,378.5334363000002,378.5334363000002,378.5334363000002,378.5334363000002,378.5334363000002,378.5334363000002,378.5334363000002,num_3,1.885791499982588,380.4354079999903,380.4354079999903,None,,11,001,2025-12-19_13h10.34.385,2025C_exp1_detect,2022.2.4,60.006900790251144,
39.2,315,0,0,-1,0,0,164,164,16,380.4354079999903,380.4354079999903,380.93581560000894,381.0023618999985,381.05255029999535,381.05255029999535,381.05255029999535,381.05255029999535,381.1026002999861,381.1026002999861,381.1026002999861,381.1026002999861,381.1026002999861,381.1026002999861,381.1026002999861,381.1026002999861,381.1026002999861,381.1026002999861,num_1,1.220504599972628,382.3538725999824,382.3538725999824,None,,11,001,2025-12-19_13h10.34.385,2025C_exp1_detect,2022.2.4,60.006900790251144,
22.7,315,1,0,-1,-1,0,165,165,174,382.3538725999824,382.3538725999824,382.8542654000048,382.9209777000069,382.97131639998406,382.97131639998406,382.97131639998406,382.97131639998406,383.02116370000294,383.02116370000294,383.02116370000294,383.02116370000294,383.02116370000294,383.02116370000294,383.02116370000294,383.02116370000294,383.02116370000294,383.02116370000294,num_1,0.7988497999904212,383.83863670000574,383.83863670000574,None,,11,001,2025-12-19_13h10.34.385,2025C_exp1_detect,2022.2.4,60.006900790251144,
35.3,45,0,0,1,0,0,166,166,78,383.83863670000574,383.83863670000574,384.3392450000101,384.40593809998245,384.4561490000051,384.4561490000051,384.4561490000051,384.4561490000051,384.5061555999855,384.5061555999855,384.5061555999855,384.5061555999855,384.5061555999855,384.5061555999855,384.5061555999855,384.5061555999855,384.5061555999855,384.5061555999855,num_3,2.057458499999484,386.59111109998776,386.59111109998776,None,,11,001,2025-12-19_13h10.34.385,2025C_exp1_detect,2022.2.4,60.006900790251144,
29.4,315,0,1,-1,-1,0,167,167,194,386.59111109998776,386.59111109998776,387.09163189999526,387.1583425999852,387.2086799000099,387.2086799000099,387.2086799000099,387.2086799000099,387.25853399999323,387.25853399999323,387.25853399999323,387.25853399999323,387.25853399999323,387.25853399999323,387.25853399999323,387.25853399999323,387.25853399999323,387.25853399999323,num_3,0.9686550999758765,388.2597104999877,388.2597104999877,None,,11,001,2025-12-19_13h10.34.385,2025C_exp1_detect,2022.2.4,60.006900790251144,
29.4,315,0,1,-1,1,0,168,168,338,388.2597104999877,388.2597104999877,388.7602101000084,388.8269311999902,388.87752380000893,388.87752380000893,388.87752380000893,388.87752380000893,388.9272024999955,388.9272024999955,388.9272024999955,388.9272024999955,388.9272024999955,388.9272024999955,388.9272024999955,388.9272024999955,388.9272024999955,388.9272024999955,num_3,1.1645466000190936,390.1114302999922,390.1114302999922,None,,11,001,2025-12-19_13h10.34.385,2025C_exp1_detect,2022.2.4,60.006900790251144,
22.7,45,1,1,1,0,0,169,169,129,390.1114302999922,390.1114302999922,390.6121026999899,390.67871269999887,390.72913930000504,390.72913930000504,390.72913930000504,390.72913930000504,390.7789618000097,390.7789618000097,390.7789618000097,390.7789618000097,390.7789618000097,390.7789618000097,390.7789618000097,390.7789618000097,390.7789618000097,390.7789618000097,num_3,1.6086489000008442,392.4141057000088,392.4141057000088,None,,11,001,2025-12-19_13h10.34.385,2025C_exp1_detect,2022.2.4,60.006900790251144,
42.7,315,0,0,-1,-1,0,170,170,161,392.4141057000088,392.4141057000088,392.9144651000097,392.98088849999476,393.0310943000077,393.0310943000077,393.0310943000077,393.0310943000077,393.08096849999856,393.08096849999856,393.08096849999856,393.08096849999856,393.08096849999856,393.08096849999856,393.08096849999856,393.08096849999856,393.08096849999856,393.08096849999856,num_1,0.7460514999984298,393.84834999998566,393.84834999998566,None,,11,001,2025-12-19_13h10.34.385,2025C_exp1_detect,2022.2.4,60.006900790251144,
25.5,315,0,0,1,1,0,171,171,373,393.84834999998566,393.84834999998566,394.34893939999165,394.41571619999013,394.46588599999086,394.46588599999086,394.46588599999086,394.46588599999086,394.51573719998123,394.51573719998123,394.51573719998123,394.51573719998123,394.51573719998123,394.51573719998123,394.51573719998123,394.51573719998123,394.51573719998123,394.51573719998123,num_3,0.7514975999947637,395.29980909998994,395.29980909998994,None,,11,001,2025-12-19_13h10.34.385,2025C_exp1_detect,2022.2.4,60.006900790251144,
15.7,315,1,1,-1,0,0,172,172,64,395.29980909998994,395.29980909998994,395.80040959999315,395.86705880000954,395.9173538000032,395.9173538000032,395.9173538000032,395.9173538000032,395.9672227999836,395.9672227999836,395.9672227999836,395.9672227999836,395.9672227999836,395.9672227999836,395.9672227999836,395.9672227999836,395.9672227999836,395.9672227999836,num_3,0.9245212000096217,396.9182807999896,396.9182807999896,None,,11,001,2025-12-19_13h10.34.385,2025C_exp1_detect,2022.2.4,60.006900790251144,
29.4,45,1,1,-1,1,0,173,173,347,396.9182807999896,396.9182807999896,397.4192536000046,397.4853577000031,397.53562619999866,397.53562619999866,397.53562619999866,397.53562619999866,397.58554410000215,397.58554410000215,397.58554410000215,397.58554410000215,397.58554410000215,397.58554410000215,397.58554410000215,397.58554410000215,397.58554410000215,397.58554410000215,num_1,0.7296147000161,398.3379860999994,398.3379860999994,None,,11,001,2025-12-19_13h10.34.385,2025C_exp1_detect,2022.2.4,60.006900790251144,
19.6,45,0,0,-1,1,0,174,174,290,398.3379860999994,398.3379860999994,398.8371183999989,398.9037165000045,398.9541396999848,398.9541396999848,398.9541396999848,398.9541396999848,399.0039914000081,399.0039914000081,399.0039914000081,399.0039914000081,399.0039914000081,399.0039914000081,399.0039914000081,399.0039914000081,399.0039914000081,399.0039914000081,num_1,0.6476812000037171,399.6710545999813,399.6710545999813,None,,11,001,2025-12-19_13h10.34.385,2025C_exp1_detect,2022.2.4,60.006900790251144,
15.7,315,0,0,1,-1,0,175,175,226,399.6710545999813,399.6710545999813,400.1716985999956,400.23829149999074,400.28863729999284,400.28863729999284,400.28863729999284,400.28863729999284,400.3385672000004,400.3385672000004,400.3385672000004,400.3385672000004,400.3385672000004,400.3385672000004,400.3385672000004,400.3385672000004,400.3385672000004,400.3385672000004,num_3,0.8244773999904282,401.18931459999294,401.18931459999294,None,,11,001,2025-12-19_13h10.34.385,2025C_exp1_detect,2022.2.4,60.006900790251144,
39.2,45,1,0,1,0,0,176,176,97,401.18931459999294,401.18931459999294,401.6897028000094,401.7565832999826,401.806882600009,401.806882600009,401.806882600009,401.806882600009,401.8567356999847,401.8567356999847,401.8567356999847,401.8567356999847,401.8567356999847,401.8567356999847,401.8567356999847,401.8567356999847,401.8567356999847,401.8567356999847,num_3,0.7786073999886867,402.6571568000072,402.6571568000072,None,,11,001,2025-12-19_13h10.34.385,2025C_exp1_detect,2022.2.4,60.006900790251144,
29.4,315,1,0,-1,-1,0,177,177,176,402.6571568000072,402.6571568000072,403.1579886999971,403.22470449999673,403.275029899989,403.275029899989,403.275029899989,403.275029899989,403.32487779998337,403.32487779998337,403.32487779998337,403.32487779998337,403.32487779998337,403.32487779998337,403.32487779998337,403.32487779998337,403.32487779998337,403.32487779998337,num_1,0.7020644999865908,404.05886089999694,404.05886089999694,None,,11,001,2025-12-19_13h10.34.385,2025C_exp1_detect,2022.2.4,60.006900790251144,
42.7,45,1,0,-1,-1,0,178,178,170,404.05886089999694,404.05886089999694,404.5593789999839,404.6261103999859,404.6761886999884,404.6761886999884,404.6761886999884,404.6761886999884,404.72594559998834,404.72594559998834,404.72594559998834,404.72594559998834,404.72594559998834,404.72594559998834,404.72594559998834,404.72594559998834,404.72594559998834,404.72594559998834,num_3,1.0133605000155512,405.76057690000744,405.76057690000744,None,,11,001,2025-12-19_13h10.34.385,2025C_exp1_detect,2022.2.4,60.006900790251144,
35.3,315,1,1,-1,1,0,179,179,357,405.76057690000744,405.76057690000744,406.26106250000885,406.3278028999921,406.3780761999951,406.3780761999951,406.3780761999951,406.3780761999951,406.42798680000124,406.42798680000124,406.42798680000124,406.42798680000124,406.42798680000124,406.42798680000124,406.42798680000124,406.42798680000124,406.42798680000124,406.42798680000124,num_3,0.8480520000157412,407.29541900000186,407.29541900000186,None,,11,001,2025-12-19_13h10.34.385,2025C_exp1_detect,2022.2.4,60.006900790251144,
19.6,45,0,0,-1,-1,0,180,180,146,407.29541900000186,407.29541900000186,407.7961224000028,407.86268789999303,407.9130943999917,407.9130943999917,407.9130943999917,407.9130943999917,407.9627164999838,407.9627164999838,407.9627164999838,407.9627164999838,407.9627164999838,407.9627164999838,407.9627164999838,407.9627164999838,407.9627164999838,407.9627164999838,num_1,0.8647436999890488,408.84673260001,408.84673260001,None,,11,001,2025-12-19_13h10.34.385,2025C_exp1_detect,2022.2.4,60.006900790251144,
19.6,315,1,0,-1,-1,0,181,181,173,408.84673260001,408.84673260001,409.34755259999656,409.4143411999976,409.46435900000506,409.46435900000506,409.46435900000506,409.46435900000506,409.51428830000805,409.51428830000805,409.51428830000805,409.51428830000805,409.51428830000805,409.51428830000805,409.51428830000805,409.51428830000805,409.51428830000805,409.51428830000805,num_1,0.78541640000185,410.3316483999952,410.3316483999952,None,,11,001,2025-12-19_13h10.34.385,2025C_exp1_detect,2022.2.4,60.006900790251144,
15.7,45,1,0,-1,0,0,182,182,19,410.3316483999952,410.3316483999952,410.8323032000044,410.8990467999829,410.9490270999959,410.9490270999959,410.9490270999959,410.9490270999959,410.9991047999938,410.9991047999938,410.9991047999938,410.9991047999938,410.9991047999938,410.9991047999938,410.9991047999938,410.9991047999938,410.9991047999938,410.9991047999938,num_1,0.6204603999794926,411.64961100000073,411.64961100000073,None,,11,001,2025-12-19_13h10.34.385,2025C_exp1_detect,2022.2.4,60.006900790251144,
15.7,315,0,0,1,0,0,183,183,82,411.64961100000073,411.64961100000073,412.15024299998186,412.21701429999666,412.26730559999123,412.26730559999123,412.26730559999123,412.26730559999123,412.3170525000023,412.3170525000023,412.3170525000023,412.3170525000023,412.3170525000023,412.3170525000023,412.3170525000023,412.3170525000023,412.3170525000023,412.3170525000023,num_3,0.7585387999715749,413.1011867999914,413.1011867999914,None,,11,001,2025-12-19_13h10.34.385,2025C_exp1_detect,2022.2.4,60.006900790251144,
22.7,315,1,1,-1,1,0,184,184,354,413.1011867999914,413.1011867999914,413.6017264999973,413.6684211999818,413.7187248999835,413.7187248999835,413.7187248999835,413.7187248999835,413.7685941999953,413.7685941999953,413.7685941999953,413.7685941999953,413.7685941999953,413.7685941999953,413.7685941999953,413.7685941999953,413.7685941999953,413.7685941999953,num_1,1.6987121000129264,415.48690940000233,415.48690940000233,None,,11,001,2025-12-19_13h10.34.385,2025C_exp1_detect,2022.2.4,60.006900790251144,
15.7,315,0,1,1,-1,0,185,185,262,415.48690940000233,415.48690940000233,415.9874523000035,416.0540772000095,416.10445990000153,416.10445990000153,416.10445990000153,416.10445990000153,416.154263000004,416.154263000004,416.154263000004,416.154263000004,416.154263000004,416.154263000004,416.154263000004,416.154263000004,416.154263000004,416.154263000004,num_1,1.921207899984438,418.1061695999815,418.1061695999815,None,,11,001,2025-12-19_13h10.34.385,2025C_exp1_detect,2022.2.4,60.006900790251144,
29.4,45,1,0,1,1,0,186,186,383,418.1061695999815,418.1061695999815,418.6067505000101,418.6734882000019,418.7236155999999,418.7236155999999,418.7236155999999,418.7236155999999,418.7736457999854,418.7736457999854,418.7736457999854,418.7736457999854,418.7736457999854,418.7736457999854,418.7736457999854,418.7736457999854,418.7736457999854,418.7736457999854,num_3,0.6780161999922711,419.47416610000073,419.47416610000073,None,,11,001,2025-12-19_13h10.34.385,2025C_exp1_detect,2022.2.4,60.006900790251144,
22.7,315,1,0,1,1,0,187,187,390,419.47416610000073,419.47416610000073,419.97492899998906,420.0415229999926,420.091903499997,420.091903499997,420.091903499997,420.091903499997,420.14179200000945,420.14179200000945,420.14179200000945,420.14179200000945,420.14179200000945,420.14179200000945,420.14179200000945,420.14179200000945,420.14179200000945,420.14179200000945,num_3,0.7256073000025935,420.8921960000007,420.8921960000007,None,,11,001,2025-12-19_13h10.34.385,2025C_exp1_detect,2022.2.4,60.006900790251144,
39.2,45,0,1,-1,-1,0,188,188,187,420.8921960000007,420.8921960000007,421.3930205999932,421.4596934999863,421.5096016000025,421.5096016000025,421.5096016000025,421.5096016000025,421.55955579999136,421.55955579999136,421.55955579999136,421.55955579999136,421.55955579999136,421.55955579999136,421.55955579999136,421.55955579999136,421.55955579999136,421.55955579999136,num_3,0.8284316999779548,422.4104638999852,422.4104638999852,None,,11,001,2025-12-19_13h10.34.385,2025C_exp1_detect,2022.2.4,60.006900790251144,
25.5,45,1,0,1,0,0,189,189,94,422.4104638999852,422.4104638999852,422.9110187999904,422.9777277999965,423.0279719999817,423.0279719999817,423.0279719999817,423.0279719999817,423.07791170000564,423.07791170000564,423.07791170000564,423.07791170000564,423.07791170000564,423.07791170000564,423.07791170000564,423.07791170000564,423.07791170000564,423.07791170000564,num_3,0.7417437999974936,423.8452948000049,423.8452948000049,None,,11,001,2025-12-19_13h10.34.385,2025C_exp1_detect,2022.2.4,60.006900790251144,
25.5,45,1,1,1,1,0,190,190,418,423.8452948000049,423.8452948000049,424.3458486000018,424.4126527000044,424.46293939999305,424.46293939999305,424.46293939999305,424.46293939999305,424.51270520000253,424.51270520000253,424.51270520000253,424.51270520000253,424.51270520000253,424.51270520000253,424.51270520000253,424.51270520000253,424.51270520000253,424.51270520000253,num_3,1.0266042999865022,425.5635412999836,425.5635412999836,None,,11,001,2025-12-19_13h10.34.385,2025C_exp1_detect,2022.2.4,60.006900790251144,
15.7,315,0,1,1,1,0,191,191,406,425.5635412999836,425.5635412999836,426.06406489998335,426.130799400009,426.1811264999851,426.1811264999851,426.1811264999851,426.1811264999851,426.2309313000005,426.2309313000005,426.2309313000005,426.2309313000005,426.2309313000005,426.2309313000005,426.2309313000005,426.2309313000005,426.2309313000005,426.2309313000005,num_1,0.6919165999861434,426.9483889999974,426.9483889999974,None,,11,001,2025-12-19_13h10.34.385,2025C_exp1_detect,2022.2.4,60.006900790251144,
39.2,315,0,0,1,-1,0,192,192,232,426.9483889999974,426.9483889999974,427.4487997999822,427.51536489999853,427.565795100003,427.565795100003,427.565795100003,427.565795100003,427.61571499999263,427.61571499999263,427.61571499999263,427.61571499999263,427.61571499999263,427.61571499999263,427.61571499999263,427.61571499999263,427.61571499999263,427.61571499999263,num_3,0.6354831000207923,428.28309280000394,428.28309280000394,None,,11,001,2025-12-19_13h10.34.385,2025C_exp1_detect,2022.2.4,60.006900790251144,
22.7,315,0,0,1,0,0,193,193,84,428.28309280000394,428.28309280000394,428.78381540000555,428.8504006000003,428.9007290999871,428.9007290999871,428.9007290999871,428.9007290999871,428.9507312999922,428.9507312999922,428.9507312999922,428.9507312999922,428.9507312999922,428.9507312999922,428.9507312999922,428.9507312999922,428.9507312999922,428.9507312999922,num_3,0.5486722000059672,429.51759209999,429.51759209999,None,,11,001,2025-12-19_13h10.34.385,2025C_exp1_detect,2022.2.4,60.006900790251144,
19.6,45,1,0,-1,1,0,194,194,308,429.51759209999,429.51759209999,430.0180735999893,430.08484299998963,430.1351297000074,430.1351297000074,430.1351297000074,430.1351297000074,430.18486350000603,430.18486350000603,430.18486350000603,430.18486350000603,430.18486350000603,430.18486350000603,430.18486350000603,430.18486350000603,430.18486350000603,430.18486350000603,num_1,0.6745408000133466,430.8856472999905,430.8856472999905,None,,11,001,2025-12-19_13h10.34.385,2025C_exp1_detect,2022.2.4,60.006900790251144,
