contrast,ori,lefttarget,righttarget,postcue,precue,trials.thisRepN,trials.thisTrialN,trials.thisN,trials.thisIndex,fix1.started,fix2.started,precue_2.started,precue_2.stopped,left_grating.started,right_grating.started,noise_left.started,noise_right.started,fix1.stopped,fix2.stopped,left_grating.stopped,right_grating.stopped,noise_left.stopped,noise_right.stopped,key_resp.started,postcue_2.started,fix1_2.started,fix2_2.started,key_resp.keys,key_resp.rt,key_resp_2.started,break_text_2.started,key_resp_2.keys,key_resp_2.rt,participant,session,date,expName,psychopyVersion,frameRate,
39.2,45,0,1,-1,1,0,0,0,331,17.425857900001574,17.425857900001574,17.898934500000905,17.96577090001665,18.02598870001384,18.02598870001384,18.02598870001384,18.02598870001384,18.06606529999408,18.06606529999408,18.06606529999408,18.06606529999408,18.06606529999408,18.06606529999408,18.082796600006986,18.082796600006986,18.082796600006986,18.082796600006986,num_1,22.20199090000824,40.30485790001694,40.30485790001694,None,,12,001,2025-12-19_15h04.32.050,2025C_exp1_detect,2022.2.4,59.93655116177043,
12.1,45,1,0,-1,-1,0,1,1,162,40.30485790001694,40.30485790001694,40.80549280002015,40.87185280001722,40.92248599999584,40.92248599999584,40.92248599999584,40.92248599999584,40.97233479999704,40.97233479999704,40.97233479999704,40.97233479999704,40.97233479999704,40.97233479999704,40.97233479999704,40.97233479999704,40.97233479999704,40.97233479999704,num_1,3.407982600008836,44.40886140000657,44.40886140000657,None,,12,001,2025-12-19_15h04.32.050,2025C_exp1_detect,2022.2.4,59.93655116177043,
42.7,45,1,0,-1,0,0,2,2,26,44.40886140000657,44.40886140000657,44.90962900000159,44.976053699996555,45.02663269999903,45.02663269999903,45.02663269999903,45.02663269999903,45.076571000012336,45.076571000012336,45.076571000012336,45.076571000012336,45.076571000012336,45.076571000012336,45.076571000012336,45.076571000012336,45.076571000012336,45.076571000012336,num_1,1.215941100002965,46.31078349999734,46.31078349999734,None,,12,001,2025-12-19_15h04.32.050,2025C_exp1_detect,2022.2.4,59.93655116177043,
29.4,45,1,1,1,0,0,3,3,131,46.31078349999734,46.31078349999734,46.81144059999497,46.87817030001315,46.92836600000737,46.92836600000737,46.92836600000737,46.92836600000737,46.97821689999546,46.97821689999546,46.97821689999546,46.97821689999546,46.97821689999546,46.97821689999546,46.97821689999546,46.97821689999546,46.97821689999546,46.97821689999546,num_3,2.376935299980687,49.38049740000861,49.38049740000861,None,,12,001,2025-12-19_15h04.32.050,2025C_exp1_detect,2022.2.4,59.93655116177043,
39.2,45,0,0,1,-1,0,4,4,223,49.38049740000861,49.38049740000861,49.88107250002213,49.947931600006996,49.99824129999615,49.99824129999615,49.99824129999615,49.99824129999615,50.04813070001546,50.04813070001546,50.04813070001546,50.04813070001546,50.04813070001546,50.04813070001546,50.04813070001546,50.04813070001546,50.04813070001546,50.04813070001546,num_3,1.619361499993829,51.69953209999949,51.69953209999949,None,,12,001,2025-12-19_15h04.32.050,2025C_exp1_detect,2022.2.4,59.93655116177043,
12.1,45,1,0,-1,0,0,5,5,18,51.69953209999949,51.69953209999949,52.2001569000131,52.26689319999423,52.31717560000834,52.31717560000834,52.31717560000834,52.31717560000834,52.367045599996345,52.367045599996345,52.367045599996345,52.367045599996345,52.367045599996345,52.367045599996345,52.367045599996345,52.367045599996345,52.367045599996345,52.367045599996345,num_1,2.0452337999886367,54.43544840000686,54.43544840000686,None,,12,001,2025-12-19_15h04.32.050,2025C_exp1_detect,2022.2.4,59.93655116177043,
42.7,45,1,1,-1,1,0,6,6,350,54.43544840000686,54.43544840000686,54.9362250000122,55.002951900009066,55.05324840001413,55.05324840001413,55.05324840001413,55.05324840001413,55.10311990001355,55.10311990001355,55.10311990001355,55.10311990001355,55.10311990001355,55.10311990001355,55.10311990001355,55.10311990001355,55.10311990001355,55.10311990001355,num_3,1.5256125000014435,56.65443520000554,56.65443520000554,None,,12,001,2025-12-19_15h04.32.050,2025C_exp1_detect,2022.2.4,59.93655116177043,
12.1,315,1,1,1,1,0,7,7,423,56.65443520000554,56.65443520000554,57.15511839999817,57.22164950001752,57.27217360000941,57.27217360000941,57.27217360000941,57.27217360000941,57.32203410001239,57.32203410001239,57.32203410001239,57.32203410001239,57.32203410001239,57.32203410001239,57.32203410001239,57.32203410001239,57.32203410001239,57.32203410001239,num_3,1.4331817000056617,58.773184399993625,58.773184399993625,None,,12,001,2025-12-19_15h04.32.050,2025C_exp1_detect,2022.2.4,59.93655116177043,
12.1,45,0,1,-1,0,0,8,8,36,58.773184399993625,58.773184399993625,59.27389630000107,59.34098020000965,59.39092070001061,59.39092070001061,59.39092070001061,59.39092070001061,59.440793400019174,59.440793400019174,59.440793400019174,59.440793400019174,59.440793400019174,59.440793400019174,59.440793400019174,59.440793400019174,59.440793400019174,59.440793400019174,num_3,1.2751751000178047,60.742026399995666,60.742026399995666,None,,12,001,2025-12-19_15h04.32.050,2025C_exp1_detect,2022.2.4,59.93655116177043,
29.4,45,0,1,-1,-1,0,9,9,185,60.742026399995666,60.742026399995666,61.24265349999769,61.3089808000077,61.35924449999584,61.35924449999584,61.35924449999584,61.35924449999584,61.40921850001905,61.40921850001905,61.40921850001905,61.40921850001905,61.40921850001905,61.40921850001905,61.40921850001905,61.40921850001905,61.40921850001905,61.40921850001905,num_3,2.233919899998,63.661320900020655,63.661320900020655,None,,12,001,2025-12-19_15h04.32.050,2025C_exp1_detect,2022.2.4,59.93655116177043,
25.5,315,0,1,-1,0,0,10,10,49,63.661320900020655,63.661320900020655,64.16204009999637,64.22881820000475,64.2791317999945,64.2791317999945,64.2791317999945,64.2791317999945,64.32900769999833,64.32900769999833,64.32900769999833,64.32900769999833,64.32900769999833,64.32900769999833,64.32900769999833,64.32900769999833,64.32900769999833,64.32900769999833,num_3,1.6430419999815058,65.99706920000608,65.99706920000608,None,,12,001,2025-12-19_15h04.32.050,2025C_exp1_detect,2022.2.4,59.93655116177043,
19.6,45,1,1,-1,0,0,11,11,56,65.99706920000608,65.99706920000608,66.49778600002173,66.5645186000038,66.61491480001132,66.61491480001132,66.61491480001132,66.61491480001132,66.66470449999906,66.66470449999906,66.66470449999906,66.66470449999906,66.66470449999906,66.66470449999906,66.66470449999906,66.66470449999906,66.66470449999906,66.66470449999906,num_1,2.1155695999914315,68.80010360002052,68.80010360002052,None,,12,001,2025-12-19_15h04.32.050,2025C_exp1_detect,2022.2.4,59.93655116177043,
29.4,315,0,0,-1,-1,0,12,12,158,68.80010360002052,68.80010360002052,69.30084850001731,69.36755520000588,69.41767450000043,69.41767450000043,69.41767450000043,69.41767450000043,69.46750400000019,69.46750400000019,69.46750400000019,69.46750400000019,69.46750400000019,69.46750400000019,69.46750400000019,69.46750400000019,69.46750400000019,69.46750400000019,num_3,1.248363699996844,70.73506100001396,70.73506100001396,None,,12,001,2025-12-19_15h04.32.050,2025C_exp1_detect,2022.2.4,59.93655116177043,
29.4,45,1,1,-1,0,0,13,13,59,70.73506100001396,70.73506100001396,71.23585210001329,71.30257180001354,71.35276800001157,71.35276800001157,71.35276800001157,71.35276800001157,71.40277240000432,71.40277240000432,71.40277240000432,71.40277240000432,71.40277240000432,71.40277240000432,71.40277240000432,71.40277240000432,71.40277240000432,71.40277240000432,num_1,1.0411268000025302,72.47014670001226,72.47014670001226,None,,12,001,2025-12-19_15h04.32.050,2025C_exp1_detect,2022.2.4,59.93655116177043,
12.1,315,0,0,-1,0,0,14,14,9,72.47014670001226,72.47014670001226,72.97089910000795,73.0376019999967,73.08785340000759,73.08785340000759,73.08785340000759,73.08785340000759,73.13780450000195,73.13780450000195,73.13780450000195,73.13780450000195,73.13780450000195,73.13780450000195,73.13780450000195,73.13780450000195,73.13780450000195,73.13780450000195,num_3,1.617701399984071,74.77258069999516,74.77258069999516,None,,12,001,2025-12-19_15h04.32.050,2025C_exp1_detect,2022.2.4,59.93655116177043,
39.2,315,0,1,-1,1,0,15,15,340,74.77258069999516,74.77258069999516,75.27321539999684,75.33994679999887,75.39022230001865,75.39022230001865,75.39022230001865,75.39022230001865,75.4400944999943,75.4400944999943,75.4400944999943,75.4400944999943,75.4400944999943,75.4400944999943,75.4400944999943,75.4400944999943,75.4400944999943,75.4400944999943,num_3,1.0125786999997217,76.47413350001443,76.47413350001443,None,,12,001,2025-12-19_15h04.32.050,2025C_exp1_detect,2022.2.4,59.93655116177043,
22.7,45,1,1,-1,1,0,16,16,345,76.47413350001443,76.47413350001443,76.97488419999718,77.04162679999718,77.09195220001857,77.09195220001857,77.09195220001857,77.09195220001857,77.14170770000783,77.14170770000783,77.14170770000783,77.14170770000783,77.14170770000783,77.14170770000783,77.14170770000783,77.14170770000783,77.14170770000783,77.14170770000783,num_1,0.8784507999953348,78.04243960001622,78.04243960001622,None,,12,001,2025-12-19_15h04.32.050,2025C_exp1_detect,2022.2.4,59.93655116177043,
15.7,45,0,1,1,1,0,17,17,397,78.04243960001622,78.04243960001622,78.54286030001822,78.60975900001358,78.65983410002082,78.65983410002082,78.65983410002082,78.65983410002082,78.70975239999825,78.70975239999825,78.70975239999825,78.70975239999825,78.70975239999825,78.70975239999825,78.70975239999825,78.70975239999825,78.70975239999825,78.70975239999825,num_3,4.470515100023476,83.19759290001821,83.19759290001821,None,,12,001,2025-12-19_15h04.32.050,2025C_exp1_detect,2022.2.4,59.93655116177043,
25.5,315,0,1,1,-1,0,18,18,265,83.19759290001821,83.19759290001821,83.69829800000298,83.76502099999925,83.81535810002242,83.81535810002242,83.81535810002242,83.81535810002242,83.8653345000057,83.8653345000057,83.8653345000057,83.8653345000057,83.8653345000057,83.8653345000057,83.8653345000057,83.8653345000057,83.8653345000057,83.8653345000057,num_3,1.2831014999828767,85.16621920000762,85.16621920000762,None,,12,001,2025-12-19_15h04.32.050,2025C_exp1_detect,2022.2.4,59.93655116177043,
25.5,315,0,1,-1,-1,0,19,19,193,85.16621920000762,85.16621920000762,85.66711310000392,85.73385350001627,85.78409280002234,85.78409280002234,85.78409280002234,85.78409280002234,85.83383710001362,85.83383710001362,85.83383710001362,85.83383710001362,85.83383710001362,85.83383710001362,85.83383710001362,85.83383710001362,85.83383710001362,85.83383710001362,num_3,1.1375060999998823,87.00126920000184,87.00126920000184,None,,12,001,2025-12-19_15h04.32.050,2025C_exp1_detect,2022.2.4,59.93655116177043,
35.3,45,0,0,-1,0,0,20,20,6,87.00126920000184,87.00126920000184,87.50208930001827,87.56878050000523,87.61909540000488,87.61909540000488,87.61909540000488,87.61909540000488,87.66898149999906,87.66898149999906,87.66898149999906,87.66898149999906,87.66898149999906,87.66898149999906,87.66898149999906,87.66898149999906,87.66898149999906,87.66898149999906,num_3,5.134756899991771,92.82385760001489,92.82385760001489,None,,12,001,2025-12-19_15h04.32.050,2025C_exp1_detect,2022.2.4,59.93655116177043,
15.7,315,0,0,-1,1,0,21,21,298,92.82385760001489,92.82385760001489,93.3246247000061,93.39122130000032,93.44148700000369,93.44148700000369,93.44148700000369,93.44148700000369,93.49140100000659,93.49140100000659,93.49140100000659,93.49140100000659,93.49140100000659,93.49140100000659,93.49140100000659,93.49140100000659,93.49140100000659,93.49140100000659,num_3,0.9924377000133973,94.50888239999767,94.50888239999767,None,,12,001,2025-12-19_15h04.32.050,2025C_exp1_detect,2022.2.4,59.93655116177043,
29.4,45,1,1,-1,1,0,22,22,347,94.50888239999767,94.50888239999767,95.00965019999421,95.07632570000715,95.12678069999674,95.12678069999674,95.12678069999674,95.12678069999674,95.17650920001324,95.17650920001324,95.17650920001324,95.17650920001324,95.17650920001324,95.17650920001324,95.17650920001324,95.17650920001324,95.17650920001324,95.17650920001324,num_1,0.8349762999860104,96.04387230001157,96.04387230001157,None,,12,001,2025-12-19_15h04.32.050,2025C_exp1_detect,2022.2.4,59.93655116177043,
35.3,315,0,0,-1,0,0,23,23,15,96.04387230001157,96.04387230001157,96.54444729999523,96.61115159999463,96.6614741999947,96.6614741999947,96.6614741999947,96.6614741999947,96.71133980000741,96.71133980000741,96.71133980000741,96.71133980000741,96.71133980000741,96.71133980000741,96.71133980000741,96.71133980000741,96.71133980000741,96.71133980000741,num_3,0.9169607999792788,97.64554329999373,97.64554329999373,None,,12,001,2025-12-19_15h04.32.050,2025C_exp1_detect,2022.2.4,59.93655116177043,
19.6,45,1,0,1,-1,0,24,24,236,97.64554329999373,97.64554329999373,98.14605660000234,98.21263829999953,98.26302980000037,98.26302980000037,98.26302980000037,98.26302980000037,98.31287819999852,98.31287819999852,98.31287819999852,98.31287819999852,98.31287819999852,98.31287819999852,98.31287819999852,98.31287819999852,98.31287819999852,98.31287819999852,num_3,1.8436956999939866,100.18131119999452,100.18131119999452,None,,12,001,2025-12-19_15h04.32.050,2025C_exp1_detect,2022.2.4,59.93655116177043,
39.2,45,1,0,1,-1,0,25,25,241,100.18131119999452,100.18131119999452,100.68208140000934,100.74877860001288,100.7989963,100.7989963,100.7989963,100.7989963,100.84892869999749,100.84892869999749,100.84892869999749,100.84892869999749,100.84892869999749,100.84892869999749,100.84892869999749,100.84892869999749,100.84892869999749,100.84892869999749,num_3,2.1785650000092573,103.05073330001323,103.05073330001323,None,,12,001,2025-12-19_15h04.32.050,2025C_exp1_detect,2022.2.4,59.93655116177043,
42.7,45,1,0,-1,-1,0,26,26,170,103.05073330001323,103.05073330001323,103.5514819000091,103.61815620001289,103.66847030000645,103.66847030000645,103.66847030000645,103.66847030000645,103.71837129999767,103.71837129999767,103.71837129999767,103.71837129999767,103.71837129999767,103.71837129999767,103.71837129999767,103.71837129999767,103.71837129999767,103.71837129999767,num_1,1.814250900002662,105.55352099999436,105.55352099999436,None,,12,001,2025-12-19_15h04.32.050,2025C_exp1_detect,2022.2.4,59.93655116177043,
35.3,315,1,1,-1,0,0,27,27,69,105.55352099999436,105.55352099999436,106.05394690000685,106.12065880000591,106.17087820000597,106.17087820000597,106.17087820000597,106.17087820000597,106.22072060001665,106.22072060001665,106.22072060001665,106.22072060001665,106.22072060001665,106.22072060001665,106.22072060001665,106.22072060001665,106.22072060001665,106.22072060001665,num_1,1.4709228000137955,107.72203500001342,107.72203500001342,None,,12,001,2025-12-19_15h04.32.050,2025C_exp1_detect,2022.2.4,59.93655116177043,
12.1,315,0,1,-1,0,0,28,28,45,107.72203500001342,107.72203500001342,108.22289699999965,108.28961160001927,108.3398545999953,108.3398545999953,108.3398545999953,108.3398545999953,108.38947990001179,108.38947990001179,108.38947990001179,108.38947990001179,108.38947990001179,108.38947990001179,108.38947990001179,108.38947990001179,108.38947990001179,108.38947990001179,num_3,0.7427327999903355,109.15684380001039,109.15684380001039,None,,12,001,2025-12-19_15h04.32.050,2025C_exp1_detect,2022.2.4,59.93655116177043,
22.7,315,1,1,-1,1,0,29,29,354,109.15684380001039,109.15684380001039,109.65755940001691,109.72428240001318,109.77456720001646,109.77456720001646,109.77456720001646,109.77456720001646,109.82441669999389,109.82441669999389,109.82441669999389,109.82441669999389,109.82441669999389,109.82441669999389,109.82441669999389,109.82441669999389,109.82441669999389,109.82441669999389,num_1,3.051947800006019,112.89386470001773,112.89386470001773,None,,12,001,2025-12-19_15h04.32.050,2025C_exp1_detect,2022.2.4,59.93655116177043,
29.4,45,1,1,-1,-1,0,30,30,203,112.89386470001773,112.89386470001773,113.39452289999463,113.46106190001592,113.51146550002159,113.51146550002159,113.51146550002159,113.51146550002159,113.56144160000258,113.56144160000258,113.56144160000258,113.56144160000258,113.56144160000258,113.56144160000258,113.56144160000258,113.56144160000258,113.56144160000258,113.56144160000258,num_1,1.0340245999977924,114.61235350000788,114.61235350000788,None,,12,001,2025-12-19_15h04.32.050,2025C_exp1_detect,2022.2.4,59.93655116177043,
12.1,315,1,0,-1,0,0,31,31,27,114.61235350000788,114.61235350000788,115.11298900001566,115.17971310002031,115.23004610001226,115.23004610001226,115.23004610001226,115.23004610001226,115.27987490000669,115.27987490000669,115.27987490000669,115.27987490000669,115.27987490000669,115.27987490000669,115.27987490000669,115.27987490000669,115.27987490000669,115.27987490000669,num_1,1.0602032999740914,116.36407700000564,116.36407700000564,None,,12,001,2025-12-19_15h04.32.050,2025C_exp1_detect,2022.2.4,59.93655116177043,
12.1,45,0,0,1,-1,0,32,32,216,116.36407700000564,116.36407700000564,116.86473669999395,116.9314696000074,116.98163910000585,116.98163910000585,116.98163910000585,116.98163910000585,117.03166070001316,117.03166070001316,117.03166070001316,117.03166070001316,117.03166070001316,117.03166070001316,117.03166070001316,117.03166070001316,117.03166070001316,117.03166070001316,num_3,0.9807001999870408,118.0324535999971,118.0324535999971,None,,12,001,2025-12-19_15h04.32.050,2025C_exp1_detect,2022.2.4,59.93655116177043,
39.2,315,0,0,1,0,0,33,33,88,118.0324535999971,118.0324535999971,118.53278249999858,118.59983230000944,118.65012010000646,118.65012010000646,118.65012010000646,118.65012010000646,118.69999980001012,118.69999980001012,118.69999980001012,118.69999980001012,118.69999980001012,118.69999980001012,118.69999980001012,118.69999980001012,118.69999980001012,118.69999980001012,num_3,1.2162403000111226,119.93421930001932,119.93421930001932,None,,12,001,2025-12-19_15h04.32.050,2025C_exp1_detect,2022.2.4,59.93655116177043,
35.3,315,1,0,1,-1,0,34,34,249,119.93421930001932,119.93421930001932,120.43500220001442,120.50173079999513,120.55204320000485,120.55204320000485,120.55204320000485,120.55204320000485,120.60174330000882,120.60174330000882,120.60174330000882,120.60174330000882,120.60174330000882,120.60174330000882,120.60174330000882,120.60174330000882,120.60174330000882,120.60174330000882,num_3,0.9057120999787003,121.5357948000019,121.5357948000019,None,,12,001,2025-12-19_15h04.32.050,2025C_exp1_detect,2022.2.4,59.93655116177043,
15.7,45,1,0,1,1,0,35,35,379,121.5357948000019,121.5357948000019,122.03663170000073,122.10322600000654,122.153547599999,122.153547599999,122.153547599999,122.153547599999,122.20353500000783,122.20353500000783,122.20353500000783,122.20353500000783,122.20353500000783,122.20353500000783,122.20353500000783,122.20353500000783,122.20353500000783,122.20353500000783,num_3,0.7438854000065476,122.9706514000136,122.9706514000136,None,,12,001,2025-12-19_15h04.32.050,2025C_exp1_detect,2022.2.4,59.93655116177043,
19.6,315,0,0,1,0,0,36,36,83,122.9706514000136,122.9706514000136,123.47113990000798,123.53805590001866,123.58838210001704,123.58838210001704,123.58838210001704,123.58838210001704,123.63827530000708,123.63827530000708,123.63827530000708,123.63827530000708,123.63827530000708,123.63827530000708,123.63827530000708,123.63827530000708,123.63827530000708,123.63827530000708,num_3,0.6463837000192143,124.30525830000988,124.30525830000988,None,,12,001,2025-12-19_15h04.32.050,2025C_exp1_detect,2022.2.4,59.93655116177043,
35.3,315,0,0,-1,1,0,37,37,303,124.30525830000988,124.30525830000988,124.8058955000015,124.8727482999966,124.92308500001673,124.92308500001673,124.92308500001673,124.92308500001673,124.97291100001894,124.97291100001894,124.97291100001894,124.97291100001894,124.97291100001894,124.97291100001894,124.97291100001894,124.97291100001894,124.97291100001894,124.97291100001894,num_3,1.1832572999992408,126.17376910001622,126.17376910001622,None,,12,001,2025-12-19_15h04.32.050,2025C_exp1_detect,2022.2.4,59.93655116177043,
15.7,315,0,1,1,-1,0,38,38,262,126.17376910001622,126.17376910001622,126.67457339999964,126.74126020001131,126.79175679999753,126.79175679999753,126.79175679999753,126.79175679999753,126.84145580002223,126.84145580002223,126.84145580002223,126.84145580002223,126.84145580002223,126.84145580002223,126.84145580002223,126.84145580002223,126.84145580002223,126.84145580002223,num_1,1.2498940999794286,128.10949600001913,128.10949600001913,None,,12,001,2025-12-19_15h04.32.050,2025C_exp1_detect,2022.2.4,59.93655116177043,
35.3,45,0,1,-1,1,0,39,39,330,128.10949600001913,128.10949600001913,128.60971930000233,128.6766074000043,128.72686850000173,128.72686850000173,128.72686850000173,128.72686850000173,128.77663470001426,128.77663470001426,128.77663470001426,128.77663470001426,128.77663470001426,128.77663470001426,128.77663470001426,128.77663470001426,128.77663470001426,128.77663470001426,num_3,1.7866264000185765,130.5951707000204,130.5951707000204,None,,12,001,2025-12-19_15h04.32.050,2025C_exp1_detect,2022.2.4,59.93655116177043,
29.4,45,1,0,1,-1,0,40,40,239,130.5951707000204,130.5951707000204,131.0956989999977,131.16230510000605,131.21270269999513,131.21270269999513,131.21270269999513,131.21270269999513,131.2625365999993,131.2625365999993,131.2625365999993,131.2625365999993,131.2625365999993,131.2625365999993,131.2625365999993,131.2625365999993,131.2625365999993,131.2625365999993,num_3,1.0128117999993265,132.32797090001986,132.32797090001986,None,,12,001,2025-12-19_15h04.32.050,2025C_exp1_detect,2022.2.4,59.93655116177043,
35.3,45,1,1,1,0,0,41,41,132,132.32797090001986,132.32797090001986,132.81418820002,132.88076670002192,132.93080590001773,132.93080590001773,132.93080590001773,132.93080590001773,132.98083139999653,132.98083139999653,132.98083139999653,132.98083139999653,132.98083139999653,132.98083139999653,132.99759830001858,132.99759830001858,132.99759830001858,132.99759830001858,num_3,0.7910052000079304,133.8147375000117,133.8147375000117,None,,12,001,2025-12-19_15h04.32.050,2025C_exp1_detect,2022.2.4,59.93655116177043,
15.7,315,1,1,1,-1,0,42,42,280,133.8147375000117,133.8147375000117,134.31526279999525,134.38225690001855,134.43257319999975,134.43257319999975,134.43257319999975,134.43257319999975,134.48239760001888,134.48239760001888,134.48239760001888,134.48239760001888,134.48239760001888,134.48239760001888,134.48239760001888,134.48239760001888,134.48239760001888,134.48239760001888,num_3,0.5537262999860104,135.06602660001954,135.06602660001954,None,,12,001,2025-12-19_15h04.32.050,2025C_exp1_detect,2022.2.4,59.93655116177043,
39.2,315,1,0,1,0,0,43,43,106,135.06602660001954,135.06602660001954,135.56677639999543,135.63333179999609,135.68372630001977,135.68372630001977,135.68372630001977,135.68372630001977,135.73367390001658,135.73367390001658,135.73367390001658,135.73367390001658,135.73367390001658,135.73367390001658,135.73367390001658,135.73367390001658,135.73367390001658,135.73367390001658,num_3,0.7423806000151671,136.5008194000111,136.5008194000111,None,,12,001,2025-12-19_15h04.32.050,2025C_exp1_detect,2022.2.4,59.93655116177043,
19.6,45,0,1,-1,1,0,44,44,326,136.5008194000111,136.5008194000111,137.0015314000193,137.06826580001507,137.11846050000167,137.11846050000167,137.11846050000167,137.11846050000167,137.16844110001693,137.16844110001693,137.16844110001693,137.16844110001693,137.16844110001693,137.16844110001693,137.16844110001693,137.16844110001693,137.16844110001693,137.16844110001693,num_3,0.860142999998061,138.05237000001944,138.05237000001944,None,,12,001,2025-12-19_15h04.32.050,2025C_exp1_detect,2022.2.4,59.93655116177043,
15.7,315,1,1,-1,1,0,45,45,352,138.05237000001944,138.05237000001944,138.55315670001437,138.61992009999813,138.67015170000377,138.67015170000377,138.67015170000377,138.67015170000377,138.71972190000815,138.71972190000815,138.71972190000815,138.71972190000815,138.71972190000815,138.71972190000815,138.71972190000815,138.71972190000815,138.71972190000815,138.71972190000815,num_1,0.572125100006815,139.3202667000005,139.3202667000005,None,,12,001,2025-12-19_15h04.32.050,2025C_exp1_detect,2022.2.4,59.93655116177043,
35.3,45,0,0,-1,-1,0,46,46,150,139.3202667000005,139.3202667000005,139.82075610000174,139.88749090000056,139.93775780001306,139.93775780001306,139.93775780001306,139.93775780001306,139.98778100000345,139.98778100000345,139.98778100000345,139.98778100000345,139.98778100000345,139.98778100000345,139.98778100000345,139.98778100000345,139.98778100000345,139.98778100000345,num_3,0.663707700005034,140.67158580000978,140.67158580000978,None,,12,001,2025-12-19_15h04.32.050,2025C_exp1_detect,2022.2.4,59.93655116177043,
39.2,315,1,0,-1,0,0,47,47,34,140.67158580000978,140.67158580000978,141.17210700002033,141.23886050001602,141.2892159000039,141.2892159000039,141.2892159000039,141.2892159000039,141.3389870999963,141.3389870999963,141.3389870999963,141.3389870999963,141.3389870999963,141.3389870999963,141.3389870999963,141.3389870999963,141.3389870999963,141.3389870999963,num_1,0.992646099999547,142.35659760001,142.35659760001,None,,12,001,2025-12-19_15h04.32.050,2025C_exp1_detect,2022.2.4,59.93655116177043,
35.3,45,1,0,-1,-1,0,48,48,168,142.35659760001,142.35659760001,142.8573347000056,142.9238469999982,142.9741522000113,142.9741522000113,142.9741522000113,142.9741522000113,143.02400860001217,143.02400860001217,143.02400860001217,143.02400860001217,143.02400860001217,143.02400860001217,143.02400860001217,143.02400860001217,143.02400860001217,143.02400860001217,num_1,0.48382520000450313,143.52442810000503,143.52442810000503,None,,12,001,2025-12-19_15h04.32.050,2025C_exp1_detect,2022.2.4,59.93655116177043,
42.7,45,0,0,-1,-1,0,49,49,152,143.52442810000503,143.52442810000503,144.0249560000084,144.09167230001185,144.14198889999534,144.14198889999534,144.14198889999534,144.14198889999534,144.19184850002057,144.19184850002057,144.19184850002057,144.19184850002057,144.19184850002057,144.19184850002057,144.19184850002057,144.19184850002057,144.19184850002057,144.19184850002057,num_3,0.6435711000231095,144.85910090000834,144.85910090000834,None,,12,001,2025-12-19_15h04.32.050,2025C_exp1_detect,2022.2.4,59.93655116177043,
35.3,315,0,1,-1,0,0,50,50,51,144.85910090000834,144.85910090000834,145.35987889999524,145.4266682000016,145.47690140001941,145.47690140001941,145.47690140001941,145.47690140001941,145.52671229999396,145.52671229999396,145.52671229999396,145.52671229999396,145.52671229999396,145.52671229999396,145.52671229999396,145.52671229999396,145.52671229999396,145.52671229999396,num_3,0.8933340000221506,146.44404960001702,146.44404960001702,None,,12,001,2025-12-19_15h04.32.050,2025C_exp1_detect,2022.2.4,59.93655116177043,
42.7,315,1,0,-1,-1,0,51,51,179,146.44404960001702,146.44404960001702,146.9448349000013,147.01142230001278,147.0615678000031,147.0615678000031,147.0615678000031,147.0615678000031,147.1115400000126,147.1115400000126,147.1115400000126,147.1115400000126,147.1115400000126,147.1115400000126,147.1115400000126,147.1115400000126,147.1115400000126,147.1115400000126,num_1,0.5964809999859426,147.72862390000955,147.72862390000955,None,,12,001,2025-12-19_15h04.32.050,2025C_exp1_detect,2022.2.4,59.93655116177043,
42.7,45,1,0,1,-1,0,52,52,242,147.72862390000955,147.72862390000955,148.2294429000176,148.29616590001388,148.3464850000164,148.3464850000164,148.3464850000164,148.3464850000164,148.39620869999635,148.39620869999635,148.39620869999635,148.39620869999635,148.39620869999635,148.39620869999635,148.39620869999635,148.39620869999635,148.39620869999635,148.39620869999635,num_3,0.8478139000071678,149.26357239999925,149.26357239999925,None,,12,001,2025-12-19_15h04.32.050,2025C_exp1_detect,2022.2.4,59.93655116177043,
39.2,45,1,1,1,0,0,53,53,133,149.26357239999925,149.26357239999925,149.76413200001116,149.83098379999865,149.88128359999973,149.88128359999973,149.88128359999973,149.88128359999973,149.93119490001118,149.93119490001118,149.93119490001118,149.93119490001118,149.93119490001118,149.93119490001118,149.93119490001118,149.93119490001118,149.93119490001118,149.93119490001118,num_3,0.592514799995115,150.5482886999962,150.5482886999962,None,,12,001,2025-12-19_15h04.32.050,2025C_exp1_detect,2022.2.4,59.93655116177043,
39.2,45,0,1,-1,0,0,54,54,43,150.5482886999962,150.5482886999962,151.04898019999382,151.1156786000065,151.16594930001884,151.16594930001884,151.16594930001884,151.16594930001884,151.21580860001268,151.21580860001268,151.21580860001268,151.21580860001268,151.21580860001268,151.21580860001268,151.21580860001268,151.21580860001268,151.21580860001268,151.21580860001268,num_3,0.8198647999961395,152.06633709999733,152.06633709999733,None,,12,001,2025-12-19_15h04.32.050,2025C_exp1_detect,2022.2.4,59.93655116177043,
25.5,45,1,1,-1,-1,0,55,55,202,152.06633709999733,152.06633709999733,152.5668813000084,152.63348980000592,152.6838490999944,152.6838490999944,152.6838490999944,152.6838490999944,152.7338247000007,152.7338247000007,152.7338247000007,152.7338247000007,152.7338247000007,152.7338247000007,152.7338247000007,152.7338247000007,152.7338247000007,152.7338247000007,num_1,0.5258675999939442,153.28414610002073,153.28414610002073,None,,12,001,2025-12-19_15h04.32.050,2025C_exp1_detect,2022.2.4,59.93655116177043,
39.2,45,1,0,1,1,0,56,56,385,153.28414610002073,153.28414610002073,153.78462340001715,153.8520955000131,153.90249229999608,153.90249229999608,153.90249229999608,153.90249229999608,153.95244990001083,153.95244990001083,153.95244990001083,153.95244990001083,153.95244990001083,153.95244990001083,153.95244990001083,153.95244990001083,153.95244990001083,153.95244990001083,num_3,0.6986532000009902,154.66888990000007,154.66888990000007,None,,12,001,2025-12-19_15h04.32.050,2025C_exp1_detect,2022.2.4,59.93655116177043,
39.2,45,1,0,1,0,0,57,57,97,154.66888990000007,154.66888990000007,155.17038150000735,155.23676440000418,155.2864230000123,155.2864230000123,155.2864230000123,155.2864230000123,155.33625799999572,155.33625799999572,155.33625799999572,155.33625799999572,155.33625799999572,155.33625799999572,155.33625799999572,155.33625799999572,155.33625799999572,155.33625799999572,num_3,0.5721979000081774,155.93761779999477,155.93761779999477,None,,12,001,2025-12-19_15h04.32.050,2025C_exp1_detect,2022.2.4,59.93655116177043,
22.7,315,1,0,-1,-1,0,58,58,174,155.93761779999477,155.93761779999477,156.43742269999348,156.50403270000243,156.55442530001164,156.55442530001164,156.55442530001164,156.55442530001164,156.6041930000065,156.6041930000065,156.6041930000065,156.6041930000065,156.6041930000065,156.6041930000065,156.6041930000065,156.6041930000065,156.6041930000065,156.6041930000065,num_3,0.9192157000070438,157.55509670000174,157.55509670000174,None,,12,001,2025-12-19_15h04.32.050,2025C_exp1_detect,2022.2.4,59.93655116177043,
25.5,315,1,0,1,1,0,59,59,391,157.55509670000174,157.55509670000174,158.05570910000824,158.12233010001364,158.17263939999975,158.17263939999975,158.17263939999975,158.17263939999975,158.22273790001054,158.22273790001054,158.22273790001054,158.22273790001054,158.22273790001054,158.22273790001054,158.22273790001054,158.22273790001054,158.22273790001054,158.22273790001054,num_3,0.6292259999900125,158.8736174000078,158.8736174000078,None,,12,001,2025-12-19_15h04.32.050,2025C_exp1_detect,2022.2.4,59.93655116177043,
29.4,315,1,1,1,-1,0,60,60,284,158.8736174000078,158.8736174000078,159.37358539999695,159.44036480001523,159.49066460001632,159.49066460001632,159.49066460001632,159.49066460001632,159.5406966000155,159.5406966000155,159.5406966000155,159.5406966000155,159.5406966000155,159.5406966000155,159.5406966000155,159.5406966000155,159.5406966000155,159.5406966000155,num_3,0.7676153999927919,160.32459190001828,160.32459190001828,None,,12,001,2025-12-19_15h04.32.050,2025C_exp1_detect,2022.2.4,59.93655116177043,
35.3,315,1,1,-1,1,0,61,61,357,160.32459190001828,160.32459190001828,160.82548940001288,160.89196239999728,160.9423338000197,160.9423338000197,160.9423338000197,160.9423338000197,160.99221580001176,160.99221580001176,160.99221580001176,160.99221580001176,160.99221580001176,160.99221580001176,160.99221580001176,160.99221580001176,160.99221580001176,160.99221580001176,num_1,1.3474259999929927,162.36018449999392,162.36018449999392,None,,12,001,2025-12-19_15h04.32.050,2025C_exp1_detect,2022.2.4,59.93655116177043,
39.2,315,1,1,-1,-1,0,62,62,214,162.36018449999392,162.36018449999392,162.8609160000051,162.92753240000457,162.97782100000768,162.97782100000768,162.97782100000768,162.97782100000768,163.02779750002082,163.02779750002082,163.02779750002082,163.02779750002082,163.02779750002082,163.02779750002082,163.02779750002082,163.02779750002082,163.02779750002082,163.02779750002082,num_1,0.5755173000216018,163.62792329999502,163.62792329999502,None,,12,001,2025-12-19_15h04.32.050,2025C_exp1_detect,2022.2.4,59.93655116177043,
19.6,45,1,0,-1,1,0,63,63,308,163.62792329999502,163.62792329999502,164.12860160000855,164.1954139000154,164.24572850001277,164.24572850001277,164.24572850001277,164.24572850001277,164.2955697000143,164.2955697000143,164.2955697000143,164.2955697000143,164.2955697000143,164.2955697000143,164.2955697000143,164.2955697000143,164.2955697000143,164.2955697000143,num_1,0.500077800010331,164.8123964999977,164.8123964999977,None,,12,001,2025-12-19_15h04.32.050,2025C_exp1_detect,2022.2.4,59.93655116177043,
25.5,315,1,1,-1,1,0,64,64,355,164.8123964999977,164.8123964999977,165.31285770001705,165.3795412000036,165.43015050000395,165.43015050000395,165.43015050000395,165.43015050000395,165.48004690001835,165.48004690001835,165.48004690001835,165.48004690001835,165.48004690001835,165.48004690001835,165.48004690001835,165.48004690001835,165.48004690001835,165.48004690001835,num_1,0.6994169000245165,166.19715200000792,166.19715200000792,None,,12,001,2025-12-19_15h04.32.050,2025C_exp1_detect,2022.2.4,59.93655116177043,
15.7,45,1,1,1,-1,0,65,65,271,166.19715200000792,166.19715200000792,166.69785480000428,166.76458370001637,166.81488010002067,166.81488010002067,166.81488010002067,166.81488010002067,166.86475750000682,166.86475750000682,166.86475750000682,166.86475750000682,166.86475750000682,166.86475750000682,166.86475750000682,166.86475750000682,166.86475750000682,166.86475750000682,num_3,0.8025990999885835,167.69864909999887,167.69864909999887,None,,12,001,2025-12-19_15h04.32.050,2025C_exp1_detect,2022.2.4,59.93655116177043,
22.7,315,1,1,-1,-1,0,66,66,210,167.69864909999887,167.69864909999887,168.1993638999993,168.26602650000132,168.31643820001045,168.31643820001045,168.31643820001045,168.31643820001045,168.36624790000496,168.36624790000496,168.36624790000496,168.36624790000496,168.36624790000496,168.36624790000496,168.36624790000496,168.36624790000496,168.36624790000496,168.36624790000496,num_3,1.638438199996017,170.0342375000182,170.0342375000182,None,,12,001,2025-12-19_15h04.32.050,2025C_exp1_detect,2022.2.4,59.93655116177043,
12.1,315,1,0,-1,1,0,67,67,315,170.0342375000182,170.0342375000182,170.53502530002152,170.60175220001838,170.65204590000212,170.65204590000212,170.65204590000212,170.65204590000212,170.70191669999622,170.70191669999622,170.70191669999622,170.70191669999622,170.70191669999622,170.70191669999622,170.70191669999622,170.70191669999622,170.70191669999622,170.70191669999622,num_1,0.9016020999988541,171.63597560001654,171.63597560001654,None,,12,001,2025-12-19_15h04.32.050,2025C_exp1_detect,2022.2.4,59.93655116177043,
39.2,45,0,0,1,0,0,68,68,79,171.63597560001654,171.63597560001654,172.1367291000206,172.20352380000986,172.25376960000722,172.25376960000722,172.25376960000722,172.25376960000722,172.30364940001164,172.30364940001164,172.30364940001164,172.30364940001164,172.30364940001164,172.30364940001164,172.30364940001164,172.30364940001164,172.30364940001164,172.30364940001164,num_3,0.6686052999866661,173.00418170000194,173.00418170000194,None,,12,001,2025-12-19_15h04.32.050,2025C_exp1_detect,2022.2.4,59.93655116177043,
19.6,315,0,0,-1,-1,0,69,69,155,173.00418170000194,173.00418170000194,173.50448830000823,173.5710781000089,173.62137609999627,173.62137609999627,173.62137609999627,173.62137609999627,173.67150700002094,173.67150700002094,173.67150700002094,173.67150700002094,173.67150700002094,173.67150700002094,173.67150700002094,173.67150700002094,173.67150700002094,173.67150700002094,num_3,3.757117000001017,177.45833839999977,177.45833839999977,None,,12,001,2025-12-19_15h04.32.050,2025C_exp1_detect,2022.2.4,59.93655116177043,
25.5,315,1,1,1,0,0,70,70,139,177.45833839999977,177.45833839999977,177.95909810002195,178.02596220001578,178.0762742999941,178.0762742999941,178.0762742999941,178.0762742999941,178.1260341000161,178.1260341000161,178.1260341000161,178.1260341000161,178.1260341000161,178.1260341000161,178.1260341000161,178.1260341000161,178.1260341000161,178.1260341000161,num_3,0.7972559999907389,178.94316850000178,178.94316850000178,None,,12,001,2025-12-19_15h04.32.050,2025C_exp1_detect,2022.2.4,59.93655116177043,
22.7,315,0,1,-1,1,0,71,71,336,178.94316850000178,178.94316850000178,179.44395430001896,179.51067240000702,179.56096400000388,179.56096400000388,179.56096400000388,179.56096400000388,179.61057889999938,179.61057889999938,179.61057889999938,179.61057889999938,179.61057889999938,179.61057889999938,179.61057889999938,179.61057889999938,179.61057889999938,179.61057889999938,num_3,0.6088008999940939,180.24454640000477,180.24454640000477,None,,12,001,2025-12-19_15h04.32.050,2025C_exp1_detect,2022.2.4,59.93655116177043,
35.3,45,0,1,-1,-1,0,72,72,186,180.24454640000477,180.24454640000477,180.74537420002162,180.81208620002144,180.86238279999816,180.86238279999816,180.86238279999816,180.86238279999816,180.91201820000424,180.91201820000424,180.91201820000424,180.91201820000424,180.91201820000424,180.91201820000424,180.91201820000424,180.91201820000424,180.91201820000424,180.91201820000424,num_3,0.6839812000107486,181.61249590001535,181.61249590001535,None,,12,001,2025-12-19_15h04.32.050,2025C_exp1_detect,2022.2.4,59.93655116177043,
29.4,315,0,0,1,-1,0,73,73,230,181.61249590001535,181.61249590001535,182.11331529999734,182.17990040002041,182.23020910000196,182.23020910000196,182.23020910000196,182.23020910000196,182.28006360001746,182.28006360001746,182.28006360001746,182.28006360001746,182.28006360001746,182.28006360001746,182.28006360001746,182.28006360001746,182.28006360001746,182.28006360001746,num_3,0.7240838000143413,183.03057590001845,183.03057590001845,None,,12,001,2025-12-19_15h04.32.050,2025C_exp1_detect,2022.2.4,59.93655116177043,
15.7,45,0,0,1,0,0,74,74,73,183.03057590001845,183.03057590001845,183.53133580001304,183.59820780000882,183.6485151000088,183.6485151000088,183.6485151000088,183.6485151000088,183.6981250999961,183.6981250999961,183.6981250999961,183.6981250999961,183.6981250999961,183.6981250999961,183.6981250999961,183.6981250999961,183.6981250999961,183.6981250999961,num_3,0.5297587999957614,184.24845060001826,184.24845060001826,None,,12,001,2025-12-19_15h04.32.050,2025C_exp1_detect,2022.2.4,59.93655116177043,
25.5,315,0,0,1,0,0,75,75,85,184.24845060001826,184.24845060001826,184.7492145000142,184.81595570000354,184.86628340001334,184.86628340001334,184.86628340001334,184.86628340001334,184.91613040000084,184.91613040000084,184.91613040000084,184.91613040000084,184.91613040000084,184.91613040000084,184.91613040000084,184.91613040000084,184.91613040000084,184.91613040000084,num_3,0.6721141000161879,185.61648820000119,185.61648820000119,None,,12,001,2025-12-19_15h04.32.050,2025C_exp1_detect,2022.2.4,59.93655116177043,
19.6,45,0,0,-1,-1,0,76,76,146,185.61648820000119,185.61648820000119,186.1172131000203,186.18395800000872,186.2344648000144,186.2344648000144,186.2344648000144,186.2344648000144,186.28420110000297,186.28420110000297,186.28420110000297,186.28420110000297,186.28420110000297,186.28420110000297,186.28420110000297,186.28420110000297,186.28420110000297,186.28420110000297,num_3,0.6160817999916617,186.91781730001094,186.91781730001094,None,,12,001,2025-12-19_15h04.32.050,2025C_exp1_detect,2022.2.4,59.93655116177043,
19.6,315,1,0,-1,-1,0,77,77,173,186.91781730001094,186.91781730001094,187.41848819999723,187.48530699999537,187.53557400000864,187.53557400000864,187.53557400000864,187.53557400000864,187.5854818999942,187.5854818999942,187.5854818999942,187.5854818999942,187.5854818999942,187.5854818999942,187.5854818999942,187.5854818999942,187.5854818999942,187.5854818999942,num_1,0.521900599997025,188.13578780001262,188.13578780001262,None,,12,001,2025-12-19_15h04.32.050,2025C_exp1_detect,2022.2.4,59.93655116177043,
22.7,45,0,0,-1,-1,0,78,78,147,188.13578780001262,188.13578780001262,188.6365873000177,188.7031513999973,188.75359670000034,188.75359670000034,188.75359670000034,188.75359670000034,188.80331149999984,188.80331149999984,188.80331149999984,188.80331149999984,188.80331149999984,188.80331149999984,188.80331149999984,188.80331149999984,188.80331149999984,188.80331149999984,num_3,0.7119326000101864,189.53706309999689,189.53706309999689,None,,12,001,2025-12-19_15h04.32.050,2025C_exp1_detect,2022.2.4,59.93655116177043,
42.7,315,0,0,-1,0,0,79,79,17,189.53706309999689,189.53706309999689,190.0378385000222,190.10454290002235,190.15484130001278,190.15484130001278,190.15484130001278,190.15484130001278,190.20443240000168,190.20443240000168,190.20443240000168,190.20443240000168,190.20443240000168,190.20443240000168,190.20443240000168,190.20443240000168,190.20443240000168,190.20443240000168,num_3,1.5274918999930378,191.75598630000604,191.75598630000604,None,,12,001,2025-12-19_15h04.32.050,2025C_exp1_detect,2022.2.4,59.93655116177043,
12.1,45,1,1,-1,-1,0,80,80,198,191.75598630000604,191.75598630000604,192.256523500022,192.32319350002217,192.3737231999985,192.3737231999985,192.3737231999985,192.3737231999985,192.42360390000977,192.42360390000977,192.42360390000977,192.42360390000977,192.42360390000977,192.42360390000977,192.42360390000977,192.42360390000977,192.42360390000977,192.42360390000977,num_1,0.6926674999995157,193.14072250001482,193.14072250001482,None,,12,001,2025-12-19_15h04.32.050,2025C_exp1_detect,2022.2.4,59.93655116177043,
15.7,45,0,1,1,-1,0,81,81,253,193.14072250001482,193.14072250001482,193.64143230000627,193.70803750000778,193.75840819999576,193.75840819999576,193.75840819999576,193.75840819999576,193.80834859999595,193.80834859999595,193.80834859999595,193.80834859999595,193.80834859999595,193.80834859999595,193.80834859999595,193.80834859999595,193.80834859999595,193.80834859999595,num_3,0.8438085000088904,194.67559769999934,194.67559769999934,None,,12,001,2025-12-19_15h04.32.050,2025C_exp1_detect,2022.2.4,59.93655116177043,
29.4,315,1,0,1,0,0,82,82,104,194.67559769999934,194.67559769999934,195.1763476000051,195.24320290001924,195.29344639999908,195.29344639999908,195.29344639999908,195.29344639999908,195.34311810001964,195.34311810001964,195.34311810001964,195.34311810001964,195.34311810001964,195.34311810001964,195.34311810001964,195.34311810001964,195.34311810001964,195.34311810001964,num_3,0.6202831999980845,195.99357320001582,195.99357320001582,None,,12,001,2025-12-19_15h04.32.050,2025C_exp1_detect,2022.2.4,59.93655116177043,
29.4,315,1,0,1,1,0,83,83,392,195.99357320001582,195.99357320001582,196.49414960001013,196.56101890001446,196.61132200001157,196.61132200001157,196.61132200001157,196.61132200001157,196.66118359999382,196.66118359999382,196.66118359999382,196.66118359999382,196.66118359999382,196.66118359999382,196.66118359999382,196.66118359999382,196.66118359999382,196.66118359999382,num_3,0.5901622000092175,197.27817370000412,197.27817370000412,None,,12,001,2025-12-19_15h04.32.050,2025C_exp1_detect,2022.2.4,59.93655116177043,
42.7,45,0,1,-1,1,0,84,84,332,197.27817370000412,197.27817370000412,197.7790868000011,197.84572480001952,197.89608120001503,197.89608120001503,197.89608120001503,197.89608120001503,197.9457251999993,197.9457251999993,197.9457251999993,197.9457251999993,197.9457251999993,197.9457251999993,197.9457251999993,197.9457251999993,197.9457251999993,197.9457251999993,num_3,1.3383747999905609,199.3135515000031,199.3135515000031,None,,12,001,2025-12-19_15h04.32.050,2025C_exp1_detect,2022.2.4,59.93655116177043,
35.3,315,0,1,1,-1,0,85,85,267,199.3135515000031,199.3135515000031,199.81426820001798,199.881005800009,199.93127160001313,199.93127160001313,199.93127160001313,199.93127160001313,199.98101950000273,199.98101950000273,199.98101950000273,199.98101950000273,199.98101950000273,199.98101950000273,199.98101950000273,199.98101950000273,199.98101950000273,199.98101950000273,num_1,0.5747769000008702,200.58157730000676,200.58157730000676,None,,12,001,2025-12-19_15h04.32.050,2025C_exp1_detect,2022.2.4,59.93655116177043,
19.6,45,1,1,1,1,0,86,86,416,200.58157730000676,200.58157730000676,201.082117700018,201.14882540001418,201.19925430000876,201.19925430000876,201.19925430000876,201.19925430000876,201.2490238000173,201.2490238000173,201.2490238000173,201.2490238000173,201.2490238000173,201.2490238000173,201.2490238000173,201.2490238000173,201.2490238000173,201.2490238000173,num_3,2.003674800012959,203.28421000001254,203.28421000001254,None,,12,001,2025-12-19_15h04.32.050,2025C_exp1_detect,2022.2.4,59.93655116177043,
35.3,45,1,1,1,1,0,87,87,420,203.28421000001254,203.28421000001254,203.78511110000545,203.8517933000112,203.90204330001143,203.90204330001143,203.90204330001143,203.90204330001143,203.95187540000188,203.95187540000188,203.95187540000188,203.95187540000188,203.95187540000188,203.95187540000188,203.95187540000188,203.95187540000188,203.95187540000188,203.95187540000188,num_1,1.132278300006874,205.10293079999974,205.10293079999974,None,,12,001,2025-12-19_15h04.32.050,2025C_exp1_detect,2022.2.4,59.93655116177043,
25.5,315,1,0,-1,0,0,88,88,31,205.10293079999974,205.10293079999974,205.60358590001124,205.67015410002205,205.72052269999404,205.72052269999404,205.72052269999404,205.72052269999404,205.77025020000292,205.77025020000292,205.77025020000292,205.77025020000292,205.77025020000292,205.77025020000292,205.77025020000292,205.77025020000292,205.77025020000292,205.77025020000292,num_1,0.5782089999993332,206.3706158999994,206.3706158999994,None,,12,001,2025-12-19_15h04.32.050,2025C_exp1_detect,2022.2.4,59.93655116177043,
39.2,315,0,1,1,0,0,89,89,124,206.3706158999994,206.3706158999994,206.87106900001527,206.93806159999804,206.9883611999976,206.9883611999976,206.9883611999976,206.9883611999976,207.0382307000109,207.0382307000109,207.0382307000109,207.0382307000109,207.0382307000109,207.0382307000109,207.0382307000109,207.0382307000109,207.0382307000109,207.0382307000109,num_1,0.5889828999934252,207.6553848000185,207.6553848000185,None,,12,001,2025-12-19_15h04.32.050,2025C_exp1_detect,2022.2.4,59.93655116177043,
42.7,45,0,1,1,0,0,90,90,116,207.6553848000185,207.6553848000185,208.1559530000086,208.22264740001992,208.27312840000377,208.27312840000377,208.27312840000377,208.27312840000377,208.3229646999971,208.3229646999971,208.3229646999971,208.3229646999971,208.3229646999971,208.3229646999971,208.3229646999971,208.3229646999971,208.3229646999971,208.3229646999971,num_1,0.489569900004426,208.8397263000079,208.8397263000079,None,,12,001,2025-12-19_15h04.32.050,2025C_exp1_detect,2022.2.4,59.93655116177043,
19.6,315,1,1,-1,0,0,91,91,65,208.8397263000079,208.8397263000079,209.34046659999876,209.40716480000992,209.45747710001888,209.45747710001888,209.45747710001888,209.45747710001888,209.5073328000144,209.5073328000144,209.5073328000144,209.5073328000144,209.5073328000144,209.5073328000144,209.5073328000144,209.5073328000144,209.5073328000144,209.5073328000144,num_1,0.5204246999928728,210.05763379999553,210.05763379999553,None,,12,001,2025-12-19_15h04.32.050,2025C_exp1_detect,2022.2.4,59.93655116177043,
12.1,315,1,1,-1,1,0,92,92,351,210.05763379999553,210.05763379999553,210.55833510000957,210.62508739999612,210.67554210001254,210.67554210001254,210.67554210001254,210.67554210001254,210.725245300011,210.725245300011,210.725245300011,210.725245300011,210.725245300011,210.725245300011,210.725245300011,210.725245300011,210.725245300011,210.725245300011,num_3,0.6633340000116732,211.4092365000106,211.4092365000106,None,,12,001,2025-12-19_15h04.32.050,2025C_exp1_detect,2022.2.4,59.93655116177043,
39.2,45,0,1,1,0,0,93,93,115,211.4092365000106,211.4092365000106,211.9095814000175,211.97641900001327,212.026729300007,212.026729300007,212.026729300007,212.026729300007,212.07658700001775,212.07658700001775,212.07658700001775,212.07658700001775,212.07658700001775,212.07658700001775,212.07658700001775,212.07658700001775,212.07658700001775,212.07658700001775,num_1,0.6470541000016965,212.74354440000025,212.74354440000025,None,,12,001,2025-12-19_15h04.32.050,2025C_exp1_detect,2022.2.4,59.93655116177043,
29.4,45,1,0,1,1,0,94,94,383,212.74354440000025,212.74354440000025,213.24432759999763,213.3112312000012,213.36156910000136,213.36156910000136,213.36156910000136,213.36156910000136,213.41140350000933,213.41140350000933,213.41140350000933,213.41140350000933,213.41140350000933,213.41140350000933,213.41140350000933,213.41140350000933,213.41140350000933,213.41140350000933,num_3,1.0079471000062767,214.4453513000044,214.4453513000044,None,,12,001,2025-12-19_15h04.32.050,2025C_exp1_detect,2022.2.4,59.93655116177043,
39.2,45,1,1,-1,0,0,95,95,61,214.4453513000044,214.4453513000044,214.94606600000407,215.01279589999467,215.06300360002206,215.06300360002206,215.06300360002206,215.06300360002206,215.11297200000263,215.11297200000263,215.11297200000263,215.11297200000263,215.11297200000263,215.11297200000263,215.11297200000263,215.11297200000263,215.11297200000263,215.11297200000263,num_1,0.6103075999999419,215.74663930002134,215.74663930002134,None,,12,001,2025-12-19_15h04.32.050,2025C_exp1_detect,2022.2.4,59.93655116177043,
25.5,45,0,0,-1,-1,0,96,96,148,215.74663930002134,215.74663930002134,216.24735240000882,216.31407190000755,216.3643938000023,216.3643938000023,216.3643938000023,216.3643938000023,216.41411169999628,216.41411169999628,216.41411169999628,216.41411169999628,216.41411169999628,216.41411169999628,216.41411169999628,216.41411169999628,216.41411169999628,216.41411169999628,num_3,0.6371187000186183,217.0814900000114,217.0814900000114,None,,12,001,2025-12-19_15h04.32.050,2025C_exp1_detect,2022.2.4,59.93655116177043,
39.2,315,0,1,1,-1,0,97,97,268,217.0814900000114,217.0814900000114,217.5821632000152,217.64887980002095,217.69921740001882,217.69921740001882,217.69921740001882,217.69921740001882,217.74907879999955,217.74907879999955,217.74907879999955,217.74907879999955,217.74907879999955,217.74907879999955,217.74907879999955,217.74907879999955,217.74907879999955,217.74907879999955,num_1,0.630855800001882,218.39946270000655,218.39946270000655,None,,12,001,2025-12-19_15h04.32.050,2025C_exp1_detect,2022.2.4,59.93655116177043,
39.2,45,0,1,1,1,0,98,98,403,218.39946270000655,218.39946270000655,218.9000908000162,218.9664802000043,219.01706179999746,219.01706179999746,219.01706179999746,219.01706179999746,219.06662830000278,219.06662830000278,219.06662830000278,219.06662830000278,219.06662830000278,219.06662830000278,219.06662830000278,219.06662830000278,219.06662830000278,219.06662830000278,num_1,0.569028600002639,219.66742949999752,219.66742949999752,None,,12,001,2025-12-19_15h04.32.050,2025C_exp1_detect,2022.2.4,59.93655116177043,
39.2,315,1,1,-1,1,0,99,99,358,219.66742949999752,219.66742949999752,220.16780409999774,220.23464480001712,220.28513730000122,220.28513730000122,220.28513730000122,220.28513730000122,220.33463339999435,220.33463339999435,220.33463339999435,220.33463339999435,220.33463339999435,220.33463339999435,220.33463339999435,220.33463339999435,220.33463339999435,220.33463339999435,num_1,0.9334934999933466,221.28574310001568,221.28574310001568,None,,12,001,2025-12-19_15h04.32.050,2025C_exp1_detect,2022.2.4,59.93655116177043,
19.6,45,0,0,1,-1,0,100,100,218,221.28574310001568,221.28574310001568,221.7861727999989,221.8528709000093,221.90329790001852,221.90329790001852,221.90329790001852,221.90329790001852,221.95315210000263,221.95315210000263,221.95315210000263,221.95315210000263,221.95315210000263,221.95315210000263,221.95315210000263,221.95315210000263,221.95315210000263,221.95315210000263,num_3,0.5626627000165172,222.5369570000039,222.5369570000039,None,,12,001,2025-12-19_15h04.32.050,2025C_exp1_detect,2022.2.4,59.93655116177043,
12.1,45,1,0,-1,1,0,101,101,306,222.5369570000039,222.5369570000039,223.03747430001386,223.10416700001224,223.1544009000063,223.1544009000063,223.1544009000063,223.1544009000063,223.20421019999776,223.20421019999776,223.20421019999776,223.20421019999776,223.20421019999776,223.20421019999776,223.20421019999776,223.20421019999776,223.20421019999776,223.20421019999776,num_1,0.6948147999937646,223.92149110001628,223.92149110001628,None,,12,001,2025-12-19_15h04.32.050,2025C_exp1_detect,2022.2.4,59.93655116177043,
29.4,315,1,0,-1,0,0,102,102,32,223.92149110001628,223.92149110001628,224.42198740001186,224.4888973000052,224.53920060000382,224.53920060000382,224.53920060000382,224.53920060000382,224.58906840000418,224.58906840000418,224.58906840000418,224.58906840000418,224.58906840000418,224.58906840000418,224.58906840000418,224.58906840000418,224.58906840000418,224.58906840000418,num_1,0.582423399988329,225.189426500001,225.189426500001,None,,12,001,2025-12-19_15h04.32.050,2025C_exp1_detect,2022.2.4,59.93655116177043,
39.2,315,1,0,1,-1,0,103,103,250,225.189426500001,225.189426500001,225.6902681000065,225.757079300005,225.8074334000121,225.8074334000121,225.8074334000121,225.8074334000121,225.85703750001267,225.85703750001267,225.85703750001267,225.85703750001267,225.85703750001267,225.85703750001267,225.85703750001267,225.85703750001267,225.85703750001267,225.85703750001267,num_3,0.6032321999955457,226.49092949999613,226.49092949999613,None,,12,001,2025-12-19_15h04.32.050,2025C_exp1_detect,2022.2.4,59.93655116177043,
22.7,315,1,0,-1,1,0,104,104,318,226.49092949999613,226.49092949999613,226.99119850000716,227.05812870000955,227.10841240000445,227.10841240000445,227.10841240000445,227.10841240000445,227.15838540002005,227.15838540002005,227.15838540002005,227.15838540002005,227.15838540002005,227.15838540002005,227.15838540002005,227.15838540002005,227.15838540002005,227.15838540002005,num_1,0.5976726000080816,227.77533620002214,227.77533620002214,None,,12,001,2025-12-19_15h04.32.050,2025C_exp1_detect,2022.2.4,59.93655116177043,
29.4,315,1,1,1,1,0,105,105,428,227.77533620002214,227.77533620002214,228.27608630000032,228.34269059999497,228.3930640000035,228.3930640000035,228.3930640000035,228.3930640000035,228.44283350001206,228.44283350001206,228.44283350001206,228.44283350001206,228.44283350001206,228.44283350001206,228.44283350001206,228.44283350001206,228.44283350001206,228.44283350001206,num_3,1.312436100008199,229.77721420000307,229.77721420000307,None,,12,001,2025-12-19_15h04.32.050,2025C_exp1_detect,2022.2.4,59.93655116177043,
39.2,315,1,0,-1,-1,0,106,106,178,229.77721420000307,229.77721420000307,230.2781753000163,230.34479540001485,230.3949871000077,230.3949871000077,230.3949871000077,230.3949871000077,230.44489090002025,230.44489090002025,230.44489090002025,230.44489090002025,230.44489090002025,230.44489090002025,230.44489090002025,230.44489090002025,230.44489090002025,230.44489090002025,num_1,0.5833707999845501,231.04566150001483,231.04566150001483,None,,12,001,2025-12-19_15h04.32.050,2025C_exp1_detect,2022.2.4,59.93655116177043,
19.6,45,0,1,-1,0,0,107,107,38,231.04566150001483,231.04566150001483,231.5460149999999,231.6128294999944,231.6631875000021,231.6631875000021,231.6631875000021,231.6631875000021,231.71282970000175,231.71282970000175,231.71282970000175,231.71282970000175,231.71282970000175,231.71282970000175,231.71282970000175,231.71282970000175,231.71282970000175,231.71282970000175,num_3,0.6347001000249293,232.38018340000417,232.38018340000417,space,3.24788070001523,12,001,2025-12-19_15h04.32.050,2025C_exp1_detect,2022.2.4,59.93655116177043,
15.7,315,1,0,1,0,0,108,108,100,235.65010150001035,235.65010150001035,236.15057990001515,236.21730519999983,236.26760650001233,236.26760650001233,236.26760650001233,236.26760650001233,236.31737540001632,236.31737540001632,236.31737540001632,236.31737540001632,236.31737540001632,236.31737540001632,236.31737540001632,236.31737540001632,236.31737540001632,236.31737540001632,num_3,0.6858623999869451,237.0346869000059,237.0346869000059,None,,12,001,2025-12-19_15h04.32.050,2025C_exp1_detect,2022.2.4,59.93655116177043,
25.5,315,1,1,1,-1,0,109,109,283,237.0346869000059,237.0346869000059,237.53499450001982,237.6019757000031,237.65221970001585,237.65221970001585,237.65221970001585,237.65221970001585,237.7022111999977,237.7022111999977,237.7022111999977,237.7022111999977,237.7022111999977,237.7022111999977,237.7022111999977,237.7022111999977,237.7022111999977,237.7022111999977,num_3,2.845410099980654,240.57166350001353,240.57166350001353,None,,12,001,2025-12-19_15h04.32.050,2025C_exp1_detect,2022.2.4,59.93655116177043,
12.1,315,0,1,1,1,0,110,110,405,240.57166350001353,240.57166350001353,241.07213440001942,241.13878979999572,241.18921660000342,241.18921660000342,241.18921660000342,241.18921660000342,241.23910870001419,241.23910870001419,241.23910870001419,241.23910870001419,241.23910870001419,241.23910870001419,241.23910870001419,241.23910870001419,241.23910870001419,241.23910870001419,num_1,0.9961627000011504,242.25655310001457,242.25655310001457,None,,12,001,2025-12-19_15h04.32.050,2025C_exp1_detect,2022.2.4,59.93655116177043,
29.4,315,0,0,-1,1,0,111,111,302,242.25655310001457,242.25655310001457,242.75717430000077,242.8238876000105,242.87419269999373,242.87419269999373,242.87419269999373,242.87419269999373,242.92406730001676,242.92406730001676,242.92406730001676,242.92406730001676,242.92406730001676,242.92406730001676,242.92406730001676,242.92406730001676,242.92406730001676,242.92406730001676,num_3,0.9840508000052068,243.9248928000161,243.9248928000161,None,,12,001,2025-12-19_15h04.32.050,2025C_exp1_detect,2022.2.4,59.93655116177043,
19.6,45,0,0,-1,0,0,112,112,2,243.9248928000161,243.9248928000161,244.425255500013,244.49212740000803,244.54255509999348,244.54255509999348,244.54255509999348,244.54255509999348,244.5924090000044,244.5924090000044,244.5924090000044,244.5924090000044,244.5924090000044,244.5924090000044,244.5924090000044,244.5924090000044,244.5924090000044,244.5924090000044,num_3,0.6833543999819085,245.2929473000113,245.2929473000113,None,,12,001,2025-12-19_15h04.32.050,2025C_exp1_detect,2022.2.4,59.93655116177043,
42.7,315,0,1,1,1,0,113,113,413,245.2929473000113,245.2929473000113,245.79353960001026,245.86025510000763,245.91058230001363,245.91058230001363,245.91058230001363,245.91058230001363,245.96043700000155,245.96043700000155,245.96043700000155,245.96043700000155,245.96043700000155,245.96043700000155,245.96043700000155,245.96043700000155,245.96043700000155,245.96043700000155,num_1,0.5868397999729495,246.57755680000992,246.57755680000992,None,,12,001,2025-12-19_15h04.32.050,2025C_exp1_detect,2022.2.4,59.93655116177043,
29.4,45,0,0,-1,1,0,114,114,293,246.57755680000992,246.57755680000992,247.07822910000687,247.14500089999638,247.19529920001514,247.19529920001514,247.19529920001514,247.19529920001514,247.24510150001151,247.24510150001151,247.24510150001151,247.24510150001151,247.24510150001151,247.24510150001151,247.24510150001151,247.24510150001151,247.24510150001151,247.24510150001151,num_3,0.678086899977643,247.94571910001105,247.94571910001105,None,,12,001,2025-12-19_15h04.32.050,2025C_exp1_detect,2022.2.4,59.93655116177043,
29.4,45,1,0,1,0,0,115,115,95,247.94571910001105,247.94571910001105,248.4462354000134,248.5126538000186,248.56329809999443,248.56329809999443,248.56329809999443,248.56329809999443,248.6129053000186,248.6129053000186,248.6129053000186,248.6129053000186,248.6129053000186,248.6129053000186,248.6129053000186,248.6129053000186,248.6129053000186,248.6129053000186,num_3,0.5504578000109177,249.18026449999888,249.18026449999888,None,,12,001,2025-12-19_15h04.32.050,2025C_exp1_detect,2022.2.4,59.93655116177043,
25.5,315,1,0,1,0,0,116,116,103,249.18026449999888,249.18026449999888,249.68074140002136,249.74748059999547,249.7977831000171,249.7977831000171,249.7977831000171,249.7977831000171,249.84770450001815,249.84770450001815,249.84770450001815,249.84770450001815,249.84770450001815,249.84770450001815,249.84770450001815,249.84770450001815,249.84770450001815,249.84770450001815,num_3,0.5404086000053212,250.41481780001777,250.41481780001777,None,,12,001,2025-12-19_15h04.32.050,2025C_exp1_detect,2022.2.4,59.93655116177043,
35.3,315,1,0,-1,1,0,117,117,321,250.41481780001777,250.41481780001777,250.91547860001447,250.98205409999355,251.03233630000614,251.03233630000614,251.03233630000614,251.03233630000614,251.08218680002028,251.08218680002028,251.08218680002028,251.08218680002028,251.08218680002028,251.08218680002028,251.08218680002028,251.08218680002028,251.08218680002028,251.08218680002028,num_1,0.6169783000077587,251.71612970001297,251.71612970001297,None,,12,001,2025-12-19_15h04.32.050,2025C_exp1_detect,2022.2.4,59.93655116177043,
39.2,45,0,0,-1,0,0,118,118,7,251.71612970001297,251.71612970001297,252.21662220000871,252.28334530000575,252.3336687000119,252.3336687000119,252.3336687000119,252.3336687000119,252.38351509999484,252.38351509999484,252.38351509999484,252.38351509999484,252.38351509999484,252.38351509999484,252.38351509999484,252.38351509999484,252.38351509999484,252.38351509999484,num_3,0.7482080000045244,253.15079390001483,253.15079390001483,None,,12,001,2025-12-19_15h04.32.050,2025C_exp1_detect,2022.2.4,59.93655116177043,
35.3,45,0,0,-1,1,0,119,119,294,253.15079390001483,253.15079390001483,253.65137680000043,253.71799060000922,253.768375500018,253.768375500018,253.768375500018,253.768375500018,253.81819439999526,253.81819439999526,253.81819439999526,253.81819439999526,253.81819439999526,253.81819439999526,253.81819439999526,253.81819439999526,253.81819439999526,253.81819439999526,num_3,0.5144954000134021,254.35218260000693,254.35218260000693,None,,12,001,2025-12-19_15h04.32.050,2025C_exp1_detect,2022.2.4,59.93655116177043,
12.1,315,1,0,1,1,0,120,120,387,254.35218260000693,254.35218260000693,254.85258229999454,254.9192968000134,254.96941980000702,254.96941980000702,254.96941980000702,254.96941980000702,255.01940390001982,255.01940390001982,255.01940390001982,255.01940390001982,255.01940390001982,255.01940390001982,255.01940390001982,255.01940390001982,255.01940390001982,255.01940390001982,num_3,0.7037505000189412,255.75333560002036,255.75333560002036,None,,12,001,2025-12-19_15h04.32.050,2025C_exp1_detect,2022.2.4,59.93655116177043,
15.7,315,0,1,-1,-1,0,121,121,190,255.75333560002036,255.75333560002036,256.25398740000674,256.32068550001713,256.37100149999605,256.37100149999605,256.37100149999605,256.37100149999605,256.4208809999982,256.4208809999982,256.4208809999982,256.4208809999982,256.4208809999982,256.4208809999982,256.4208809999982,256.4208809999982,256.4208809999982,256.4208809999982,num_3,0.831455100007588,257.27181310000014,257.27181310000014,None,,12,001,2025-12-19_15h04.32.050,2025C_exp1_detect,2022.2.4,59.93655116177043,
42.7,315,1,0,1,1,0,122,122,395,257.27181310000014,257.27181310000014,257.77217790001305,257.8388632000133,257.8891823000158,257.8891823000158,257.8891823000158,257.8891823000158,257.939066299994,257.939066299994,257.939066299994,257.939066299994,257.939066299994,257.939066299994,257.939066299994,257.939066299994,257.939066299994,257.939066299994,num_3,0.5685375000175554,258.5396151000168,258.5396151000168,None,,12,001,2025-12-19_15h04.32.050,2025C_exp1_detect,2022.2.4,59.93655116177043,
25.5,315,1,0,1,-1,0,123,123,247,258.5396151000168,258.5396151000168,259.0399706000171,259.10682149999775,259.157142800017,259.157142800017,259.157142800017,259.157142800017,259.2069268000196,259.2069268000196,259.2069268000196,259.2069268000196,259.2069268000196,259.2069268000196,259.2069268000196,259.2069268000196,259.2069268000196,259.2069268000196,num_3,0.5164777000027243,259.74079340000753,259.74079340000753,None,,12,001,2025-12-19_15h04.32.050,2025C_exp1_detect,2022.2.4,59.93655116177043,
39.2,45,1,1,1,1,0,124,124,421,259.74079340000753,259.74079340000753,260.24146910000127,260.30819280000287,260.35850709999795,260.35850709999795,260.35850709999795,260.35850709999795,260.4082151000039,260.4082151000039,260.4082151000039,260.4082151000039,260.4082151000039,260.4082151000039,260.4082151000039,260.4082151000039,260.4082151000039,260.4082151000039,num_3,0.49995950001175515,260.9252475000103,260.9252475000103,None,,12,001,2025-12-19_15h04.32.050,2025C_exp1_detect,2022.2.4,59.93655116177043,
29.4,45,0,1,1,1,0,125,125,401,260.9252475000103,260.9252475000103,261.4258332000172,261.49254160001874,261.5428598000144,261.5428598000144,261.5428598000144,261.5428598000144,261.59270540002035,261.59270540002035,261.59270540002035,261.59270540002035,261.59270540002035,261.59270540002035,261.59270540002035,261.59270540002035,261.59270540002035,261.59270540002035,num_1,0.6186488999810535,262.24328439999954,262.24328439999954,None,,12,001,2025-12-19_15h04.32.050,2025C_exp1_detect,2022.2.4,59.93655116177043,
25.5,45,0,1,-1,0,0,126,126,40,262.24328439999954,262.24328439999954,262.7436607000127,262.81044400000246,262.8607031000138,262.8607031000138,262.8607031000138,262.8607031000138,262.91069889999926,262.91069889999926,262.91069889999926,262.91069889999926,262.91069889999926,262.91069889999926,262.91069889999926,262.91069889999926,262.91069889999926,262.91069889999926,num_3,0.5811726000101771,263.51120740000624,263.51120740000624,None,,12,001,2025-12-19_15h04.32.050,2025C_exp1_detect,2022.2.4,59.93655116177043,
12.1,315,1,1,1,-1,0,127,127,279,263.51120740000624,263.51120740000624,264.0116263999953,264.0784704000107,264.1286949000205,264.1286949000205,264.1286949000205,264.1286949000205,264.17865380001604,264.17865380001604,264.17865380001604,264.17865380001604,264.17865380001604,264.17865380001604,264.17865380001604,264.17865380001604,264.17865380001604,264.17865380001604,num_3,0.4891655000101309,264.6958714000066,264.6958714000066,None,,12,001,2025-12-19_15h04.32.050,2025C_exp1_detect,2022.2.4,59.93655116177043,
19.6,315,0,1,-1,0,0,128,128,47,264.6958714000066,264.6958714000066,265.1961901000177,265.2629588000127,265.31316380001954,265.31316380001954,265.31316380001954,265.31316380001954,265.3631517000031,265.3631517000031,265.3631517000031,265.3631517000031,265.3631517000031,265.3631517000031,265.3631517000031,265.3631517000031,265.3631517000031,265.3631517000031,num_3,0.720642800006317,266.11372769999434,266.11372769999434,None,,12,001,2025-12-19_15h04.32.050,2025C_exp1_detect,2022.2.4,59.93655116177043,
35.3,45,0,1,1,-1,0,129,129,258,266.11372769999434,266.11372769999434,266.6143249000015,266.68104900000617,266.73134030000074,266.73134030000074,266.73134030000074,266.73134030000074,266.7812350000022,266.7812350000022,266.7812350000022,266.7812350000022,266.7812350000022,266.7812350000022,266.7812350000022,266.7812350000022,266.7812350000022,266.7812350000022,num_1,2.062988099991344,268.8665934000164,268.8665934000164,None,,12,001,2025-12-19_15h04.32.050,2025C_exp1_detect,2022.2.4,59.93655116177043,
15.7,315,1,1,-1,-1,0,130,130,208,268.8665934000164,268.8665934000164,269.3670734000043,269.4338209000125,269.48397719999775,269.48397719999775,269.48397719999775,269.48397719999775,269.5338207000168,269.5338207000168,269.5338207000168,269.5338207000168,269.5338207000168,269.5338207000168,269.5338207000168,269.5338207000168,269.5338207000168,269.5338207000168,num_1,0.9416370000108145,270.5016846000217,270.5016846000217,None,,12,001,2025-12-19_15h04.32.050,2025C_exp1_detect,2022.2.4,59.93655116177043,
39.2,45,0,0,-1,-1,0,131,131,151,270.5016846000217,270.5016846000217,271.0020949000027,271.0687493000005,271.1190811000124,271.1190811000124,271.1190811000124,271.1190811000124,271.16896500001894,271.16896500001894,271.16896500001894,271.16896500001894,271.16896500001894,271.16896500001894,271.16896500001894,271.16896500001894,271.16896500001894,271.16896500001894,num_3,0.5956361000135075,271.78637940000044,271.78637940000044,None,,12,001,2025-12-19_15h04.32.050,2025C_exp1_detect,2022.2.4,59.93655116177043,
22.7,315,0,0,1,0,0,132,132,84,271.78637940000044,271.78637940000044,272.2866605000163,272.35337320002145,272.4036519000074,272.4036519000074,272.4036519000074,272.4036519000074,272.45356600001105,272.45356600001105,272.45356600001105,272.45356600001105,272.45356600001105,272.45356600001105,272.45356600001105,272.45356600001105,272.45356600001105,272.45356600001105,num_3,1.4934503000113182,273.9714689000102,273.9714689000102,None,,12,001,2025-12-19_15h04.32.050,2025C_exp1_detect,2022.2.4,59.93655116177043,
25.5,45,0,1,1,1,0,133,133,400,273.9714689000102,273.9714689000102,274.4721769000171,274.53894800000126,274.5893667000055,274.5893667000055,274.5893667000055,274.5893667000055,274.6390956999967,274.6390956999967,274.6390956999967,274.6390956999967,274.6390956999967,274.6390956999967,274.6390956999967,274.6390956999967,274.6390956999967,274.6390956999967,num_1,0.7641827000188641,275.42285420000553,275.42285420000553,None,,12,001,2025-12-19_15h04.32.050,2025C_exp1_detect,2022.2.4,59.93655116177043,
22.7,45,1,1,-1,0,0,134,134,57,275.42285420000553,275.42285420000553,275.92361480000545,275.9903360000171,276.0406337000022,276.0406337000022,276.0406337000022,276.0406337000022,276.0905216000101,276.0905216000101,276.0905216000101,276.0905216000101,276.0905216000101,276.0905216000101,276.0905216000101,276.0905216000101,276.0905216000101,276.0905216000101,num_1,0.9770722000102978,277.09147750001284,277.09147750001284,None,,12,001,2025-12-19_15h04.32.050,2025C_exp1_detect,2022.2.4,59.93655116177043,
12.1,45,0,1,1,0,0,135,135,108,277.09147750001284,277.09147750001284,277.59195380000165,277.6587755000219,277.7089035999961,277.7089035999961,277.7089035999961,277.7089035999961,277.7588934999949,277.7588934999949,277.7588934999949,277.7588934999949,277.7588934999949,277.7588934999949,277.7588934999949,277.7588934999949,277.7588934999949,277.7588934999949,num_1,0.6764153999974951,278.45949890001793,278.45949890001793,None,,12,001,2025-12-19_15h04.32.050,2025C_exp1_detect,2022.2.4,59.93655116177043,
12.1,45,1,1,-1,1,0,136,136,342,278.45949890001793,278.45949890001793,278.9600089000014,279.0266177000012,279.07701290000114,279.07701290000114,279.07701290000114,279.07701290000114,279.12683970000944,279.12683970000944,279.12683970000944,279.12683970000944,279.12683970000944,279.12683970000944,279.12683970000944,279.12683970000944,279.12683970000944,279.12683970000944,num_1,0.5085048000037204,279.6608235000167,279.6608235000167,None,,12,001,2025-12-19_15h04.32.050,2025C_exp1_detect,2022.2.4,59.93655116177043,
15.7,315,0,1,-1,1,0,137,137,334,279.6608235000167,279.6608235000167,280.1614599000022,280.228059999994,280.27837569999974,280.27837569999974,280.27837569999974,280.27837569999974,280.328208299994,280.328208299994,280.328208299994,280.328208299994,280.328208299994,280.328208299994,280.328208299994,280.328208299994,280.328208299994,280.328208299994,num_3,0.8835899000114296,281.22892890000367,281.22892890000367,None,,12,001,2025-12-19_15h04.32.050,2025C_exp1_detect,2022.2.4,59.93655116177043,
35.3,315,1,0,1,1,0,138,138,393,281.22892890000367,281.22892890000367,281.7296742000035,281.79628939999384,281.8466845000221,281.8466845000221,281.8466845000221,281.8466845000221,281.89631250000093,281.89631250000093,281.89631250000093,281.89631250000093,281.89631250000093,281.89631250000093,281.89631250000093,281.89631250000093,281.89631250000093,281.89631250000093,num_3,0.7955740000179503,282.7139305000019,282.7139305000019,None,,12,001,2025-12-19_15h04.32.050,2025C_exp1_detect,2022.2.4,59.93655116177043,
29.4,315,1,0,1,-1,0,139,139,248,282.7139305000019,282.7139305000019,283.2142848999938,283.28102320001926,283.33142339999904,283.33142339999904,283.33142339999904,283.33142339999904,283.38101219999953,283.38101219999953,283.38101219999953,283.38101219999953,283.38101219999953,283.38101219999953,283.38101219999953,283.38101219999953,283.38101219999953,283.38101219999953,num_3,0.6066307000000961,284.0153000999999,284.0153000999999,None,,12,001,2025-12-19_15h04.32.050,2025C_exp1_detect,2022.2.4,59.93655116177043,
29.4,315,0,1,1,-1,0,140,140,266,284.0153000999999,284.0153000999999,284.5154398000159,284.58229530000244,284.6324516000168,284.6324516000168,284.6324516000168,284.6324516000168,284.68246380001074,284.68246380001074,284.68246380001074,284.68246380001074,284.68246380001074,284.68246380001074,284.68246380001074,284.68246380001074,284.68246380001074,284.68246380001074,num_1,0.6966973000089638,285.39976930001285,285.39976930001285,None,,12,001,2025-12-19_15h04.32.050,2025C_exp1_detect,2022.2.4,59.93655116177043,
15.7,315,1,0,1,-1,0,141,141,244,285.39976930001285,285.39976930001285,285.90022159999353,285.9670284000167,286.01732420001645,286.01732420001645,286.01732420001645,286.01732420001645,286.06710370001383,286.06710370001383,286.06710370001383,286.06710370001383,286.06710370001383,286.06710370001383,286.06710370001383,286.06710370001383,286.06710370001383,286.06710370001383,num_3,0.6321679999819025,286.71778639999684,286.71778639999684,None,,12,001,2025-12-19_15h04.32.050,2025C_exp1_detect,2022.2.4,59.93655116177043,
42.7,315,1,1,-1,1,0,142,142,359,286.71778639999684,286.71778639999684,287.218449100008,287.2851438000216,287.33539089999977,287.33539089999977,287.33539089999977,287.33539089999977,287.3850676000002,287.3850676000002,287.3850676000002,287.3850676000002,287.3850676000002,287.3850676000002,287.3850676000002,287.3850676000002,287.3850676000002,287.3850676000002,num_3,0.8101668999879621,288.2192103000125,288.2192103000125,None,,12,001,2025-12-19_15h04.32.050,2025C_exp1_detect,2022.2.4,59.93655116177043,
25.5,45,1,1,-1,0,0,143,143,58,288.2192103000125,288.2192103000125,288.71980180000537,288.78641220001737,288.83676220002235,288.83676220002235,288.83676220002235,288.83676220002235,288.88643630000297,288.88643630000297,288.88643630000297,288.88643630000297,288.88643630000297,288.88643630000297,288.88643630000297,288.88643630000297,288.88643630000297,288.88643630000297,num_1,0.7166278999939095,289.6205215000082,289.6205215000082,None,,12,001,2025-12-19_15h04.32.050,2025C_exp1_detect,2022.2.4,59.93655116177043,
25.5,315,0,1,1,1,0,144,144,409,289.6205215000082,289.6205215000082,290.12141910000355,290.188015599997,290.238396700006,290.238396700006,290.238396700006,290.238396700006,290.2881857000175,290.2881857000175,290.2881857000175,290.2881857000175,290.2881857000175,290.2881857000175,290.2881857000175,290.2881857000175,290.2881857000175,290.2881857000175,num_3,1.060256600001594,291.3723809000221,291.3723809000221,None,,12,001,2025-12-19_15h04.32.050,2025C_exp1_detect,2022.2.4,59.93655116177043,
25.5,45,1,0,1,-1,0,145,145,238,291.3723809000221,291.3723809000221,291.8728947000054,291.9395371999999,291.9898753000016,291.9898753000016,291.9898753000016,291.9898753000016,292.03979710000567,292.03979710000567,292.03979710000567,292.03979710000567,292.03979710000567,292.03979710000567,292.03979710000567,292.03979710000567,292.03979710000567,292.03979710000567,num_3,0.7075497999903746,292.77381330000935,292.77381330000935,None,,12,001,2025-12-19_15h04.32.050,2025C_exp1_detect,2022.2.4,59.93655116177043,
35.3,45,0,1,-1,0,0,146,146,42,292.77381330000935,292.77381330000935,293.274310400011,293.34092360001523,293.3911919000093,293.3911919000093,293.3911919000093,293.3911919000093,293.44119420001516,293.44119420001516,293.44119420001516,293.44119420001516,293.44119420001516,293.44119420001516,293.44119420001516,293.44119420001516,293.44119420001516,293.44119420001516,num_3,0.6504621999920346,294.1084061000147,294.1084061000147,None,,12,001,2025-12-19_15h04.32.050,2025C_exp1_detect,2022.2.4,59.93655116177043,
29.4,45,1,0,-1,-1,0,147,147,167,294.1084061000147,294.1084061000147,294.60895730002085,294.6756619999942,294.72592330002226,294.72592330002226,294.72592330002226,294.72592330002226,294.77586350002093,294.77586350002093,294.77586350002093,294.77586350002093,294.77586350002093,294.77586350002093,294.77586350002093,294.77586350002093,294.77586350002093,294.77586350002093,num_1,0.5477501999994274,295.3429862000048,295.3429862000048,None,,12,001,2025-12-19_15h04.32.050,2025C_exp1_detect,2022.2.4,59.93655116177043,
29.4,45,0,0,-1,0,0,148,148,5,295.3429862000048,295.3429862000048,295.8435769000207,295.9102815000224,295.9605709000025,295.9605709000025,295.9605709000025,295.9605709000025,296.0103035000211,296.0103035000211,296.0103035000211,296.0103035000211,296.0103035000211,296.0103035000211,296.0103035000211,296.0103035000211,296.0103035000211,296.0103035000211,num_3,0.7616428000037558,296.7943744000222,296.7943744000222,None,,12,001,2025-12-19_15h04.32.050,2025C_exp1_detect,2022.2.4,59.93655116177043,
22.7,45,0,0,-1,1,0,149,149,291,296.7943744000222,296.7943744000222,297.294982100022,297.36168010000256,297.4120282000222,297.4120282000222,297.4120282000222,297.4120282000222,297.46187140000984,297.46187140000984,297.46187140000984,297.46187140000984,297.46187140000984,297.46187140000984,297.46187140000984,297.46187140000984,297.46187140000984,297.46187140000984,num_3,0.6773380000086036,298.1625119000091,298.1625119000091,None,,12,001,2025-12-19_15h04.32.050,2025C_exp1_detect,2022.2.4,59.93655116177043,
15.7,45,1,1,-1,-1,0,150,150,199,298.1625119000091,298.1625119000091,298.66303029999835,298.7296915000188,298.78003930000705,298.78003930000705,298.78003930000705,298.78003930000705,298.82990209999844,298.82990209999844,298.82990209999844,298.82990209999844,298.82990209999844,298.82990209999844,298.82990209999844,298.82990209999844,298.82990209999844,298.82990209999844,num_3,2.637403100001393,301.49914270002046,301.49914270002046,None,,12,001,2025-12-19_15h04.32.050,2025C_exp1_detect,2022.2.4,59.93655116177043,
39.2,315,0,0,-1,-1,0,151,151,160,301.49914270002046,301.49914270002046,301.99969950001105,302.0664111000078,302.11673619999783,302.11673619999783,302.11673619999783,302.11673619999783,302.1664542000217,302.1664542000217,302.1664542000217,302.1664542000217,302.1664542000217,302.1664542000217,302.1664542000217,302.1664542000217,302.1664542000217,302.1664542000217,num_3,0.7010819999850355,302.88381570001366,302.88381570001366,None,,12,001,2025-12-19_15h04.32.050,2025C_exp1_detect,2022.2.4,59.93655116177043,
25.5,315,0,0,-1,-1,0,152,152,157,302.88381570001366,302.88381570001366,303.38439890000154,303.45109410001896,303.5014010000159,303.5014010000159,303.5014010000159,303.5014010000159,303.5512765000167,303.5512765000167,303.5512765000167,303.5512765000167,303.5512765000167,303.5512765000167,303.5512765000167,303.5512765000167,303.5512765000167,303.5512765000167,num_3,0.445108199986862,304.01838600001065,304.01838600001065,None,,12,001,2025-12-19_15h04.32.050,2025C_exp1_detect,2022.2.4,59.93655116177043,
25.5,45,1,1,1,-1,0,153,153,274,304.01838600001065,304.01838600001065,304.51881649999996,304.58525180001743,304.635883800016,304.635883800016,304.635883800016,304.635883800016,304.68581630001427,304.68581630001427,304.68581630001427,304.68581630001427,304.68581630001427,304.68581630001427,304.68581630001427,304.68581630001427,304.68581630001427,304.68581630001427,num_3,1.2057672000082675,305.92012300001807,305.92012300001807,None,,12,001,2025-12-19_15h04.32.050,2025C_exp1_detect,2022.2.4,59.93655116177043,
19.6,45,1,1,1,0,0,154,154,128,305.92012300001807,305.92012300001807,306.4207585999975,306.4874916000117,306.5377466000209,306.5377466000209,306.5377466000209,306.5377466000209,306.587620300008,306.587620300008,306.587620300008,306.587620300008,306.587620300008,306.587620300008,306.587620300008,306.587620300008,306.587620300008,306.587620300008,num_3,0.639890699996613,307.25491360001615,307.25491360001615,None,,12,001,2025-12-19_15h04.32.050,2025C_exp1_detect,2022.2.4,59.93655116177043,
12.1,45,0,1,1,1,0,155,155,396,307.25491360001615,307.25491360001615,307.7553021000058,307.82214160001604,307.87245610001264,307.87245610001264,307.87245610001264,307.87245610001264,307.9221574999974,307.9221574999974,307.9221574999974,307.9221574999974,307.9221574999974,307.9221574999974,307.9221574999974,307.9221574999974,307.9221574999974,307.9221574999974,num_3,0.46554180001839995,308.4062707000121,308.4062707000121,None,,12,001,2025-12-19_15h04.32.050,2025C_exp1_detect,2022.2.4,59.93655116177043,
35.3,315,0,0,1,1,0,156,156,375,308.4062707000121,308.4062707000121,308.9066402000026,308.97310760000255,309.0234786000219,309.0234786000219,309.0234786000219,309.0234786000219,309.0735646999965,309.0735646999965,309.0735646999965,309.0735646999965,309.0735646999965,309.0735646999965,309.0735646999965,309.0735646999965,309.0735646999965,309.0735646999965,num_3,0.946775999997044,310.0409251000092,310.0409251000092,None,,12,001,2025-12-19_15h04.32.050,2025C_exp1_detect,2022.2.4,59.93655116177043,
19.6,45,1,0,1,0,0,157,157,92,310.0409251000092,310.0409251000092,310.5415359000035,310.6082423000189,310.6585657999967,310.6585657999967,310.6585657999967,310.6585657999967,310.7084560999938,310.7084560999938,310.7084560999938,310.7084560999938,310.7084560999938,310.7084560999938,310.7084560999938,310.7084560999938,310.7084560999938,310.7084560999938,num_3,0.7907100000011269,311.5257104000193,311.5257104000193,None,,12,001,2025-12-19_15h04.32.050,2025C_exp1_detect,2022.2.4,59.93655116177043,
19.6,45,0,1,1,-1,0,158,158,254,311.5257104000193,311.5257104000193,312.02635729999747,312.0930631000083,312.14340050000465,312.14340050000465,312.14340050000465,312.14340050000465,312.19325390001177,312.19325390001177,312.19325390001177,312.19325390001177,312.19325390001177,312.19325390001177,312.19325390001177,312.19325390001177,312.19325390001177,312.19325390001177,num_3,0.49080250001861714,312.7103574000066,312.7103574000066,None,,12,001,2025-12-19_15h04.32.050,2025C_exp1_detect,2022.2.4,59.93655116177043,
12.1,315,0,0,-1,-1,0,159,159,153,312.7103574000066,312.7103574000066,313.2109447999974,313.27762690000236,313.3278566999943,313.3278566999943,313.3278566999943,313.3278566999943,313.37783090001903,313.37783090001903,313.37783090001903,313.37783090001903,313.37783090001903,313.37783090001903,313.37783090001903,313.37783090001903,313.37783090001903,313.37783090001903,num_3,0.8425587000092492,314.24514980000095,314.24514980000095,None,,12,001,2025-12-19_15h04.32.050,2025C_exp1_detect,2022.2.4,59.93655116177043,
12.1,315,0,0,1,0,0,160,160,81,314.24514980000095,314.24514980000095,314.74575630002073,314.8126334999979,314.8628310000058,314.8628310000058,314.8628310000058,314.8628310000058,314.91266080000787,314.91266080000787,314.91266080000787,314.91266080000787,314.91266080000787,314.91266080000787,314.91266080000787,314.91266080000787,314.91266080000787,314.91266080000787,num_3,0.7797477999993134,315.71337529999437,315.71337529999437,None,,12,001,2025-12-19_15h04.32.050,2025C_exp1_detect,2022.2.4,59.93655116177043,
15.7,315,1,1,1,1,0,161,161,424,315.71337529999437,315.71337529999437,316.2140352000133,316.2806580000033,316.33091290001175,316.33091290001175,316.33091290001175,316.33091290001175,316.38079660001677,316.38079660001677,316.38079660001677,316.38079660001677,316.38079660001677,316.38079660001677,316.38079660001677,316.38079660001677,316.38079660001677,316.38079660001677,num_1,1.8388727999990806,318.2489770000102,318.2489770000102,None,,12,001,2025-12-19_15h04.32.050,2025C_exp1_detect,2022.2.4,59.93655116177043,
29.4,315,1,0,-1,1,0,162,162,320,318.2489770000102,318.2489770000102,318.74964340002043,318.81638279999606,318.8667476999981,318.8667476999981,318.8667476999981,318.8667476999981,318.91644600001746,318.91644600001746,318.91644600001746,318.91644600001746,318.91644600001746,318.91644600001746,318.91644600001746,318.91644600001746,318.91644600001746,318.91644600001746,num_1,0.6078899000131059,319.5505313000176,319.5505313000176,None,,12,001,2025-12-19_15h04.32.050,2025C_exp1_detect,2022.2.4,59.93655116177043,
22.7,45,1,0,1,0,0,163,163,93,319.5505313000176,319.5505313000176,320.0510678999999,320.11757490001037,320.1679548000102,320.1679548000102,320.1679548000102,320.1679548000102,320.21794339999906,320.21794339999906,320.21794339999906,320.21794339999906,320.21794339999906,320.21794339999906,320.21794339999906,320.21794339999906,320.21794339999906,320.21794339999906,num_3,0.8336154000135139,321.0687428000092,321.0687428000092,None,,12,001,2025-12-19_15h04.32.050,2025C_exp1_detect,2022.2.4,59.93655116177043,
39.2,45,0,1,-1,-1,0,164,164,187,321.0687428000092,321.0687428000092,321.5694722000044,321.6362233000109,321.68638400000054,321.68638400000054,321.68638400000054,321.68638400000054,321.73628579999786,321.73628579999786,321.73628579999786,321.73628579999786,321.73628579999786,321.73628579999786,321.73628579999786,321.73628579999786,321.73628579999786,321.73628579999786,num_3,0.9398917999933474,322.70365010001115,322.70365010001115,None,,12,001,2025-12-19_15h04.32.050,2025C_exp1_detect,2022.2.4,59.93655116177043,
12.1,45,1,1,1,1,0,165,165,414,322.70365010001115,322.70365010001115,323.2041938000184,323.27063490002183,323.3211446000205,323.3211446000205,323.3211446000205,323.3211446000205,323.37134670000523,323.37134670000523,323.37134670000523,323.37134670000523,323.37134670000523,323.37134670000523,323.37134670000523,323.37134670000523,323.37134670000523,323.37134670000523,num_3,1.3516117999970447,324.7557186000049,324.7557186000049,None,,12,001,2025-12-19_15h04.32.050,2025C_exp1_detect,2022.2.4,59.93655116177043,
25.5,315,1,1,-1,-1,0,166,166,211,324.7557186000049,324.7557186000049,325.2561020000139,325.3227492000151,325.37337250000564,325.37337250000564,325.37337250000564,325.37337250000564,325.4227948000189,325.4227948000189,325.4227948000189,325.4227948000189,325.4227948000189,325.4227948000189,325.4227948000189,325.4227948000189,325.4227948000189,325.4227948000189,num_3,1.2367961000127252,326.69102369999746,326.69102369999746,None,,12,001,2025-12-19_15h04.32.050,2025C_exp1_detect,2022.2.4,59.93655116177043,
39.2,315,1,1,-1,0,0,167,167,70,326.69102369999746,326.69102369999746,327.19134770001983,327.25803409999935,327.3085757000081,327.3085757000081,327.3085757000081,327.3085757000081,327.3582729000191,327.3582729000191,327.3582729000191,327.3582729000191,327.3582729000191,327.3582729000191,327.3582729000191,327.3582729000191,327.3582729000191,327.3582729000191,num_3,1.2213704999885522,328.609600900003,328.609600900003,None,,12,001,2025-12-19_15h04.32.050,2025C_exp1_detect,2022.2.4,59.93655116177043,
22.7,315,1,1,1,1,0,168,168,426,328.609600900003,328.609600900003,329.10994379999465,329.1768690000172,329.22716290000244,329.22716290000244,329.22716290000244,329.22716290000244,329.27704660000745,329.27704660000745,329.27704660000745,329.27704660000745,329.27704660000745,329.27704660000745,329.27704660000745,329.27704660000745,329.27704660000745,329.27704660000745,num_3,0.5429366999887861,329.84416249999776,329.84416249999776,None,,12,001,2025-12-19_15h04.32.050,2025C_exp1_detect,2022.2.4,59.93655116177043,
22.7,45,0,0,-1,0,0,169,169,3,329.84416249999776,329.84416249999776,330.3446832000045,330.4114285999967,330.461701799999,330.461701799999,330.461701799999,330.461701799999,330.51157790000434,330.51157790000434,330.51157790000434,330.51157790000434,330.51157790000434,330.51157790000434,330.51157790000434,330.51157790000434,330.51157790000434,330.51157790000434,num_1,1.49963239999488,332.02990009999485,332.02990009999485,None,,12,001,2025-12-19_15h04.32.050,2025C_exp1_detect,2022.2.4,59.93655116177043,
25.5,45,0,0,-1,0,0,170,170,4,332.02990009999485,332.02990009999485,332.53035700001055,332.5968288000149,332.6469328000094,332.6469328000094,332.6469328000094,332.6469328000094,332.6967464000045,332.6967464000045,332.6967464000045,332.6967464000045,332.6967464000045,332.6967464000045,332.6967464000045,332.6967464000045,332.6967464000045,332.6967464000045,num_1,0.627760200004559,333.34772260001046,333.34772260001046,None,,12,001,2025-12-19_15h04.32.050,2025C_exp1_detect,2022.2.4,59.93655116177043,
29.4,45,0,0,1,-1,0,171,171,221,333.34772260001046,333.34772260001046,333.84820259999833,333.91487810001126,333.9651076000009,333.9651076000009,333.9651076000009,333.9651076000009,334.01477209999575,334.01477209999575,334.01477209999575,334.01477209999575,334.01477209999575,334.01477209999575,334.01477209999575,334.01477209999575,334.01477209999575,334.01477209999575,num_3,1.1892095000075642,335.2328923000023,335.2328923000023,None,,12,001,2025-12-19_15h04.32.050,2025C_exp1_detect,2022.2.4,59.93655116177043,
22.7,315,0,1,1,-1,0,172,172,264,335.2328923000023,335.2328923000023,335.73338520000107,335.7998472000181,335.8504477000097,335.8504477000097,335.8504477000097,335.8504477000097,335.90024970000377,335.90024970000377,335.90024970000377,335.90024970000377,335.90024970000377,335.90024970000377,335.90024970000377,335.90024970000377,335.90024970000377,335.90024970000377,num_1,0.7351428999972995,336.66775469999993,336.66775469999993,None,,12,001,2025-12-19_15h04.32.050,2025C_exp1_detect,2022.2.4,59.93655116177043,
15.7,315,1,0,1,1,0,173,173,388,336.66775469999993,336.66775469999993,337.1683236999961,337.23489459999837,337.2853049999976,337.2853049999976,337.2853049999976,337.2853049999976,337.335061699996,337.335061699996,337.335061699996,337.335061699996,337.335061699996,337.335061699996,337.335061699996,337.335061699996,337.335061699996,337.335061699996,num_3,0.7559989999863319,338.11911230001715,338.11911230001715,None,,12,001,2025-12-19_15h04.32.050,2025C_exp1_detect,2022.2.4,59.93655116177043,
35.3,315,1,0,1,0,0,174,174,105,338.11911230001715,338.11911230001715,338.6197592999961,338.68652680001105,338.73670760000823,338.73670760000823,338.73670760000823,338.73670760000823,338.78660530000343,338.78660530000343,338.78660530000343,338.78660530000343,338.78660530000343,338.78660530000343,338.78660530000343,338.78660530000343,338.78660530000343,338.78660530000343,num_3,2.0254181000054814,340.838602600008,340.838602600008,None,,12,001,2025-12-19_15h04.32.050,2025C_exp1_detect,2022.2.4,59.93655116177043,
12.1,45,1,0,1,0,0,175,175,90,340.838602600008,340.838602600008,341.33902320000925,341.4055913000193,341.45601120000356,341.45601120000356,341.45601120000356,341.45601120000356,341.50588070001686,341.50588070001686,341.50588070001686,341.50588070001686,341.50588070001686,341.50588070001686,341.50588070001686,341.50588070001686,341.50588070001686,341.50588070001686,num_3,0.7530283000087366,342.2899554000178,342.2899554000178,None,,12,001,2025-12-19_15h04.32.050,2025C_exp1_detect,2022.2.4,59.93655116177043,
12.1,315,1,0,-1,-1,0,176,176,171,342.2899554000178,342.2899554000178,342.79042430000845,342.85714910001843,342.90741310000885,342.90741310000885,342.90741310000885,342.90741310000885,342.95731369999703,342.95731369999703,342.95731369999703,342.95731369999703,342.95731369999703,342.95731369999703,342.95731369999703,342.95731369999703,342.95731369999703,342.95731369999703,num_1,0.670492600009311,343.6582096000202,343.6582096000202,None,,12,001,2025-12-19_15h04.32.050,2025C_exp1_detect,2022.2.4,59.93655116177043,
35.3,45,0,0,1,1,0,177,177,366,343.6582096000202,343.6582096000202,344.15818180001224,344.2251111000078,344.2756644000183,344.2756644000183,344.2756644000183,344.2756644000183,344.32559580000816,344.32559580000816,344.32559580000816,344.32559580000816,344.32559580000816,344.32559580000816,344.32559580000816,344.32559580000816,344.32559580000816,344.32559580000816,num_3,1.430274800019106,345.77669580001384,345.77669580001384,None,,12,001,2025-12-19_15h04.32.050,2025C_exp1_detect,2022.2.4,59.93655116177043,
35.3,315,0,0,1,-1,0,178,178,231,345.77669580001384,345.77669580001384,346.2772485000023,346.3439564,346.39425870002015,346.39425870002015,346.39425870002015,346.39425870002015,346.44403240000247,346.44403240000247,346.44403240000247,346.44403240000247,346.44403240000247,346.44403240000247,346.44403240000247,346.44403240000247,346.44403240000247,346.44403240000247,num_1,1.183275399991544,347.6452174000151,347.6452174000151,None,,12,001,2025-12-19_15h04.32.050,2025C_exp1_detect,2022.2.4,59.93655116177043,
35.3,45,1,0,1,1,0,179,179,384,347.6452174000151,347.6452174000151,348.14563929999713,348.2123830000055,348.26253649999853,348.26253649999853,348.26253649999853,348.26253649999853,348.3125751000189,348.3125751000189,348.3125751000189,348.3125751000189,348.3125751000189,348.3125751000189,348.3125751000189,348.3125751000189,348.3125751000189,348.3125751000189,num_3,0.9547468000091612,349.2969179000065,349.2969179000065,None,,12,001,2025-12-19_15h04.32.050,2025C_exp1_detect,2022.2.4,59.93655116177043,
12.1,45,0,0,1,0,0,180,180,72,349.2969179000065,349.2969179000065,349.79747459999635,349.8641337000008,349.9143367000215,349.9143367000215,349.9143367000215,349.9143367000215,349.96438340001623,349.96438340001623,349.96438340001623,349.96438340001623,349.96438340001623,349.96438340001623,349.96438340001623,349.96438340001623,349.96438340001623,349.96438340001623,num_1,0.7184986999782268,350.7147082000156,350.7147082000156,None,,12,001,2025-12-19_15h04.32.050,2025C_exp1_detect,2022.2.4,59.93655116177043,
35.3,45,1,1,1,-1,0,181,181,276,350.7147082000156,350.7147082000156,351.21555900000385,351.2823750000098,351.3327257000201,351.3327257000201,351.3327257000201,351.3327257000201,351.38256399999955,351.38256399999955,351.38256399999955,351.38256399999955,351.38256399999955,351.38256399999955,351.38256399999955,351.38256399999955,351.38256399999955,351.38256399999955,num_3,0.5494332000089344,351.94957590001286,351.94957590001286,None,,12,001,2025-12-19_15h04.32.050,2025C_exp1_detect,2022.2.4,59.93655116177043,
25.5,45,0,0,-1,1,0,182,182,292,351.94957590001286,351.94957590001286,352.4498157000053,352.5170197999978,352.5673017000081,352.5673017000081,352.5673017000081,352.5673017000081,352.6171006000077,352.6171006000077,352.6171006000077,352.6171006000077,352.6171006000077,352.6171006000077,352.6171006000077,352.6171006000077,352.6171006000077,352.6171006000077,num_1,0.5538683999911882,353.2008397000027,353.2008397000027,None,,12,001,2025-12-19_15h04.32.050,2025C_exp1_detect,2022.2.4,59.93655116177043,
25.5,45,0,1,1,-1,0,183,183,256,353.2008397000027,353.2008397000027,353.70150630001444,353.7681848000211,353.81842570001027,353.81842570001027,353.81842570001027,353.81842570001027,353.8681417000189,353.8681417000189,353.8681417000189,353.8681417000189,353.8681417000189,353.8681417000189,353.8681417000189,353.8681417000189,353.8681417000189,353.8681417000189,num_1,0.9279079000116326,354.81895300000906,354.81895300000906,None,,12,001,2025-12-19_15h04.32.050,2025C_exp1_detect,2022.2.4,59.93655116177043,
25.5,45,1,0,1,0,0,184,184,94,354.81895300000906,354.81895300000906,355.31957110000076,355.38631110001006,355.4366270000173,355.4366270000173,355.4366270000173,355.4366270000173,355.48652000000584,355.48652000000584,355.48652000000584,355.48652000000584,355.48652000000584,355.48652000000584,355.48652000000584,355.48652000000584,355.48652000000584,355.48652000000584,num_3,0.6205476000031922,356.13708939999924,356.13708939999924,None,,12,001,2025-12-19_15h04.32.050,2025C_exp1_detect,2022.2.4,59.93655116177043,
42.7,315,1,1,1,1,0,185,185,431,356.13708939999924,356.13708939999924,356.63763579999795,356.7041526999965,356.75461170001654,356.75461170001654,356.75461170001654,356.75461170001654,356.8044937000086,356.8044937000086,356.8044937000086,356.8044937000086,356.8044937000086,356.8044937000086,356.8044937000086,356.8044937000086,356.8044937000086,356.8044937000086,num_3,0.5189742000075057,357.35476489999564,357.35476489999564,None,,12,001,2025-12-19_15h04.32.050,2025C_exp1_detect,2022.2.4,59.93655116177043,
22.7,45,0,1,-1,1,0,186,186,327,357.35476489999564,357.35476489999564,357.85550040000817,357.9220763000194,357.9724902000162,357.9724902000162,357.9724902000162,357.9724902000162,358.02231920001213,358.02231920001213,358.02231920001213,358.02231920001213,358.02231920001213,358.02231920001213,358.02231920001213,358.02231920001213,358.02231920001213,358.02231920001213,num_3,0.7007565000094473,358.7395416999934,358.7395416999934,None,,12,001,2025-12-19_15h04.32.050,2025C_exp1_detect,2022.2.4,59.93655116177043,
15.7,45,0,0,-1,0,0,187,187,1,358.7395416999934,358.7395416999934,359.2401666000078,359.30680320001557,359.3572625000088,359.3572625000088,359.3572625000088,359.3572625000088,359.4070911000017,359.4070911000017,359.4070911000017,359.4070911000017,359.4070911000017,359.4070911000017,359.4070911000017,359.4070911000017,359.4070911000017,359.4070911000017,num_3,0.4611952000122983,359.89078740001423,359.89078740001423,None,,12,001,2025-12-19_15h04.32.050,2025C_exp1_detect,2022.2.4,59.93655116177043,
19.6,45,0,0,1,0,0,188,188,74,359.89078740001423,359.89078740001423,360.3911971000198,360.45814390000305,360.50851020001573,360.50851020001573,360.50851020001573,360.50851020001573,360.5583040000056,360.5583040000056,360.5583040000056,360.5583040000056,360.5583040000056,360.5583040000056,360.5583040000056,360.5583040000056,360.5583040000056,360.5583040000056,num_1,1.4779482999874745,362.05952010001056,362.05952010001056,None,,12,001,2025-12-19_15h04.32.050,2025C_exp1_detect,2022.2.4,59.93655116177043,
19.6,315,1,0,1,1,0,189,189,389,362.05952010001056,362.05952010001056,362.56018450000556,362.6268812000053,362.6771923000051,362.6771923000051,362.6771923000051,362.6771923000051,362.72706999999355,362.72706999999355,362.72706999999355,362.72706999999355,362.72706999999355,362.72706999999355,362.72706999999355,362.72706999999355,362.72706999999355,362.72706999999355,num_3,0.7004747000173666,363.44438349999837,363.44438349999837,None,,12,001,2025-12-19_15h04.32.050,2025C_exp1_detect,2022.2.4,59.93655116177043,
42.7,315,0,1,1,0,0,190,190,125,363.44438349999837,363.44438349999837,363.9447780000046,364.0116174000141,364.0621173999971,364.0621173999971,364.0621173999971,364.0621173999971,364.11194200001773,364.11194200001773,364.11194200001773,364.11194200001773,364.11194200001773,364.11194200001773,364.11194200001773,364.11194200001773,364.11194200001773,364.11194200001773,num_1,0.9238678000110667,365.06280490002246,365.06280490002246,None,,12,001,2025-12-19_15h04.32.050,2025C_exp1_detect,2022.2.4,59.93655116177043,
42.7,315,1,0,1,-1,0,191,191,251,365.06280490002246,365.06280490002246,365.5631621000066,365.6299826000177,365.6803056000208,365.6803056000208,365.6803056000208,365.6803056000208,365.730043699994,365.730043699994,365.730043699994,365.730043699994,365.730043699994,365.730043699994,365.730043699994,365.730043699994,365.730043699994,365.730043699994,num_3,0.6103282999829389,366.3639478000114,366.3639478000114,None,,12,001,2025-12-19_15h04.32.050,2025C_exp1_detect,2022.2.4,59.93655116177043,
19.6,315,1,1,1,-1,0,192,192,281,366.3639478000114,366.3639478000114,366.8645577999996,366.9312697999994,366.9816806000017,366.9816806000017,366.9816806000017,366.9816806000017,367.0310393999971,367.0310393999971,367.0310393999971,367.0310393999971,367.0310393999971,367.0310393999971,367.0310393999971,367.0310393999971,367.0310393999971,367.0310393999971,num_3,0.8448826000094414,367.8989055000129,367.8989055000129,None,,12,001,2025-12-19_15h04.32.050,2025C_exp1_detect,2022.2.4,59.93655116177043,
39.2,45,1,0,-1,-1,0,193,193,169,367.8989055000129,367.8989055000129,368.3993441000057,368.466044300003,368.51636840001447,368.51636840001447,368.51636840001447,368.51636840001447,368.56624929999816,368.56624929999816,368.56624929999816,368.56624929999816,368.56624929999816,368.56624929999816,368.56624929999816,368.56624929999816,368.56624929999816,368.56624929999816,num_1,0.7089183000207413,369.30010950000724,369.30010950000724,None,,12,001,2025-12-19_15h04.32.050,2025C_exp1_detect,2022.2.4,59.93655116177043,
29.4,315,0,1,-1,1,0,194,194,338,369.30010950000724,369.30010950000724,369.80078890000004,369.8676183000207,369.9177539999946,369.9177539999946,369.9177539999946,369.9177539999946,369.9677223000035,369.9677223000035,369.9677223000035,369.9677223000035,369.9677223000035,369.9677223000035,369.9677223000035,369.9677223000035,369.9677223000035,369.9677223000035,num_3,0.7322745000128634,370.71832040001755,370.71832040001755,None,,12,001,2025-12-19_15h04.32.050,2025C_exp1_detect,2022.2.4,59.93655116177043,
