contrast,ori,side,precue,trials.thisRepN,trials.thisTrialN,trials.thisN,trials.thisIndex,fix1.started,fix2.started,precue_2.started,precue_2.stopped,left_grating.started,right_grating.started,noise_left2.started,noise_right2.started,key_resp.started,fix1_2.started,fix2_2.started,key_resp.keys,key_resp.rt,key_resp_2.started,break_text_2.started,key_resp_2.keys,fix1.stopped,fix2.stopped,left_grating.stopped,right_grating.stopped,noise_left2.stopped,noise_right2.stopped,key_resp_2.rt,participant,session,date,expName,psychopyVersion,frameRate,
25.5,315,-1,0,0,0,0,13,18.85361390002072,18.85361390002072,19.333309300011024,19.400050600001123,19.510247900005197,19.510247900005197,19.510247900005197,19.510247900005197,19.513629100023536,19.513629100023536,19.513629100023536,left,3.718257899978198,23.253343800024595,23.253343800024595,None,,,,,,,,12,001,2025-12-19_15h47.14.271,2025C_exp1_comp,2022.2.4,60.04732930534004,
15.7,45,-1,1,0,1,1,37,23.253343800024595,23.253343800024595,23.75423310001497,23.82080680000945,23.871108500025002,23.871108500025002,23.871108500025002,23.871108500025002,23.92097950002062,23.92097950002062,23.92097950002062,right,1.4221674999862444,25.372452000010526,25.372452000010526,None,23.92097950002062,23.92097950002062,23.92097950002062,23.92097950002062,23.92097950002062,23.92097950002062,,12,001,2025-12-19_15h47.14.271,2025C_exp1_comp,2022.2.4,60.04732930534004,
12.1,45,-1,-1,0,2,2,72,25.372452000010526,25.372452000010526,25.873067000007723,25.939753500017105,25.990046800026903,25.990046800026903,25.990046800026903,25.990046800026903,26.039488200010965,26.039488200010965,26.039488200010965,right,0.6729332999966573,26.740444100025343,26.740444100025343,None,26.039488200010965,26.039488200010965,26.039488200010965,26.039488200010965,26.039488200010965,26.039488200010965,,12,001,2025-12-19_15h47.14.271,2025C_exp1_comp,2022.2.4,60.04732930534004,
25.5,315,-1,1,0,3,3,49,26.740444100025343,26.740444100025343,27.241004900017288,27.307722200028365,27.357721000007587,27.357721000007587,27.357721000007587,27.357721000007587,27.407547300012084,27.407547300012084,27.407547300012084,right,1.3526718000066467,28.792334600002505,28.792334600002505,None,27.407547300012084,27.407547300012084,27.407547300012084,27.407547300012084,27.407547300012084,27.407547300012084,,12,001,2025-12-19_15h47.14.271,2025C_exp1_comp,2022.2.4,60.04732930534004,
25.5,45,1,-1,0,4,4,94,28.792334600002505,28.792334600002505,29.29288860000088,29.359662700007902,29.409925300016766,29.409925300016766,29.409925300016766,29.409925300016766,29.459586000011768,29.459586000011768,29.459586000011768,left,0.9322087000182364,30.410737500002142,30.410737500002142,None,29.459586000011768,29.459586000011768,29.459586000011768,29.459586000011768,29.459586000011768,29.459586000011768,,12,001,2025-12-19_15h47.14.271,2025C_exp1_comp,2022.2.4,60.04732930534004,
39.2,45,1,-1,0,5,5,97,30.410737500002142,30.410737500002142,30.911183200019877,30.97799950002809,31.028329900000244,31.028329900000244,31.028329900000244,31.028329900000244,31.077994700026466,31.077994700026466,31.077994700026466,right,1.4022354999906383,32.496337800024776,32.496337800024776,None,31.077994700026466,31.077994700026466,31.077994700026466,31.077994700026466,31.077994700026466,31.077994700026466,,12,001,2025-12-19_15h47.14.271,2025C_exp1_comp,2022.2.4,60.04732930534004,
12.1,315,1,0,0,6,6,27,32.496337800024776,32.496337800024776,32.99670130002778,33.063440900004935,33.113728400028776,33.113728400028776,33.113728400028776,33.113728400028776,33.16342430000077,33.16342430000077,33.16342430000077,left,0.5808237999735866,33.76417570002377,33.76417570002377,None,33.16342430000077,33.16342430000077,33.16342430000077,33.16342430000077,33.16342430000077,33.16342430000077,,12,001,2025-12-19_15h47.14.271,2025C_exp1_comp,2022.2.4,60.04732930534004,
39.2,315,-1,1,0,7,7,52,33.76417570002377,33.76417570002377,34.264695000019856,34.33138610000606,34.38168090002728,34.38168090002728,34.38168090002728,34.38168090002728,34.431520100013586,34.431520100013586,34.431520100013586,right,1.0159454999957234,35.465704600006575,35.465704600006575,None,34.431520100013586,34.431520100013586,34.431520100013586,34.431520100013586,34.431520100013586,34.431520100013586,,12,001,2025-12-19_15h47.14.271,2025C_exp1_comp,2022.2.4,60.04732930534004,
39.2,315,1,-1,0,8,8,106,35.465704600006575,35.465704600006575,35.966529300028924,36.03322010001284,36.08352040001773,36.08352040001773,36.08352040001773,36.08352040001773,36.13329630001681,36.13329630001681,36.13329630001681,right,0.6660363999835681,36.817157400015276,36.817157400015276,None,36.13329630001681,36.13329630001681,36.13329630001681,36.13329630001681,36.13329630001681,36.13329630001681,,12,001,2025-12-19_15h47.14.271,2025C_exp1_comp,2022.2.4,60.04732930534004,
29.4,315,1,-1,0,9,9,104,36.817157400015276,36.817157400015276,37.31775120002567,37.38433610001812,37.43473270002869,37.43473270002869,37.43473270002869,37.43473270002869,37.48451930002193,37.48451930002193,37.48451930002193,left,1.3471889999927953,38.85251050000079,38.85251050000079,None,37.48451930002193,37.48451930002193,37.48451930002193,37.48451930002193,37.48451930002193,37.48451930002193,,12,001,2025-12-19_15h47.14.271,2025C_exp1_comp,2022.2.4,60.04732930534004,
25.5,45,1,0,0,10,10,22,38.85251050000079,38.85251050000079,39.353070400014985,39.41980450000847,39.47011910000583,39.47011910000583,39.47011910000583,39.47011910000583,39.5197861000197,39.5197861000197,39.5197861000197,right,1.7603899000096135,41.3048474000243,41.3048474000243,None,39.5197861000197,39.5197861000197,39.5197861000197,39.5197861000197,39.5197861000197,39.5197861000197,,12,001,2025-12-19_15h47.14.271,2025C_exp1_comp,2022.2.4,60.04732930534004,
29.4,45,1,-1,0,11,11,95,41.3048474000243,41.3048474000243,41.80524580000201,41.872475700016366,41.922741700022016,41.922741700022016,41.922741700022016,41.922741700022016,41.97235150000779,41.97235150000779,41.97235150000779,left,0.8353260000003502,42.839767700002994,42.839767700002994,None,41.97235150000779,41.97235150000779,41.97235150000779,41.97235150000779,41.97235150000779,41.97235150000779,,12,001,2025-12-19_15h47.14.271,2025C_exp1_comp,2022.2.4,60.04732930534004,
22.7,45,-1,1,0,12,12,39,42.839767700002994,42.839767700002994,43.340424200025154,43.40714090000256,43.457455300027505,43.457455300027505,43.457455300027505,43.457455300027505,43.50712140000542,43.50712140000542,43.50712140000542,right,0.7490859999961685,44.27461230001063,44.27461230001063,None,43.50712140000542,43.50712140000542,43.50712140000542,43.50712140000542,43.50712140000542,43.50712140000542,,12,001,2025-12-19_15h47.14.271,2025C_exp1_comp,2022.2.4,60.04732930534004,
39.2,45,-1,-1,0,13,13,79,44.27461230001063,44.27461230001063,44.77501770001254,44.84155190002639,44.89225600002101,44.89225600002101,44.89225600002101,44.89225600002101,44.94197850002092,44.94197850002092,44.94197850002092,left,1.1697234000021126,46.142848200019216,46.142848200019216,None,44.94197850002092,44.94197850002092,44.94197850002092,44.94197850002092,44.94197850002092,44.94197850002092,,12,001,2025-12-19_15h47.14.271,2025C_exp1_comp,2022.2.4,60.04732930534004,
22.7,45,-1,0,0,14,14,3,46.142848200019216,46.142848200019216,46.643564000027254,46.71021320001455,46.76068370000576,46.76068370000576,46.76068370000576,46.76068370000576,46.81049800000619,46.81049800000619,46.81049800000619,right,0.7580792999942787,47.59461350002675,47.59461350002675,None,46.81049800000619,46.81049800000619,46.81049800000619,46.81049800000619,46.81049800000619,46.81049800000619,,12,001,2025-12-19_15h47.14.271,2025C_exp1_comp,2022.2.4,60.04732930534004,
15.7,45,-1,-1,0,15,15,73,47.59461350002675,47.59461350002675,48.09514150000177,48.161805600015214,48.211874800006626,48.211874800006626,48.211874800006626,48.211874800006626,48.2616383000277,48.2616383000277,48.2616383000277,right,2.578777699993225,50.864570600009756,50.864570600009756,None,48.2616383000277,48.2616383000277,48.2616383000277,48.2616383000277,48.2616383000277,48.2616383000277,,12,001,2025-12-19_15h47.14.271,2025C_exp1_comp,2022.2.4,60.04732930534004,
42.7,315,1,-1,0,16,16,107,50.864570600009756,50.864570600009756,51.36502670001937,51.431760900013614,51.48251730002812,51.48251730002812,51.48251730002812,51.48251730002812,51.531920400011586,51.531920400011586,51.531920400011586,left,0.9712822000146843,52.532926800020505,52.532926800020505,None,51.531920400011586,51.531920400011586,51.531920400011586,51.531920400011586,51.531920400011586,51.531920400011586,,12,001,2025-12-19_15h47.14.271,2025C_exp1_comp,2022.2.4,60.04732930534004,
19.6,315,1,1,0,17,17,65,52.532926800020505,52.532926800020505,53.0330717000179,53.0997804000217,53.15007600001991,53.15007600001991,53.15007600001991,53.15007600001991,53.19987820001552,53.19987820001552,53.19987820001552,left,0.5765219000168145,53.80089970002882,53.80089970002882,None,53.19987820001552,53.19987820001552,53.19987820001552,53.19987820001552,53.19987820001552,53.19987820001552,,12,001,2025-12-19_15h47.14.271,2025C_exp1_comp,2022.2.4,60.04732930534004,
19.6,45,1,-1,0,18,18,92,53.80089970002882,53.80089970002882,54.30130740001914,54.36804220001795,54.41834030000609,54.41834030000609,54.41834030000609,54.41834030000609,54.467901400028495,54.467901400028495,54.467901400028495,left,0.47633189999032766,54.968527100019855,54.968527100019855,None,54.467901400028495,54.467901400028495,54.467901400028495,54.467901400028495,54.467901400028495,54.467901400028495,,12,001,2025-12-19_15h47.14.271,2025C_exp1_comp,2022.2.4,60.04732930534004,
19.6,315,-1,1,0,19,19,47,54.968527100019855,54.968527100019855,55.46916310000233,55.53588260000106,55.58615520002786,55.58615520002786,55.58615520002786,55.58615520002786,55.636009000008926,55.636009000008926,55.636009000008926,right,0.46785370001452975,56.13617070001783,56.13617070001783,None,55.636009000008926,55.636009000008926,55.636009000008926,55.636009000008926,55.636009000008926,55.636009000008926,,12,001,2025-12-19_15h47.14.271,2025C_exp1_comp,2022.2.4,60.04732930534004,
22.7,315,1,0,0,20,20,30,56.13617070001783,56.13617070001783,56.63684150000336,56.703716700023506,56.75390220002737,56.75390220002737,56.75390220002737,56.75390220002737,56.803633700008504,56.803633700008504,56.803633700008504,left,0.5324382999970112,57.35434260001057,57.35434260001057,None,56.803633700008504,56.803633700008504,56.803633700008504,56.803633700008504,56.803633700008504,56.803633700008504,,12,001,2025-12-19_15h47.14.271,2025C_exp1_comp,2022.2.4,60.04732930534004,
29.4,45,-1,-1,0,21,21,77,57.35434260001057,57.35434260001057,57.85487350000767,57.92156720001367,57.97179320000578,57.97179320000578,57.97179320000578,57.97179320000578,58.021682500024326,58.021682500024326,58.021682500024326,left,0.5065508999978192,58.55553590002819,58.55553590002819,None,58.021682500024326,58.021682500024326,58.021682500024326,58.021682500024326,58.021682500024326,58.021682500024326,,12,001,2025-12-19_15h47.14.271,2025C_exp1_comp,2022.2.4,60.04732930534004,
42.7,45,1,-1,0,22,22,98,58.55553590002819,58.55553590002819,59.05597090002266,59.12277549999999,59.173030100006144,59.173030100006144,59.173030100006144,59.173030100006144,59.22286490001716,59.22286490001716,59.22286490001716,left,0.6976865000033285,59.94013480001013,59.94013480001013,None,59.22286490001716,59.22286490001716,59.22286490001716,59.22286490001716,59.22286490001716,59.22286490001716,,12,001,2025-12-19_15h47.14.271,2025C_exp1_comp,2022.2.4,60.04732930534004,
42.7,315,1,1,0,23,23,71,59.94013480001013,59.94013480001013,60.44069880002644,60.507406500022626,60.557838700013235,60.557838700013235,60.557838700013235,60.557838700013235,60.60764120001113,60.60764120001113,60.60764120001113,left,0.8246488999866415,61.45833050002693,61.45833050002693,None,60.60764120001113,60.60764120001113,60.60764120001113,60.60764120001113,60.60764120001113,60.60764120001113,,12,001,2025-12-19_15h47.14.271,2025C_exp1_comp,2022.2.4,60.04732930534004,
35.3,45,1,0,0,24,24,24,61.45833050002693,61.45833050002693,61.95893770002294,62.02565420002793,62.075975600018864,62.075975600018864,62.075975600018864,62.075975600018864,62.125926700013224,62.125926700013224,62.125926700013224,left,1.0175410999800079,63.16016120000859,63.16016120000859,None,62.125926700013224,62.125926700013224,62.125926700013224,62.125926700013224,62.125926700013224,62.125926700013224,,12,001,2025-12-19_15h47.14.271,2025C_exp1_comp,2022.2.4,60.04732930534004,
19.6,45,1,1,0,25,25,56,63.16016120000859,63.16016120000859,63.66080630000215,63.727276400022674,63.77765860001091,63.77765860001091,63.77765860001091,63.77765860001091,63.82748650002759,63.82748650002759,63.82748650002759,left,0.5160710999916773,64.3611972000217,64.3611972000217,None,63.82748650002759,63.82748650002759,63.82748650002759,63.82748650002759,63.82748650002759,63.82748650002759,,12,001,2025-12-19_15h47.14.271,2025C_exp1_comp,2022.2.4,60.04732930534004,
35.3,45,-1,1,0,26,26,42,64.3611972000217,64.3611972000217,64.8616117000056,64.92870370001765,64.97891700000037,64.97891700000037,64.97891700000037,64.97891700000037,65.02868570000282,65.02868570000282,65.02868570000282,left,0.43453590001445264,65.49565440000151,65.49565440000151,None,65.02868570000282,65.02868570000282,65.02868570000282,65.02868570000282,65.02868570000282,65.02868570000282,,12,001,2025-12-19_15h47.14.271,2025C_exp1_comp,2022.2.4,60.04732930534004,
39.2,315,-1,0,0,27,27,16,65.49565440000151,65.49565440000151,65.99630950001301,66.06312090001302,66.11337120001554,66.11337120001554,66.11337120001554,66.11337120001554,66.1630281000107,66.1630281000107,66.1630281000107,right,0.8122670000011567,66.99729050000315,66.99729050000315,None,66.1630281000107,66.1630281000107,66.1630281000107,66.1630281000107,66.1630281000107,66.1630281000107,,12,001,2025-12-19_15h47.14.271,2025C_exp1_comp,2022.2.4,60.04732930534004,
35.3,315,1,-1,0,28,28,105,66.99729050000315,66.99729050000315,67.49782080002478,67.5646257000044,67.61492950000684,67.61492950000684,67.61492950000684,67.61492950000684,67.6646586000279,67.6646586000279,67.6646586000279,left,0.7835782999754883,68.4654621000227,68.4654621000227,None,67.6646586000279,67.6646586000279,67.6646586000279,67.6646586000279,67.6646586000279,67.6646586000279,,12,001,2025-12-19_15h47.14.271,2025C_exp1_comp,2022.2.4,60.04732930534004,
29.4,45,-1,1,0,29,29,41,68.4654621000227,68.4654621000227,68.96587000001455,69.03238550000242,69.08270400000038,69.08270400000038,69.08270400000038,69.08270400000038,69.13280750002014,69.13280750002014,69.13280750002014,left,1.1384443999850191,70.30062660001568,70.30062660001568,None,69.13280750002014,69.13280750002014,69.13280750002014,69.13280750002014,69.13280750002014,69.13280750002014,,12,001,2025-12-19_15h47.14.271,2025C_exp1_comp,2022.2.4,60.04732930534004,
22.7,315,1,1,0,30,30,66,70.30062660001568,70.30062660001568,70.80114030002733,70.86783930001548,70.91817900000024,70.91817900000024,70.91817900000024,70.91817900000024,70.96795310001471,70.96795310001471,70.96795310001471,left,0.5601850999810267,71.55188410001574,71.55188410001574,None,70.96795310001471,70.96795310001471,70.96795310001471,70.96795310001471,70.96795310001471,70.96795310001471,,12,001,2025-12-19_15h47.14.271,2025C_exp1_comp,2022.2.4,60.04732930534004,
39.2,315,1,1,0,31,31,70,71.55188410001574,71.55188410001574,72.05234840000048,72.11916200001724,72.16951900001732,72.16951900001732,72.16951900001732,72.16951900001732,72.21920600000885,72.21920600000885,72.21920600000885,left,0.8366450000030454,73.08674530001008,73.08674530001008,None,72.21920600000885,72.21920600000885,72.21920600000885,72.21920600000885,72.21920600000885,72.21920600000885,,12,001,2025-12-19_15h47.14.271,2025C_exp1_comp,2022.2.4,60.04732930534004,
15.7,315,-1,1,0,32,32,46,73.08674530001008,73.08674530001008,73.58723700002884,73.65381270000944,73.70425970002543,73.70425970002543,73.70425970002543,73.70425970002543,73.75395770001342,73.75395770001342,73.75395770001342,right,0.565560099988943,74.33799960001488,74.33799960001488,None,73.75395770001342,73.75395770001342,73.75395770001342,73.75395770001342,73.75395770001342,73.75395770001342,,12,001,2025-12-19_15h47.14.271,2025C_exp1_comp,2022.2.4,60.04732930534004,
39.2,315,1,0,0,33,33,34,74.33799960001488,74.33799960001488,74.8384073000052,74.90525590002653,74.95538430000306,74.95538430000306,74.95538430000306,74.95538430000306,75.00537050000275,75.00537050000275,75.00537050000275,left,1.7949408999993466,76.82382090002648,76.82382090002648,None,75.00537050000275,75.00537050000275,75.00537050000275,75.00537050000275,75.00537050000275,75.00537050000275,,12,001,2025-12-19_15h47.14.271,2025C_exp1_comp,2022.2.4,60.04732930534004,
29.4,315,-1,0,0,34,34,14,76.82382090002648,76.82382090002648,77.32418890000554,77.39082570001483,77.44111640000483,77.44111640000483,77.44111640000483,77.44111640000483,77.49116280002636,77.49116280002636,77.49116280002636,right,0.5729729000013322,78.0917446000094,78.0917446000094,None,77.49116280002636,77.49116280002636,77.49116280002636,77.49116280002636,77.49116280002636,77.49116280002636,,12,001,2025-12-19_15h47.14.271,2025C_exp1_comp,2022.2.4,60.04732930534004,
22.7,45,1,1,0,35,35,57,78.0917446000094,78.0917446000094,78.59235489999992,78.65911310000229,78.70923990002484,78.70923990002484,78.70923990002484,78.70923990002484,78.75907940001343,78.75907940001343,78.75907940001343,left,0.49618209997424856,79.27623630000744,79.27623630000744,None,78.75907940001343,78.75907940001343,78.75907940001343,78.75907940001343,78.75907940001343,78.75907940001343,,12,001,2025-12-19_15h47.14.271,2025C_exp1_comp,2022.2.4,60.04732930534004,
12.1,315,1,1,0,36,36,63,79.27623630000744,79.27623630000744,79.77678690000903,79.84363350001513,79.89389500001562,79.89389500001562,79.89389500001562,79.89389500001562,79.94358170000487,79.94358170000487,79.94358170000487,left,0.5448117999767419,80.51068730000407,80.51068730000407,None,79.94358170000487,79.94358170000487,79.94358170000487,79.94358170000487,79.94358170000487,79.94358170000487,,12,001,2025-12-19_15h47.14.271,2025C_exp1_comp,2022.2.4,60.04732930534004,
29.4,315,-1,-1,0,37,37,86,80.51068730000407,80.51068730000407,81.01124650001293,81.07808780000778,81.12836230001994,81.12836230001994,81.12836230001994,81.12836230001994,81.17815640001209,81.17815640001209,81.17815640001209,right,0.5331421000009868,81.72855230001733,81.72855230001733,None,81.17815640001209,81.17815640001209,81.17815640001209,81.17815640001209,81.17815640001209,81.17815640001209,,12,001,2025-12-19_15h47.14.271,2025C_exp1_comp,2022.2.4,60.04732930534004,
22.7,45,1,0,0,38,38,21,81.72855230001733,81.72855230001733,82.22909430001164,82.29581560002407,82.34622510001645,82.34622510001645,82.34622510001645,82.34622510001645,82.39606710002408,82.39606710002408,82.39606710002408,left,0.4201094000018202,82.84647460002452,82.84647460002452,None,82.39606710002408,82.39606710002408,82.39606710002408,82.39606710002408,82.39606710002408,82.39606710002408,,12,001,2025-12-19_15h47.14.271,2025C_exp1_comp,2022.2.4,60.04732930534004,
25.5,315,-1,-1,0,39,39,85,82.84647460002452,82.84647460002452,83.34699100002763,83.41371800002526,83.46403220001957,83.46403220001957,83.46403220001957,83.46403220001957,83.51365070001339,83.51365070001339,83.51365070001339,right,0.5257634999870788,84.07131410000147,84.07131410000147,None,83.51365070001339,83.51365070001339,83.51365070001339,83.51365070001339,83.51365070001339,83.51365070001339,,12,001,2025-12-19_15h47.14.271,2025C_exp1_comp,2022.2.4,60.04732930534004,
12.1,315,1,-1,0,40,40,99,84.07131410000147,84.07131410000147,84.56490270001814,84.63173850000021,84.68202900001779,84.68202900001779,84.68202900001779,84.68202900001779,84.7484761000087,84.7484761000087,84.7484761000087,left,0.5318248000112362,85.2990359000105,85.2990359000105,None,84.73183760000393,84.73183760000393,84.73183760000393,84.73183760000393,84.73183760000393,84.73183760000393,,12,001,2025-12-19_15h47.14.271,2025C_exp1_comp,2022.2.4,60.04732930534004,
39.2,45,1,0,0,41,41,25,85.2990359000105,85.2990359000105,85.79943090002052,85.86613390001003,85.91644970001653,85.91644970001653,85.91644970001653,85.91644970001653,85.96623460002593,85.96623460002593,85.96623460002593,right,0.8981430999992881,86.88387190000503,86.88387190000503,None,85.96623460002593,85.96623460002593,85.96623460002593,85.96623460002593,85.96623460002593,85.96623460002593,,12,001,2025-12-19_15h47.14.271,2025C_exp1_comp,2022.2.4,60.04732930534004,
29.4,45,1,0,0,42,42,23,86.88387190000503,86.88387190000503,87.38427280000178,87.4511033000017,87.50133370002732,87.50133370002732,87.50133370002732,87.50133370002732,87.55111070000567,87.55111070000567,87.55111070000567,left,0.5206519000057597,88.10141300002579,88.10141300002579,None,87.55111070000567,87.55111070000567,87.55111070000567,87.55111070000567,87.55111070000567,87.55111070000567,,12,001,2025-12-19_15h47.14.271,2025C_exp1_comp,2022.2.4,60.04732930534004,
22.7,315,-1,0,0,43,43,12,88.10141300002579,88.10141300002579,88.60233140000491,88.66886760000489,88.71913320000749,88.71913320000749,88.71913320000749,88.71913320000749,88.76912820001598,88.76912820001598,88.76912820001598,right,0.558773700002348,89.35295170001336,89.35295170001336,None,88.76912820001598,88.76912820001598,88.76912820001598,88.76912820001598,88.76912820001598,88.76912820001598,,12,001,2025-12-19_15h47.14.271,2025C_exp1_comp,2022.2.4,60.04732930534004,
35.3,315,-1,0,0,44,44,15,89.35295170001336,89.35295170001336,89.85397680001915,89.92006940001738,89.97033070001635,89.97033070001635,89.97033070001635,89.97033070001635,90.02028430000064,90.02028430000064,90.02028430000064,right,1.2995440000086091,91.338157900027,91.338157900027,None,90.02028430000064,90.02028430000064,90.02028430000064,90.02028430000064,90.02028430000064,90.02028430000064,,12,001,2025-12-19_15h47.14.271,2025C_exp1_comp,2022.2.4,60.04732930534004,
35.3,45,1,1,0,45,45,60,91.338157900027,91.338157900027,91.83878190000542,91.90521310002077,91.95564700002433,91.95564700002433,91.95564700002433,91.95564700002433,92.00546660000691,92.00546660000691,92.00546660000691,right,0.5549861999752466,92.58940419999999,92.58940419999999,None,92.00546660000691,92.00546660000691,92.00546660000691,92.00546660000691,92.00546660000691,92.00546660000691,,12,001,2025-12-19_15h47.14.271,2025C_exp1_comp,2022.2.4,60.04732930534004,
42.7,45,1,0,0,46,46,26,92.58940419999999,92.58940419999999,93.09005040000193,93.15678960000514,93.20703620000859,93.20703620000859,93.20703620000859,93.20703620000859,93.25694790002308,93.25694790002308,93.25694790002308,left,0.4954712000035215,93.77381520002382,93.77381520002382,None,93.25694790002308,93.25694790002308,93.25694790002308,93.25694790002308,93.25694790002308,93.25694790002308,,12,001,2025-12-19_15h47.14.271,2025C_exp1_comp,2022.2.4,60.04732930534004,
29.4,45,-1,0,0,47,47,5,93.77381520002382,93.77381520002382,94.27455720002763,94.34129300000495,94.39159120002296,94.39159120002296,94.39159120002296,94.39159120002296,94.44124150002608,94.44124150002608,94.44124150002608,right,0.4144369999994524,94.87502140001743,94.87502140001743,None,94.44124150002608,94.44124150002608,94.44124150002608,94.44124150002608,94.44124150002608,94.44124150002608,,12,001,2025-12-19_15h47.14.271,2025C_exp1_comp,2022.2.4,60.04732930534004,
12.1,315,-1,-1,0,48,48,81,94.87502140001743,94.87502140001743,95.3755868000153,95.44240640001954,95.49270900001284,95.49270900001284,95.49270900001284,95.49270900001284,95.54250120001961,95.54250120001961,95.54250120001961,right,0.5687554999894928,96.14298310002778,96.14298310002778,None,95.54250120001961,95.54250120001961,95.54250120001961,95.54250120001961,95.54250120001961,95.54250120001961,,12,001,2025-12-19_15h47.14.271,2025C_exp1_comp,2022.2.4,60.04732930534004,
39.2,45,-1,1,0,49,49,43,96.14298310002778,96.14298310002778,96.6437085000216,96.71048720000545,96.76075300000957,96.76075300000957,96.76075300000957,96.76075300000957,96.81046800001059,96.81046800001059,96.81046800001059,left,0.5087992000044324,97.34429660000023,97.34429660000023,None,96.81046800001059,96.81046800001059,96.81046800001059,96.81046800001059,96.81046800001059,96.81046800001059,,12,001,2025-12-19_15h47.14.271,2025C_exp1_comp,2022.2.4,60.04732930534004,
22.7,315,1,-1,0,50,50,102,97.34429660000023,97.34429660000023,97.84480600000825,97.91150160002871,97.96182230001432,97.96182230001432,97.96182230001432,97.96182230001432,98.01161720001255,98.01161720001255,98.01161720001255,left,0.428240499983076,98.46208620001562,98.46208620001562,None,98.01161720001255,98.01161720001255,98.01161720001255,98.01161720001255,98.01161720001255,98.01161720001255,,12,001,2025-12-19_15h47.14.271,2025C_exp1_comp,2022.2.4,60.04732930534004,
15.7,45,1,1,0,51,51,55,98.46208620001562,98.46208620001562,98.96277760001249,99.0294586000091,99.07975890001399,99.07975890001399,99.07975890001399,99.07975890001399,99.12945240002591,99.12945240002591,99.12945240002591,left,0.4070112000044901,99.56327840001904,99.56327840001904,None,99.12945240002591,99.12945240002591,99.12945240002591,99.12945240002591,99.12945240002591,99.12945240002591,,12,001,2025-12-19_15h47.14.271,2025C_exp1_comp,2022.2.4,60.04732930534004,
12.1,45,1,1,0,52,52,54,99.56327840001904,99.56327840001904,100.06367730000056,100.13044320000336,100.18063260000781,100.18063260000781,100.18063260000781,100.18063260000781,100.23024680002709,100.23024680002709,100.23024680002709,left,0.37008129997411743,100.63082020002184,100.63082020002184,None,100.23024680002709,100.23024680002709,100.23024680002709,100.23024680002709,100.23024680002709,100.23024680002709,,12,001,2025-12-19_15h47.14.271,2025C_exp1_comp,2022.2.4,60.04732930534004,
15.7,45,1,0,0,53,53,19,100.63082020002184,100.63082020002184,101.13141090000863,101.19813150001573,101.24844310001936,101.24844310001936,101.24844310001936,101.24844310001936,101.29822440000135,101.29822440000135,101.29822440000135,left,0.373782000009669,101.69857290000073,101.69857290000073,None,101.29822440000135,101.29822440000135,101.29822440000135,101.29822440000135,101.29822440000135,101.29822440000135,,12,001,2025-12-19_15h47.14.271,2025C_exp1_comp,2022.2.4,60.04732930534004,
22.7,315,-1,-1,0,54,54,84,101.69857290000073,101.69857290000073,102.19914750001044,102.26583580000442,102.31587570000556,102.31587570000556,102.31587570000556,102.31587570000556,102.36598940001568,102.36598940001568,102.36598940001568,left,0.394304400018882,102.78297330002533,102.78297330002533,None,102.36598940001568,102.36598940001568,102.36598940001568,102.36598940001568,102.36598940001568,102.36598940001568,,12,001,2025-12-19_15h47.14.271,2025C_exp1_comp,2022.2.4,60.04732930534004,
19.6,315,1,0,0,55,55,29,102.78297330002533,102.78297330002533,103.28357230001711,103.35017360001802,103.40073000002303,103.40073000002303,103.40073000002303,103.40073000002303,103.4505204000161,103.4505204000161,103.4505204000161,left,0.4781721999752335,103.95085400002426,103.95085400002426,None,103.4505204000161,103.4505204000161,103.4505204000161,103.4505204000161,103.4505204000161,103.4505204000161,,12,001,2025-12-19_15h47.14.271,2025C_exp1_comp,2022.2.4,60.04732930534004,
12.1,315,-1,0,0,56,56,9,103.95085400002426,103.95085400002426,104.45113210001728,104.51811540001654,104.56841840001289,104.56841840001289,104.56841840001289,104.56841840001289,104.61820710002212,104.61820710002212,104.61820710002212,right,0.4292744999984279,105.06870210001944,105.06870210001944,None,104.61820710002212,104.61820710002212,104.61820710002212,104.61820710002212,104.61820710002212,104.61820710002212,,12,001,2025-12-19_15h47.14.271,2025C_exp1_comp,2022.2.4,60.04732930534004,
15.7,315,-1,-1,0,57,57,82,105.06870210001944,105.06870210001944,105.56918960000621,105.63606360001722,105.68625080000493,105.68625080000493,105.68625080000493,105.68625080000493,105.73605170001974,105.73605170001974,105.73605170001974,right,0.4232062000082806,106.18646900000749,106.18646900000749,None,105.73605170001974,105.73605170001974,105.73605170001974,105.73605170001974,105.73605170001974,105.73605170001974,,12,001,2025-12-19_15h47.14.271,2025C_exp1_comp,2022.2.4,60.04732930534004,
29.4,315,1,1,0,58,58,68,106.18646900000749,106.18646900000749,106.6870017000183,106.75360080000246,106.80388370002038,106.80388370002038,106.80388370002038,106.80388370002038,106.85382900002878,106.85382900002878,106.85382900002878,left,0.6104289999930188,107.48760550000588,107.48760550000588,None,106.85382900002878,106.85382900002878,106.85382900002878,106.85382900002878,106.85382900002878,106.85382900002878,,12,001,2025-12-19_15h47.14.271,2025C_exp1_comp,2022.2.4,60.04732930534004,
19.6,45,-1,1,0,59,59,38,107.48760550000588,107.48760550000588,107.98826850001933,108.05506460001925,108.1052266000188,108.1052266000188,108.1052266000188,108.1052266000188,108.15514150002855,108.15514150002855,108.15514150002855,right,0.6450420999899507,108.82239350001328,108.82239350001328,None,108.15514150002855,108.15514150002855,108.15514150002855,108.15514150002855,108.15514150002855,108.15514150002855,,12,001,2025-12-19_15h47.14.271,2025C_exp1_comp,2022.2.4,60.04732930534004,
15.7,315,1,-1,0,60,60,100,108.82239350001328,108.82239350001328,109.32280720002018,109.38955990000977,109.43995570001425,109.43995570001425,109.43995570001425,109.43995570001425,109.48975640002755,109.48975640002755,109.48975640002755,left,0.5012873999949079,110.02363650000188,110.02363650000188,None,109.48975640002755,109.48975640002755,109.48975640002755,109.48975640002755,109.48975640002755,109.48975640002755,,12,001,2025-12-19_15h47.14.271,2025C_exp1_comp,2022.2.4,60.04732930534004,
35.3,315,1,1,0,61,61,69,110.02363650000188,110.02363650000188,110.52413940001861,110.59100730001228,110.64116120000836,110.64116120000836,110.64116120000836,110.64116120000836,110.69075800001156,110.69075800001156,110.69075800001156,left,1.4287384999915957,112.14238480001222,112.14238480001222,None,110.69075800001156,110.69075800001156,110.69075800001156,110.69075800001156,110.69075800001156,110.69075800001156,,12,001,2025-12-19_15h47.14.271,2025C_exp1_comp,2022.2.4,60.04732930534004,
12.1,315,-1,1,0,62,62,45,112.14238480001222,112.14238480001222,112.64310170002864,112.7103582000127,112.75970740002231,112.75970740002231,112.75970740002231,112.75970740002231,112.80959980000625,112.80959980000625,112.80959980000625,right,0.4786144000245258,113.31023530001403,113.31023530001403,None,112.80959980000625,112.80959980000625,112.80959980000625,112.80959980000625,112.80959980000625,112.80959980000625,,12,001,2025-12-19_15h47.14.271,2025C_exp1_comp,2022.2.4,60.04732930534004,
15.7,45,1,-1,0,63,63,91,113.31023530001403,113.31023530001403,113.81063930000528,113.87744890002068,113.9277856000117,113.9277856000117,113.9277856000117,113.9277856000117,113.97744570000214,113.97744570000214,113.97744570000214,left,0.550609700003406,114.54478410002775,114.54478410002775,None,113.97744570000214,113.97744570000214,113.97744570000214,113.97744570000214,113.97744570000214,113.97744570000214,,12,001,2025-12-19_15h47.14.271,2025C_exp1_comp,2022.2.4,60.04732930534004,
19.6,315,1,-1,0,64,64,101,114.54478410002775,114.54478410002775,115.0455418000056,115.11228370000026,115.16249170000083,115.16249170000083,115.16249170000083,115.16249170000083,115.21228120001615,115.21228120001615,115.21228120001615,left,0.41215960000408813,115.64616910001496,115.64616910001496,None,115.21228120001615,115.21228120001615,115.21228120001615,115.21228120001615,115.21228120001615,115.21228120001615,,12,001,2025-12-19_15h47.14.271,2025C_exp1_comp,2022.2.4,60.04732930534004,
25.5,315,1,-1,0,65,65,103,115.64616910001496,115.64616910001496,116.14650420000544,116.21316400001524,116.26325030002045,116.26325030002045,116.26325030002045,116.26325030002045,116.31315360000008,116.31315360000008,116.31315360000008,left,0.5909917000099085,116.93026040002587,116.93026040002587,None,116.31315360000008,116.31315360000008,116.31315360000008,116.31315360000008,116.31315360000008,116.31315360000008,,12,001,2025-12-19_15h47.14.271,2025C_exp1_comp,2022.2.4,60.04732930534004,
15.7,315,-1,0,0,66,66,10,116.93026040002587,116.93026040002587,117.43094650001149,117.49778080001124,117.54808590002358,117.54808590002358,117.54808590002358,117.54808590002358,117.59786870001699,117.59786870001699,117.59786870001699,right,0.36187920000520535,117.98139340002672,117.98139340002672,None,117.59786870001699,117.59786870001699,117.59786870001699,117.59786870001699,117.59786870001699,117.59786870001699,,12,001,2025-12-19_15h47.14.271,2025C_exp1_comp,2022.2.4,60.04732930534004,
42.7,315,-1,0,0,67,67,17,117.98139340002672,117.98139340002672,118.48205580000649,118.54884070000844,118.59912360002636,118.59912360002636,118.59912360002636,118.59912360002636,118.64892620002502,118.64892620002502,118.64892620002502,right,0.4713945999974385,119.1494473000057,119.1494473000057,None,118.64892620002502,118.64892620002502,118.64892620002502,118.64892620002502,118.64892620002502,118.64892620002502,,12,001,2025-12-19_15h47.14.271,2025C_exp1_comp,2022.2.4,60.04732930534004,
25.5,45,-1,1,0,68,68,40,119.1494473000057,119.1494473000057,119.64997320002294,119.7166476000275,119.76696920001996,119.76696920001996,119.76696920001996,119.76696920001996,119.81675820000237,119.81675820000237,119.81675820000237,right,0.41545090000727214,120.25052900001174,120.25052900001174,None,119.81675820000237,119.81675820000237,119.81675820000237,119.81675820000237,119.81675820000237,119.81675820000237,,12,001,2025-12-19_15h47.14.271,2025C_exp1_comp,2022.2.4,60.04732930534004,
35.3,45,-1,0,0,69,69,6,120.25052900001174,120.25052900001174,120.75099220001721,120.81771070000832,120.86802620001254,120.86802620001254,120.86802620001254,120.86802620001254,120.91782870001043,120.91782870001043,120.91782870001043,right,0.5618715999880806,121.50162400002591,121.50162400002591,None,120.91782870001043,120.91782870001043,120.91782870001043,120.91782870001043,120.91782870001043,120.91782870001043,,12,001,2025-12-19_15h47.14.271,2025C_exp1_comp,2022.2.4,60.04732930534004,
12.1,45,-1,1,0,70,70,36,121.50162400002591,121.50162400002591,122.00245810000342,122.06912150001153,122.11942120001186,122.11942120001186,122.11942120001186,122.11942120001186,122.16895440002554,122.16895440002554,122.16895440002554,right,0.42232050001621246,122.61947290002718,122.61947290002718,None,122.16895440002554,122.16895440002554,122.16895440002554,122.16895440002554,122.16895440002554,122.16895440002554,,12,001,2025-12-19_15h47.14.271,2025C_exp1_comp,2022.2.4,60.04732930534004,
42.7,315,-1,1,0,71,71,53,122.61947290002718,122.61947290002718,123.12008170000627,123.18649240001105,123.23674590000883,123.23674590000883,123.23674590000883,123.23674590000883,123.2869073000038,123.2869073000038,123.2869073000038,left,0.45644280000124127,123.77096790002543,123.77096790002543,None,123.2869073000038,123.2869073000038,123.2869073000038,123.2869073000038,123.2869073000038,123.2869073000038,,12,001,2025-12-19_15h47.14.271,2025C_exp1_comp,2022.2.4,60.04732930534004,
19.6,315,-1,0,0,72,72,11,123.77096790002543,123.77096790002543,124.27116430000751,124.33788020000793,124.38793340002303,124.38793340002303,124.38793340002303,124.38793340002303,124.4380555000098,124.4380555000098,124.4380555000098,right,0.43398649999289773,124.88848850000068,124.88848850000068,None,124.4380555000098,124.4380555000098,124.4380555000098,124.4380555000098,124.4380555000098,124.4380555000098,,12,001,2025-12-19_15h47.14.271,2025C_exp1_comp,2022.2.4,60.04732930534004,
25.5,45,1,1,0,73,73,58,124.88848850000068,124.88848850000068,125.38896770001156,125.45568300000741,125.50592520000646,125.50592520000646,125.50592520000646,125.50592520000646,125.5558223000262,125.5558223000262,125.5558223000262,left,0.6446728000009898,126.22312630002853,126.22312630002853,None,125.5558223000262,125.5558223000262,125.5558223000262,125.5558223000262,125.5558223000262,125.5558223000262,,12,001,2025-12-19_15h47.14.271,2025C_exp1_comp,2022.2.4,60.04732930534004,
12.1,45,-1,0,0,74,74,0,126.22312630002853,126.22312630002853,126.72345840002527,126.7903326000087,126.84065430000192,126.84065430000192,126.84065430000192,126.84065430000192,126.89050220002537,126.89050220002537,126.89050220002537,right,0.4615877000032924,127.37395550002111,127.37395550002111,None,126.89050220002537,126.89050220002537,126.89050220002537,126.89050220002537,126.89050220002537,126.89050220002537,,12,001,2025-12-19_15h47.14.271,2025C_exp1_comp,2022.2.4,60.04732930534004,
42.7,45,1,1,0,75,75,62,127.37395550002111,127.37395550002111,127.87470770001528,127.94153960002586,127.9918421000184,127.9918421000184,127.9918421000184,127.9918421000184,128.04162280002492,128.04162280002492,128.04162280002492,right,0.43050819999189116,128.49198090002756,128.49198090002756,None,128.04162280002492,128.04162280002492,128.04162280002492,128.04162280002492,128.04162280002492,128.04162280002492,,12,001,2025-12-19_15h47.14.271,2025C_exp1_comp,2022.2.4,60.04732930534004,
25.5,315,1,0,0,76,76,31,128.49198090002756,128.49198090002756,128.99251960002584,129.0593179000134,129.10960440000053,129.10960440000053,129.10960440000053,129.10960440000053,129.15945140001713,129.15945140001713,129.15945140001713,left,0.5678122999961488,129.75990050000837,129.75990050000837,None,129.15945140001713,129.15945140001713,129.15945140001713,129.15945140001713,129.15945140001713,129.15945140001713,,12,001,2025-12-19_15h47.14.271,2025C_exp1_comp,2022.2.4,60.04732930534004,
15.7,315,1,0,0,77,77,28,129.75990050000837,129.75990050000837,130.26053090000642,130.32726520000142,130.37756250001257,130.37756250001257,130.37756250001257,130.37756250001257,130.42723980001756,130.42723980001756,130.42723980001756,left,0.5489522000134457,130.99454740001238,130.99454740001238,None,130.42723980001756,130.42723980001756,130.42723980001756,130.42723980001756,130.42723980001756,130.42723980001756,,12,001,2025-12-19_15h47.14.271,2025C_exp1_comp,2022.2.4,60.04732930534004,
39.2,45,-1,0,0,78,78,7,130.99454740001238,130.99454740001238,131.4948343000142,131.56178400001954,131.61205090000294,131.61205090000294,131.61205090000294,131.61205090000294,131.66187880001962,131.66187880001962,131.66187880001962,left,0.46584010001970455,132.14570570000797,132.14570570000797,None,131.66187880001962,131.66187880001962,131.66187880001962,131.66187880001962,131.66187880001962,131.66187880001962,,12,001,2025-12-19_15h47.14.271,2025C_exp1_comp,2022.2.4,60.04732930534004,
15.7,315,1,1,0,79,79,64,132.14570570000797,132.14570570000797,132.6464730000007,132.7131046000286,132.76335380002274,132.76335380002274,132.76335380002274,132.76335380002274,132.81313220001175,132.81313220001175,132.81313220001175,left,0.4265509999822825,133.26351670001168,133.26351670001168,None,132.81313220001175,132.81313220001175,132.81313220001175,132.81313220001175,132.81313220001175,132.81313220001175,,12,001,2025-12-19_15h47.14.271,2025C_exp1_comp,2022.2.4,60.04732930534004,
25.5,45,-1,-1,0,80,80,76,133.26351670001168,133.26351670001168,133.7639777000004,133.83076110002003,133.88107400000445,133.88107400000445,133.88107400000445,133.88107400000445,133.9308681000257,133.9308681000257,133.9308681000257,right,0.42943980000563897,134.38130870001623,134.38130870001623,None,133.9308681000257,133.9308681000257,133.9308681000257,133.9308681000257,133.9308681000257,133.9308681000257,,12,001,2025-12-19_15h47.14.271,2025C_exp1_comp,2022.2.4,60.04732930534004,
42.7,45,-1,-1,0,81,81,80,134.38130870001623,134.38130870001623,134.88172490001307,134.9485360000108,134.99883150000824,134.99883150000824,134.99883150000824,134.99883150000824,135.04857310000807,135.04857310000807,135.04857310000807,right,0.38353240001015365,135.44901680000476,135.44901680000476,None,135.04857310000807,135.04857310000807,135.04857310000807,135.04857310000807,135.04857310000807,135.04857310000807,,12,001,2025-12-19_15h47.14.271,2025C_exp1_comp,2022.2.4,60.04732930534004,
42.7,45,-1,1,0,82,82,44,135.44901680000476,135.44901680000476,135.9495246000006,136.01622380001936,136.06644210001105,136.06644210001105,136.06644210001105,136.06644210001105,136.11631960002705,136.11631960002705,136.11631960002705,right,0.4433403000002727,136.58354110000073,136.58354110000073,None,136.11631960002705,136.11631960002705,136.11631960002705,136.11631960002705,136.11631960002705,136.11631960002705,,12,001,2025-12-19_15h47.14.271,2025C_exp1_comp,2022.2.4,60.04732930534004,
35.3,315,-1,-1,0,83,83,87,136.58354110000073,136.58354110000073,137.0841634000244,137.15085510001518,137.20119680001517,137.20119680001517,137.20119680001517,137.20119680001517,137.25094910000917,137.25094910000917,137.25094910000917,left,0.8602861999825109,138.13504410002497,138.13504410002497,None,137.25094910000917,137.25094910000917,137.25094910000917,137.25094910000917,137.25094910000917,137.25094910000917,,12,001,2025-12-19_15h47.14.271,2025C_exp1_comp,2022.2.4,60.04732930534004,
42.7,315,1,0,0,84,84,35,138.13504410002497,138.13504410002497,138.63573370000813,138.70223130000522,138.75248750002356,138.75248750002356,138.75248750002356,138.75248750002356,138.80235670000548,138.80235670000548,138.80235670000548,left,0.4290276000101585,139.25281530001666,139.25281530001666,None,138.80235670000548,138.80235670000548,138.80235670000548,138.80235670000548,138.80235670000548,138.80235670000548,,12,001,2025-12-19_15h47.14.271,2025C_exp1_comp,2022.2.4,60.04732930534004,
35.3,45,-1,-1,0,85,85,78,139.25281530001666,139.25281530001666,139.75322020001477,139.81990300002508,139.87033730000257,139.87033730000257,139.87033730000257,139.87033730000257,139.9201529000129,139.9201529000129,139.9201529000129,left,0.4948500000173226,140.43732400002773,140.43732400002773,None,139.9201529000129,139.9201529000129,139.9201529000129,139.9201529000129,139.9201529000129,139.9201529000129,,12,001,2025-12-19_15h47.14.271,2025C_exp1_comp,2022.2.4,60.04732930534004,
39.2,45,1,1,0,86,86,61,140.43732400002773,140.43732400002773,140.93803750001825,141.0046348000178,141.0549853000266,141.0549853000266,141.0549853000266,141.0549853000266,141.10466780001298,141.10466780001298,141.10466780001298,left,0.9350752000173088,142.0721531000163,142.0721531000163,None,141.10466780001298,141.10466780001298,141.10466780001298,141.10466780001298,141.10466780001298,141.10466780001298,,12,001,2025-12-19_15h47.14.271,2025C_exp1_comp,2022.2.4,60.04732930534004,
42.7,315,-1,-1,0,87,87,89,142.0721531000163,142.0721531000163,142.5731083000137,142.63968210000894,142.69007570002577,142.69007570002577,142.69007570002577,142.69007570002577,142.73968570001307,142.73968570001307,142.73968570001307,left,0.45183400000678375,143.2233367000008,143.2233367000008,None,142.73968570001307,142.73968570001307,142.73968570001307,142.73968570001307,142.73968570001307,142.73968570001307,,12,001,2025-12-19_15h47.14.271,2025C_exp1_comp,2022.2.4,60.04732930534004,
19.6,45,-1,-1,0,88,88,74,143.2233367000008,143.2233367000008,143.72385360000771,143.79065720000654,143.84084330001497,143.84084330001497,143.84084330001497,143.84084330001497,143.8906330000027,143.8906330000027,143.8906330000027,left,0.5413452000066172,144.45803860001615,144.45803860001615,None,143.8906330000027,143.8906330000027,143.8906330000027,143.8906330000027,143.8906330000027,143.8906330000027,,12,001,2025-12-19_15h47.14.271,2025C_exp1_comp,2022.2.4,60.04732930534004,
25.5,315,1,1,0,89,89,67,144.45803860001615,144.45803860001615,144.9585528000025,145.02526560000842,145.0755592000205,145.0755592000205,145.0755592000205,145.0755592000205,145.12523540001712,145.12523540001712,145.12523540001712,left,0.4982750999915879,145.64239480000106,145.64239480000106,None,145.12523540001712,145.12523540001712,145.12523540001712,145.12523540001712,145.12523540001712,145.12523540001712,,12,001,2025-12-19_15h47.14.271,2025C_exp1_comp,2022.2.4,60.04732930534004,
35.3,45,1,-1,0,90,90,96,145.64239480000106,145.64239480000106,146.1430894000223,146.2098529000068,146.26007620000746,146.26007620000746,146.26007620000746,146.26007620000746,146.3099389000272,146.3099389000272,146.3099389000272,left,0.3856198000139557,146.72687200002838,146.72687200002838,None,146.3099389000272,146.3099389000272,146.3099389000272,146.3099389000272,146.3099389000272,146.3099389000272,,12,001,2025-12-19_15h47.14.271,2025C_exp1_comp,2022.2.4,60.04732930534004,
15.7,45,-1,0,0,91,91,1,146.72687200002838,146.72687200002838,147.2275053000194,147.2940694000281,147.34451190000982,147.34451190000982,147.34451190000982,147.34451190000982,147.39434100000653,147.39434100000653,147.39434100000653,right,0.39739149998058565,147.81140800000867,147.81140800000867,None,147.39434100000653,147.39434100000653,147.39434100000653,147.39434100000653,147.39434100000653,147.39434100000653,,12,001,2025-12-19_15h47.14.271,2025C_exp1_comp,2022.2.4,60.04732930534004,
25.5,45,-1,0,0,92,92,4,147.81140800000867,147.81140800000867,148.3120845000085,148.37884530000156,148.42913610002142,148.42913610002142,148.42913610002142,148.42913610002142,148.47885800001677,148.47885800001677,148.47885800001677,right,0.4254631999938283,148.92913970001973,148.92913970001973,None,148.47885800001677,148.47885800001677,148.47885800001677,148.47885800001677,148.47885800001677,148.47885800001677,,12,001,2025-12-19_15h47.14.271,2025C_exp1_comp,2022.2.4,60.04732930534004,
22.7,45,-1,-1,0,93,93,75,148.92913970001973,148.92913970001973,149.42954640000244,149.49637150001945,149.54658980001113,149.54658980001113,149.54658980001113,149.54658980001113,149.59633710002527,149.59633710002527,149.59633710002527,right,0.4757382000098005,150.09697100002086,150.09697100002086,None,149.59633710002527,149.59633710002527,149.59633710002527,149.59633710002527,149.59633710002527,149.59633710002527,,12,001,2025-12-19_15h47.14.271,2025C_exp1_comp,2022.2.4,60.04732930534004,
22.7,315,-1,1,0,94,94,48,150.09697100002086,150.09697100002086,150.59748970001237,150.66416090002167,150.71450540001388,150.71450540001388,150.71450540001388,150.71450540001388,150.76419310001074,150.76419310001074,150.76419310001074,right,0.451364000007743,151.24811060001957,151.24811060001957,None,150.76419310001074,150.76419310001074,150.76419310001074,150.76419310001074,150.76419310001074,150.76419310001074,,12,001,2025-12-19_15h47.14.271,2025C_exp1_comp,2022.2.4,60.04732930534004,
29.4,315,-1,1,0,95,95,50,151.24811060001957,151.24811060001957,151.7486533000192,151.81539190001786,151.86563790001674,151.86563790001674,151.86563790001674,151.86563790001674,151.91548610001337,151.91548610001337,151.91548610001337,right,0.39644670000416227,152.3323081000126,152.3323081000126,None,151.91548610001337,151.91548610001337,151.91548610001337,151.91548610001337,151.91548610001337,151.91548610001337,,12,001,2025-12-19_15h47.14.271,2025C_exp1_comp,2022.2.4,60.04732930534004,
42.7,45,-1,0,0,96,96,8,152.3323081000126,152.3323081000126,152.83306340000127,152.89992060000077,152.94992440001806,152.94992440001806,152.94992440001806,152.94992440001806,152.9998789000092,152.9998789000092,152.9998789000092,left,0.6163137000112329,153.63407100000768,153.63407100000768,None,152.9998789000092,152.9998789000092,152.9998789000092,152.9998789000092,152.9998789000092,152.9998789000092,,12,001,2025-12-19_15h47.14.271,2025C_exp1_comp,2022.2.4,60.04732930534004,
12.1,45,1,-1,0,97,97,90,153.63407100000768,153.63407100000768,154.13461150001967,154.20132360002026,154.251617300004,154.251617300004,154.251617300004,154.251617300004,154.3013300000166,154.3013300000166,154.3013300000166,left,0.5138454000116326,154.83494620001875,154.83494620001875,None,154.3013300000166,154.3013300000166,154.3013300000166,154.3013300000166,154.3013300000166,154.3013300000166,,12,001,2025-12-19_15h47.14.271,2025C_exp1_comp,2022.2.4,60.04732930534004,
12.1,45,1,0,0,98,98,18,154.83494620001875,154.83494620001875,155.3356832000136,155.40241640000022,155.45273710001493,155.45273710001493,155.45273710001493,155.45273710001493,155.502393200004,155.502393200004,155.502393200004,left,0.3845978999743238,155.91948070001672,155.91948070001672,None,155.502393200004,155.502393200004,155.502393200004,155.502393200004,155.502393200004,155.502393200004,,12,001,2025-12-19_15h47.14.271,2025C_exp1_comp,2022.2.4,60.04732930534004,
19.6,315,-1,-1,0,99,99,83,155.91948070001672,155.91948070001672,156.41992390001542,156.48649100001785,156.53679640000337,156.53679640000337,156.53679640000337,156.53679640000337,156.58673249999993,156.58673249999993,156.58673249999993,right,0.42928010001196526,157.03715170000214,157.03715170000214,None,156.58673249999993,156.58673249999993,156.58673249999993,156.58673249999993,156.58673249999993,156.58673249999993,,12,001,2025-12-19_15h47.14.271,2025C_exp1_comp,2022.2.4,60.04732930534004,
22.7,45,1,-1,0,100,100,93,157.03715170000214,157.03715170000214,157.53791590000037,157.60452510000323,157.6548676000093,157.6548676000093,157.6548676000093,157.6548676000093,157.70462220002082,157.70462220002082,157.70462220002082,left,0.4469290999986697,158.17164080002112,158.17164080002112,None,157.70462220002082,157.70462220002082,157.70462220002082,157.70462220002082,157.70462220002082,157.70462220002082,,12,001,2025-12-19_15h47.14.271,2025C_exp1_comp,2022.2.4,60.04732930534004,
35.3,315,-1,1,0,101,101,51,158.17164080002112,158.17164080002112,158.6721847000008,158.73900790000334,158.78920389999985,158.78920389999985,158.78920389999985,158.78920389999985,158.8389804000035,158.8389804000035,158.8389804000035,right,0.3846002999925986,159.2560741000052,159.2560741000052,None,158.8389804000035,158.8389804000035,158.8389804000035,158.8389804000035,158.8389804000035,158.8389804000035,,12,001,2025-12-19_15h47.14.271,2025C_exp1_comp,2022.2.4,60.04732930534004,
19.6,45,1,0,0,102,102,20,159.2560741000052,159.2560741000052,159.75671580000198,159.82342870000866,159.8736968000012,159.8736968000012,159.8736968000012,159.8736968000012,159.92353170001297,159.92353170001297,159.92353170001297,left,0.4047433999949135,160.3571018000075,160.3571018000075,None,159.92353170001297,159.92353170001297,159.92353170001297,159.92353170001297,159.92353170001297,159.92353170001297,,12,001,2025-12-19_15h47.14.271,2025C_exp1_comp,2022.2.4,60.04732930534004,
39.2,315,-1,-1,0,103,103,88,160.3571018000075,160.3571018000075,160.8579665000143,160.92475120001473,160.97499350001453,160.97499350001453,160.97499350001453,160.97499350001453,161.02483120001853,161.02483120001853,161.02483120001853,left,0.47916660000919364,161.52490480002598,161.52490480002598,None,161.02483120001853,161.02483120001853,161.02483120001853,161.02483120001853,161.02483120001853,161.02483120001853,,12,001,2025-12-19_15h47.14.271,2025C_exp1_comp,2022.2.4,60.04732930534004,
19.6,45,-1,0,0,104,104,2,161.52490480002598,161.52490480002598,162.02562250001938,162.0923273000226,162.14255290001165,162.14255290001165,162.14255290001165,162.14255290001165,162.19242140001734,162.19242140001734,162.19242140001734,right,0.43080629999167286,162.6428335000237,162.6428335000237,None,162.19242140001734,162.19242140001734,162.19242140001734,162.19242140001734,162.19242140001734,162.19242140001734,,12,001,2025-12-19_15h47.14.271,2025C_exp1_comp,2022.2.4,60.04732930534004,
29.4,315,1,0,0,105,105,32,162.6428335000237,162.6428335000237,163.14326540002367,163.21016800001962,163.26027500000782,163.26027500000782,163.26027500000782,163.26027500000782,163.31001580000157,163.31001580000157,163.31001580000157,left,0.49787880000076257,163.8274047000159,163.8274047000159,None,163.31001580000157,163.31001580000157,163.31001580000157,163.31001580000157,163.31001580000157,163.31001580000157,,12,001,2025-12-19_15h47.14.271,2025C_exp1_comp,2022.2.4,60.04732930534004,
35.3,315,1,0,0,106,106,33,163.8274047000159,163.8274047000159,164.3279695000092,164.39472180002485,164.4449790000217,164.4449790000217,164.4449790000217,164.4449790000217,164.4946819000179,164.4946819000179,164.4946819000179,left,0.48158770002191886,164.9952242000145,164.9952242000145,None,164.4946819000179,164.4946819000179,164.4946819000179,164.4946819000179,164.4946819000179,164.4946819000179,,12,001,2025-12-19_15h47.14.271,2025C_exp1_comp,2022.2.4,60.04732930534004,
29.4,45,1,1,0,107,107,59,164.9952242000145,164.9952242000145,165.49594020002405,165.56256840002607,165.61286100000143,165.61286100000143,165.61286100000143,165.61286100000143,165.66255040001124,165.66255040001124,165.66255040001124,left,0.4012415000179317,166.0963471000141,166.0963471000141,space,165.66255040001124,165.66255040001124,165.66255040001124,165.66255040001124,165.66255040001124,165.66255040001124,2.335310299997218,12,001,2025-12-19_15h47.14.271,2025C_exp1_comp,2022.2.4,60.04732930534004,
22.7,315,-1,0,1,0,108,12,168.44852470001206,168.44852470001206,168.94889960001456,169.0155712000269,169.06621180000366,169.06621180000366,169.06621180000366,169.06621180000366,169.11599520000163,169.11599520000163,169.11599520000163,right,0.4922900999954436,169.63301390002016,169.63301390002016,None,169.11599520000163,169.11599520000163,169.11599520000163,169.11599520000163,169.11599520000163,169.11599520000163,,12,001,2025-12-19_15h47.14.271,2025C_exp1_comp,2022.2.4,60.04732930534004,
35.3,315,-1,0,1,1,109,15,169.63301390002016,169.63301390002016,170.13365710002836,170.20038470000145,170.25067300000228,170.25067300000228,170.25067300000228,170.25067300000228,170.30047940000077,170.30047940000077,170.30047940000077,right,0.955364900000859,171.28478700001142,171.28478700001142,None,170.30047940000077,170.30047940000077,170.30047940000077,170.30047940000077,170.30047940000077,170.30047940000077,,12,001,2025-12-19_15h47.14.271,2025C_exp1_comp,2022.2.4,60.04732930534004,
22.7,45,-1,0,1,2,110,3,171.28478700001142,171.28478700001142,171.7853138000064,171.8520251000009,171.90232680001645,171.90232680001645,171.90232680001645,171.90232680001645,171.95207000002847,171.95207000002847,171.95207000002847,right,0.5035650999925565,172.4860226000019,172.4860226000019,None,171.95207000002847,171.95207000002847,171.95207000002847,171.95207000002847,171.95207000002847,171.95207000002847,,12,001,2025-12-19_15h47.14.271,2025C_exp1_comp,2022.2.4,60.04732930534004,
35.3,45,1,-1,1,3,111,96,172.4860226000019,172.4860226000019,172.9862143000064,173.05302670001402,173.10321720002685,173.10321720002685,173.10321720002685,173.10321720002685,173.15308820002247,173.15308820002247,173.15308820002247,left,0.46315779999713413,173.63733940001111,173.63733940001111,None,173.15308820002247,173.15308820002247,173.15308820002247,173.15308820002247,173.15308820002247,173.15308820002247,,12,001,2025-12-19_15h47.14.271,2025C_exp1_comp,2022.2.4,60.04732930534004,
22.7,315,1,0,1,4,112,30,173.63733940001111,173.63733940001111,174.13775000002352,174.20450010002241,174.25468360001105,174.25468360001105,174.25468360001105,174.25468360001105,174.30450450000353,174.30450450000353,174.30450450000353,left,0.4866401000181213,174.8215244000021,174.8215244000021,None,174.30450450000353,174.30450450000353,174.30450450000353,174.30450450000353,174.30450450000353,174.30450450000353,,12,001,2025-12-19_15h47.14.271,2025C_exp1_comp,2022.2.4,60.04732930534004,
19.6,315,-1,1,1,5,113,47,174.8215244000021,174.8215244000021,175.32205910002813,175.38883830001578,175.43924440001138,175.43924440001138,175.43924440001138,175.43924440001138,175.4888991000189,175.4888991000189,175.4888991000189,right,0.43905599997378886,175.95630300001358,175.95630300001358,None,175.4888991000189,175.4888991000189,175.4888991000189,175.4888991000189,175.4888991000189,175.4888991000189,,12,001,2025-12-19_15h47.14.271,2025C_exp1_comp,2022.2.4,60.04732930534004,
15.7,45,1,1,1,6,114,55,175.95630300001358,175.95630300001358,176.45674610001151,176.52344610000728,176.5735864000162,176.5735864000162,176.5735864000162,176.5735864000162,176.6235449000087,176.6235449000087,176.6235449000087,left,0.4159096999792382,177.05715580002288,177.05715580002288,None,176.6235449000087,176.6235449000087,176.6235449000087,176.6235449000087,176.6235449000087,176.6235449000087,,12,001,2025-12-19_15h47.14.271,2025C_exp1_comp,2022.2.4,60.04732930534004,
29.4,45,1,-1,1,7,115,95,177.05715580002288,177.05715580002288,177.55777140002465,177.62447050001356,177.67494390002685,177.67494390002685,177.67494390002685,177.67494390002685,177.7247204000014,177.7247204000014,177.7247204000014,left,0.6830359000014141,178.42537160002394,178.42537160002394,None,177.7247204000014,177.7247204000014,177.7247204000014,177.7247204000014,177.7247204000014,177.7247204000014,,12,001,2025-12-19_15h47.14.271,2025C_exp1_comp,2022.2.4,60.04732930534004,
25.5,45,-1,-1,1,8,116,76,178.42537160002394,178.42537160002394,178.92584710000665,178.9925999000261,179.0429447000206,179.0429447000206,179.0429447000206,179.0429447000206,179.09265680002864,179.09265680002864,179.09265680002864,left,0.41174579999642447,179.52649139999994,179.52649139999994,None,179.09265680002864,179.09265680002864,179.09265680002864,179.09265680002864,179.09265680002864,179.09265680002864,,12,001,2025-12-19_15h47.14.271,2025C_exp1_comp,2022.2.4,60.04732930534004,
39.2,315,1,-1,1,9,117,106,179.52649139999994,179.52649139999994,180.02694390001125,180.09376440002234,180.14408400002867,180.14408400002867,180.14408400002867,180.14408400002867,180.19373900000937,180.19373900000937,180.19373900000937,left,0.349897099978989,180.56078840000555,180.56078840000555,None,180.19373900000937,180.19373900000937,180.19373900000937,180.19373900000937,180.19373900000937,180.19373900000937,,12,001,2025-12-19_15h47.14.271,2025C_exp1_comp,2022.2.4,60.04732930534004,
19.6,315,1,1,1,10,118,65,180.56078840000555,180.56078840000555,181.06120470000315,181.12799490001635,181.17827500001295,181.17827500001295,181.17827500001295,181.17827500001295,181.22810720000416,181.22810720000416,181.22810720000416,left,0.36411289998795837,181.6117734000145,181.6117734000145,None,181.22810720000416,181.22810720000416,181.22810720000416,181.22810720000416,181.22810720000416,181.22810720000416,,12,001,2025-12-19_15h47.14.271,2025C_exp1_comp,2022.2.4,60.04732930534004,
42.7,315,-1,1,1,11,119,53,181.6117734000145,181.6117734000145,182.11229090002598,182.17903340002522,182.22925760000362,182.22925760000362,182.22925760000362,182.22925760000362,182.27898080000887,182.27898080000887,182.27898080000887,left,0.5283582999836653,182.82968890000484,182.82968890000484,None,182.27898080000887,182.27898080000887,182.27898080000887,182.27898080000887,182.27898080000887,182.27898080000887,,12,001,2025-12-19_15h47.14.271,2025C_exp1_comp,2022.2.4,60.04732930534004,
29.4,45,-1,-1,1,12,120,77,182.82968890000484,182.82968890000484,183.3301682000165,183.396917200007,183.44695870002033,183.44695870002033,183.44695870002033,183.44695870002033,183.49678840002161,183.49678840002161,183.49678840002161,left,0.21431300000404008,183.73082100000465,183.73082100000465,None,183.49678840002161,183.49678840002161,183.49678840002161,183.49678840002161,183.49678840002161,183.49678840002161,,12,001,2025-12-19_15h47.14.271,2025C_exp1_comp,2022.2.4,60.04732930534004,
35.3,45,1,1,1,13,121,60,183.73082100000465,183.73082100000465,184.23105780000333,184.2977816000057,184.3480746000132,184.3480746000132,184.3480746000132,184.3480746000132,184.39797350001754,184.39797350001754,184.39797350001754,left,0.43407469999510795,184.8483194000146,184.8483194000146,None,184.39797350001754,184.39797350001754,184.39797350001754,184.39797350001754,184.39797350001754,184.39797350001754,,12,001,2025-12-19_15h47.14.271,2025C_exp1_comp,2022.2.4,60.04732930534004,
29.4,315,-1,-1,1,14,122,86,184.8483194000146,184.8483194000146,185.3489548000216,185.4155745000171,185.46573060000082,185.46573060000082,185.46573060000082,185.46573060000082,185.51560410001548,185.51560410001548,185.51560410001548,right,0.6037276000133716,186.1498333000054,186.1498333000054,None,185.51560410001548,185.51560410001548,185.51560410001548,185.51560410001548,185.51560410001548,185.51560410001548,,12,001,2025-12-19_15h47.14.271,2025C_exp1_comp,2022.2.4,60.04732930534004,
29.4,315,1,1,1,15,123,68,186.1498333000054,186.1498333000054,186.65037670001038,186.71679860001314,186.76724260000628,186.76724260000628,186.76724260000628,186.76724260000628,186.81700560002355,186.81700560002355,186.81700560002355,left,0.4232590000028722,187.26739490000182,187.26739490000182,None,186.81700560002355,186.81700560002355,186.81700560002355,186.81700560002355,186.81700560002355,186.81700560002355,,12,001,2025-12-19_15h47.14.271,2025C_exp1_comp,2022.2.4,60.04732930534004,
39.2,45,-1,1,1,16,124,43,187.26739490000182,187.26739490000182,187.76794390002033,187.83464900002582,187.8847819000075,187.8847819000075,187.8847819000075,187.8847819000075,187.93481610002345,187.93481610002345,187.93481610002345,left,0.48882850000518374,188.45191500001238,188.45191500001238,None,187.93481610002345,187.93481610002345,187.93481610002345,187.93481610002345,187.93481610002345,187.93481610002345,,12,001,2025-12-19_15h47.14.271,2025C_exp1_comp,2022.2.4,60.04732930534004,
22.7,45,-1,1,1,17,125,39,188.45191500001238,188.45191500001238,188.95229210000252,189.0191424000077,189.0694600000279,189.0694600000279,189.0694600000279,189.0694600000279,189.1192718000093,189.1192718000093,189.1192718000093,right,0.4483246000017971,189.5861362000287,189.5861362000287,None,189.1192718000093,189.1192718000093,189.1192718000093,189.1192718000093,189.1192718000093,189.1192718000093,,12,001,2025-12-19_15h47.14.271,2025C_exp1_comp,2022.2.4,60.04732930534004,
35.3,45,-1,-1,1,18,126,78,189.5861362000287,189.5861362000287,190.08692340002744,190.1536286000046,190.20398310001474,190.20398310001474,190.20398310001474,190.20398310001474,190.25363310001558,190.25363310001558,190.25363310001558,left,0.458614100003615,190.73750150002888,190.73750150002888,None,190.25363310001558,190.25363310001558,190.25363310001558,190.25363310001558,190.25363310001558,190.25363310001558,,12,001,2025-12-19_15h47.14.271,2025C_exp1_comp,2022.2.4,60.04732930534004,
35.3,45,1,0,1,19,127,24,190.73750150002888,190.73750150002888,191.23810260000755,191.30480770001304,191.3549875000026,191.3549875000026,191.3549875000026,191.3549875000026,191.4048526000115,191.4048526000115,191.4048526000115,left,0.5633074999786913,191.9886854000215,191.9886854000215,None,191.4048526000115,191.4048526000115,191.4048526000115,191.4048526000115,191.4048526000115,191.4048526000115,,12,001,2025-12-19_15h47.14.271,2025C_exp1_comp,2022.2.4,60.04732930534004,
35.3,45,-1,1,1,20,128,42,191.9886854000215,191.9886854000215,192.48960160001297,192.55631460002041,192.60652870000922,192.60652870000922,192.60652870000922,192.60652870000922,192.65599240001757,192.65599240001757,192.65599240001757,right,0.46420350001426414,193.13996740002767,193.13996740002767,None,192.65599240001757,192.65599240001757,192.65599240001757,192.65599240001757,192.65599240001757,192.65599240001757,,12,001,2025-12-19_15h47.14.271,2025C_exp1_comp,2022.2.4,60.04732930534004,
15.7,315,1,0,1,21,129,28,193.13996740002767,193.13996740002767,193.640372200025,193.70691110001644,193.7572353000287,193.7572353000287,193.7572353000287,193.7572353000287,193.8075335000176,193.8075335000176,193.8075335000176,left,0.36797339998884127,194.20752040002844,194.20752040002844,None,193.8075335000176,193.8075335000176,193.8075335000176,193.8075335000176,193.8075335000176,193.8075335000176,,12,001,2025-12-19_15h47.14.271,2025C_exp1_comp,2022.2.4,60.04732930534004,
35.3,315,1,0,1,22,130,33,194.20752040002844,194.20752040002844,194.70825260001584,194.7749575000198,194.82525970001006,194.82525970001006,194.82525970001006,194.82525970001006,194.8750652000017,194.8750652000017,194.8750652000017,right,0.524521499988623,195.42560140002752,195.42560140002752,None,194.8750652000017,194.8750652000017,194.8750652000017,194.8750652000017,194.8750652000017,194.8750652000017,,12,001,2025-12-19_15h47.14.271,2025C_exp1_comp,2022.2.4,60.04732930534004,
29.4,315,-1,0,1,23,131,14,195.42560140002752,195.42560140002752,195.9259774000093,195.99256710000918,196.04318640002748,196.04318640002748,196.04318640002748,196.04318640002748,196.09295450002537,196.09295450002537,196.09295450002537,right,0.46709370001917705,196.57675830001244,196.57675830001244,None,196.09295450002537,196.09295450002537,196.09295450002537,196.09295450002537,196.09295450002537,196.09295450002537,,12,001,2025-12-19_15h47.14.271,2025C_exp1_comp,2022.2.4,60.04732930534004,
42.7,315,1,-1,1,24,132,107,196.57675830001244,196.57675830001244,197.07721640000818,197.14398980000988,197.19427510001697,197.19427510001697,197.19427510001697,197.19427510001697,197.24409790002392,197.24409790002392,197.24409790002392,right,0.43541850001201965,197.71113270000205,197.71113270000205,None,197.24409790002392,197.24409790002392,197.24409790002392,197.24409790002392,197.24409790002392,197.24409790002392,,12,001,2025-12-19_15h47.14.271,2025C_exp1_comp,2022.2.4,60.04732930534004,
39.2,315,-1,-1,1,25,133,88,197.71113270000205,197.71113270000205,198.21171530001448,198.27841440000338,198.3287734000187,198.3287734000187,198.3287734000187,198.3287734000187,198.37827270000707,198.37827270000707,198.37827270000707,left,0.716849699994782,199.11262390000047,199.11262390000047,None,198.37827270000707,198.37827270000707,198.37827270000707,198.37827270000707,198.37827270000707,198.37827270000707,,12,001,2025-12-19_15h47.14.271,2025C_exp1_comp,2022.2.4,60.04732930534004,
22.7,45,1,0,1,26,134,21,199.11262390000047,199.11262390000047,199.61316890001763,199.67972470002132,199.7301593000011,199.7301593000011,199.7301593000011,199.7301593000011,199.77997200001846,199.77997200001846,199.77997200001846,left,0.41106919999583624,200.21346470000572,200.21346470000572,None,199.77997200001846,199.77997200001846,199.77997200001846,199.77997200001846,199.77997200001846,199.77997200001846,,12,001,2025-12-19_15h47.14.271,2025C_exp1_comp,2022.2.4,60.04732930534004,
25.5,315,1,0,1,27,135,31,200.21346470000572,200.21346470000572,200.7141310000152,200.7809377000085,200.831270100025,200.831270100025,200.831270100025,200.831270100025,200.8810576000251,200.8810576000251,200.8810576000251,left,0.9823996000050101,201.8818958000047,201.8818958000047,None,200.8810576000251,200.8810576000251,200.8810576000251,200.8810576000251,200.8810576000251,200.8810576000251,,12,001,2025-12-19_15h47.14.271,2025C_exp1_comp,2022.2.4,60.04732930534004,
35.3,315,-1,-1,1,28,136,87,201.8818958000047,201.8818958000047,202.38254530000268,202.44925590002094,202.4995845000085,202.4995845000085,202.4995845000085,202.4995845000085,202.5495616000262,202.5495616000262,202.5495616000262,left,0.38603180000791326,202.96641820002696,202.96641820002696,None,202.5495616000262,202.5495616000262,202.5495616000262,202.5495616000262,202.5495616000262,202.5495616000262,,12,001,2025-12-19_15h47.14.271,2025C_exp1_comp,2022.2.4,60.04732930534004,
25.5,315,1,1,1,29,137,67,202.96641820002696,202.96641820002696,203.4669526000216,203.533539200027,203.58395520001068,203.58395520001068,203.58395520001068,203.58395520001068,203.63378330002888,203.63378330002888,203.63378330002888,left,0.4136839999991935,204.06757280000602,204.06757280000602,None,203.63378330002888,203.63378330002888,203.63378330002888,203.63378330002888,203.63378330002888,203.63378330002888,,12,001,2025-12-19_15h47.14.271,2025C_exp1_comp,2022.2.4,60.04732930534004,
35.3,315,1,-1,1,30,138,105,204.06757280000602,204.06757280000602,204.56821950001176,204.63490860001184,204.685205900023,204.685205900023,204.685205900023,204.685205900023,204.73504740002682,204.73504740002682,204.73504740002682,left,0.3125300999963656,205.06860060000326,205.06860060000326,None,204.73504740002682,204.73504740002682,204.73504740002682,204.73504740002682,204.73504740002682,204.73504740002682,,12,001,2025-12-19_15h47.14.271,2025C_exp1_comp,2022.2.4,60.04732930534004,
19.6,45,1,-1,1,31,139,92,205.06860060000326,205.06860060000326,205.56896440000855,205.63581570002134,205.6861329000094,205.6861329000094,205.6861329000094,205.6861329000094,205.7359002000012,205.7359002000012,205.7359002000012,left,0.24806519999401644,206.00270360001014,206.00270360001014,None,205.7359002000012,205.7359002000012,205.7359002000012,205.7359002000012,205.7359002000012,205.7359002000012,,12,001,2025-12-19_15h47.14.271,2025C_exp1_comp,2022.2.4,60.04732930534004,
15.7,315,1,-1,1,32,140,100,206.00270360001014,206.00270360001014,206.50335240000277,206.57012230000691,206.6203903000278,206.6203903000278,206.6203903000278,206.6203903000278,206.66990110001643,206.66990110001643,206.66990110001643,left,0.30601000000024214,207.00382350001018,207.00382350001018,None,206.66990110001643,206.66990110001643,206.66990110001643,206.66990110001643,206.66990110001643,206.66990110001643,,12,001,2025-12-19_15h47.14.271,2025C_exp1_comp,2022.2.4,60.04732930534004,
29.4,45,-1,0,1,33,141,5,207.00382350001018,207.00382350001018,207.50436080002692,207.57090120000066,207.62137570002233,207.62137570002233,207.62137570002233,207.62137570002233,207.67106940000667,207.67106940000667,207.67106940000667,left,0.45668870001100004,208.15499300000374,208.15499300000374,None,207.67106940000667,207.67106940000667,207.67106940000667,207.67106940000667,207.67106940000667,207.67106940000667,,12,001,2025-12-19_15h47.14.271,2025C_exp1_comp,2022.2.4,60.04732930534004,
12.1,45,-1,-1,1,34,142,72,208.15499300000374,208.15499300000374,208.65538290000404,208.7222296000109,208.77250800002366,208.77250800002366,208.77250800002366,208.77250800002366,208.82233690001885,208.82233690001885,208.82233690001885,right,0.47403330000815913,209.32263980002608,209.32263980002608,None,208.82233690001885,208.82233690001885,208.82233690001885,208.82233690001885,208.82233690001885,208.82233690001885,,12,001,2025-12-19_15h47.14.271,2025C_exp1_comp,2022.2.4,60.04732930534004,
25.5,45,1,0,1,35,143,22,209.32263980002608,209.32263980002608,209.8232224000094,209.8899391000159,209.94005660002586,209.94005660002586,209.94005660002586,209.94005660002586,209.99013100002776,209.99013100002776,209.99013100002776,right,1.1853278999915347,211.20801660002326,211.20801660002326,None,209.99013100002776,209.99013100002776,209.99013100002776,209.99013100002776,209.99013100002776,209.99013100002776,,12,001,2025-12-19_15h47.14.271,2025C_exp1_comp,2022.2.4,60.04732930534004,
39.2,45,1,-1,1,36,144,97,211.20801660002326,211.20801660002326,211.7083800000255,211.7752525000251,211.82552460001898,211.82552460001898,211.82552460001898,211.82552460001898,211.87534550001146,211.87534550001146,211.87534550001146,left,0.5405517999897711,212.44272020002245,212.44272020002245,None,211.87534550001146,211.87534550001146,211.87534550001146,211.87534550001146,211.87534550001146,211.87534550001146,,12,001,2025-12-19_15h47.14.271,2025C_exp1_comp,2022.2.4,60.04732930534004,
29.4,315,-1,1,1,37,145,50,212.44272020002245,212.44272020002245,212.94308660001843,213.009836000012,213.05999390000943,213.05999390000943,213.05999390000943,213.05999390000943,213.109766700014,213.109766700014,213.109766700014,right,0.458578599995235,213.59376420002081,213.59376420002081,None,213.109766700014,213.109766700014,213.109766700014,213.109766700014,213.109766700014,213.109766700014,,12,001,2025-12-19_15h47.14.271,2025C_exp1_comp,2022.2.4,60.04732930534004,
25.5,45,-1,1,1,38,146,40,213.59376420002081,213.59376420002081,214.09423420001986,214.161050900002,214.21130190000986,214.21130190000986,214.21130190000986,214.21130190000986,214.26109320000978,214.26109320000978,214.26109320000978,right,0.49815589998615906,214.7779787000036,214.7779787000036,None,214.26109320000978,214.26109320000978,214.26109320000978,214.26109320000978,214.26109320000978,214.26109320000978,,12,001,2025-12-19_15h47.14.271,2025C_exp1_comp,2022.2.4,60.04732930534004,
19.6,315,-1,0,1,39,147,11,214.7779787000036,214.7779787000036,215.27893040000345,215.34560230001807,215.39584540002397,215.39584540002397,215.39584540002397,215.39584540002397,215.4456023000239,215.4456023000239,215.4456023000239,right,0.4106335999967996,215.87936230000923,215.87936230000923,None,215.4456023000239,215.4456023000239,215.4456023000239,215.4456023000239,215.4456023000239,215.4456023000239,,12,001,2025-12-19_15h47.14.271,2025C_exp1_comp,2022.2.4,60.04732930534004,
15.7,315,1,1,1,40,148,64,215.87936230000923,215.87936230000923,216.37987890001386,216.44656830001622,216.49689200002467,216.49689200002467,216.49689200002467,216.49689200002467,216.5465283000085,216.5465283000085,216.5465283000085,left,0.43714949997956865,217.01366920000874,217.01366920000874,None,216.5465283000085,216.5465283000085,216.5465283000085,216.5465283000085,216.5465283000085,216.5465283000085,,12,001,2025-12-19_15h47.14.271,2025C_exp1_comp,2022.2.4,60.04732930534004,
12.1,315,1,-1,1,41,149,99,217.01366920000874,217.01366920000874,217.51434550000704,217.58103730002767,217.63133740000194,217.63133740000194,217.63133740000194,217.63133740000194,217.68114350002725,217.68114350002725,217.68114350002725,left,0.3907489999837708,218.0982102000271,218.0982102000271,None,217.68114350002725,217.68114350002725,217.68114350002725,217.68114350002725,217.68114350002725,217.68114350002725,,12,001,2025-12-19_15h47.14.271,2025C_exp1_comp,2022.2.4,60.04732930534004,
12.1,315,-1,0,1,42,150,9,218.0982102000271,218.0982102000271,218.59875450000982,218.6654669000127,218.7157796000247,218.7157796000247,218.7157796000247,218.7157796000247,218.76559410002665,218.76559410002665,218.76559410002665,right,0.4577683999959845,219.2493894000072,219.2493894000072,None,218.76559410002665,218.76559410002665,218.76559410002665,218.76559410002665,218.76559410002665,218.76559410002665,,12,001,2025-12-19_15h47.14.271,2025C_exp1_comp,2022.2.4,60.04732930534004,
25.5,315,-1,1,1,43,151,49,219.2493894000072,219.2493894000072,219.74990850000177,219.81663170002867,219.8668563000101,219.8668563000101,219.8668563000101,219.8668563000101,219.91672980002477,219.91672980002477,219.91672980002477,right,0.39536320001934655,220.33383940000203,220.33383940000203,None,219.91672980002477,219.91672980002477,219.91672980002477,219.91672980002477,219.91672980002477,219.91672980002477,,12,001,2025-12-19_15h47.14.271,2025C_exp1_comp,2022.2.4,60.04732930534004,
22.7,45,-1,-1,1,44,152,75,220.33383940000203,220.33383940000203,220.8343399000005,220.9010755000054,220.95135410001967,220.95135410001967,220.95135410001967,220.95135410001967,221.00121880002553,221.00121880002553,221.00121880002553,right,0.4139760000107344,221.43491960002575,221.43491960002575,None,221.00121880002553,221.00121880002553,221.00121880002553,221.00121880002553,221.00121880002553,221.00121880002553,,12,001,2025-12-19_15h47.14.271,2025C_exp1_comp,2022.2.4,60.04732930534004,
15.7,45,1,-1,1,45,153,91,221.43491960002575,221.43491960002575,221.935472400015,222.0020504000131,222.05248310000752,222.05248310000752,222.05248310000752,222.05248310000752,222.10208960002637,222.10208960002637,222.10208960002637,left,0.48967070001526736,222.61942440000712,222.61942440000712,None,222.10208960002637,222.10208960002637,222.10208960002637,222.10208960002637,222.10208960002637,222.10208960002637,,12,001,2025-12-19_15h47.14.271,2025C_exp1_comp,2022.2.4,60.04732930534004,
42.7,315,1,0,1,46,154,35,222.61942440000712,222.61942440000712,223.11962320000748,223.18637290000333,223.23687400002382,223.23687400002382,223.23687400002382,223.23687400002382,223.2867562000174,223.2867562000174,223.2867562000174,right,0.4003723999776412,223.70383980000042,223.70383980000042,None,223.2867562000174,223.2867562000174,223.2867562000174,223.2867562000174,223.2867562000174,223.2867562000174,,12,001,2025-12-19_15h47.14.271,2025C_exp1_comp,2022.2.4,60.04732930534004,
29.4,315,1,0,1,47,155,32,223.70383980000042,223.70383980000042,224.20409380001365,224.27101110000513,224.3212990000029,224.3212990000029,224.3212990000029,224.3212990000029,224.37116790001164,224.37116790001164,224.37116790001164,left,1.2693822000001092,225.67274270000053,225.67274270000053,None,224.37116790001164,224.37116790001164,224.37116790001164,224.37116790001164,224.37116790001164,224.37116790001164,,12,001,2025-12-19_15h47.14.271,2025C_exp1_comp,2022.2.4,60.04732930534004,
29.4,315,1,-1,1,48,156,104,225.67274270000053,225.67274270000053,226.17326370000956,226.239421700011,226.2898814000073,226.2898814000073,226.2898814000073,226.2898814000073,226.3398070000112,226.3398070000112,226.3398070000112,left,0.4284508000127971,226.79003800000646,226.79003800000646,None,226.3398070000112,226.3398070000112,226.3398070000112,226.3398070000112,226.3398070000112,226.3398070000112,,12,001,2025-12-19_15h47.14.271,2025C_exp1_comp,2022.2.4,60.04732930534004,
39.2,45,1,0,1,49,157,25,226.79003800000646,226.79003800000646,227.29101650000666,227.35728720002226,227.40747980002197,227.40747980002197,227.40747980002197,227.40747980002197,227.457593500003,227.457593500003,227.457593500003,left,0.48548760000267066,227.97460300000967,227.97460300000967,None,227.457593500003,227.457593500003,227.457593500003,227.457593500003,227.457593500003,227.457593500003,,12,001,2025-12-19_15h47.14.271,2025C_exp1_comp,2022.2.4,60.04732930534004,
12.1,45,-1,1,1,50,158,36,227.97460300000967,227.97460300000967,228.4751791000017,228.5418606000021,228.5919524000201,228.5919524000201,228.5919524000201,228.5919524000201,228.64203150002868,228.64203150002868,228.64203150002868,right,0.37417199998162687,229.04246390002663,229.04246390002663,None,228.64203150002868,228.64203150002868,228.64203150002868,228.64203150002868,228.64203150002868,228.64203150002868,,12,001,2025-12-19_15h47.14.271,2025C_exp1_comp,2022.2.4,60.04732930534004,
39.2,315,1,0,1,51,159,34,229.04246390002663,229.04246390002663,229.5429649000289,229.60992860002443,229.66026270002476,229.66026270002476,229.66026270002476,229.66026270002476,229.71007580001606,229.71007580001606,229.71007580001606,right,0.3774664999800734,230.11034010001458,230.11034010001458,None,229.71007580001606,229.71007580001606,229.71007580001606,229.71007580001606,229.71007580001606,229.71007580001606,,12,001,2025-12-19_15h47.14.271,2025C_exp1_comp,2022.2.4,60.04732930534004,
22.7,315,1,-1,1,52,160,102,230.11034010001458,230.11034010001458,230.6107522000093,230.67750240000896,230.72773280000547,230.72773280000547,230.72773280000547,230.72773280000547,230.77742100000614,230.77742100000614,230.77742100000614,left,0.4225914999842644,231.2280171000166,231.2280171000166,None,230.77742100000614,230.77742100000614,230.77742100000614,230.77742100000614,230.77742100000614,230.77742100000614,,12,001,2025-12-19_15h47.14.271,2025C_exp1_comp,2022.2.4,60.04732930534004,
15.7,315,-1,0,1,53,161,10,231.2280171000166,231.2280171000166,231.72879570000805,231.7954823000182,231.84579670001403,231.84579670001403,231.84579670001403,231.84579670001403,231.8956213000056,231.8956213000056,231.8956213000056,right,0.4635601000045426,232.37900780001655,232.37900780001655,None,231.8956213000056,231.8956213000056,231.8956213000056,231.8956213000056,231.8956213000056,231.8956213000056,,12,001,2025-12-19_15h47.14.271,2025C_exp1_comp,2022.2.4,60.04732930534004,
42.7,45,1,0,1,54,162,26,232.37900780001655,232.37900780001655,232.87936850002734,232.94604880001862,232.99640750000253,232.99640750000253,232.99640750000253,232.99640750000253,233.04617630000575,233.04617630000575,233.04617630000575,right,0.5054499999969266,233.58039440002176,233.58039440002176,None,233.04617630000575,233.04617630000575,233.04617630000575,233.04617630000575,233.04617630000575,233.04617630000575,,12,001,2025-12-19_15h47.14.271,2025C_exp1_comp,2022.2.4,60.04732930534004,
19.6,315,-1,-1,1,55,163,83,233.58039440002176,233.58039440002176,234.0806634000037,234.14782750001177,234.19812570000067,234.19812570000067,234.19812570000067,234.19812570000067,234.24783000000753,234.24783000000753,234.24783000000753,right,0.5276518000173382,234.7981878000137,234.7981878000137,None,234.24783000000753,234.24783000000753,234.24783000000753,234.24783000000753,234.24783000000753,234.24783000000753,,12,001,2025-12-19_15h47.14.271,2025C_exp1_comp,2022.2.4,60.04732930534004,
12.1,315,-1,1,1,56,164,45,234.7981878000137,234.7981878000137,235.29895610001404,235.36563320001005,235.4159675000119,235.4159675000119,235.4159675000119,235.4159675000119,235.46551630002796,235.46551630002796,235.46551630002796,right,0.5188166000007186,236.01621070000692,236.01621070000692,None,235.46551630002796,235.46551630002796,235.46551630002796,235.46551630002796,235.46551630002796,235.46551630002796,,12,001,2025-12-19_15h47.14.271,2025C_exp1_comp,2022.2.4,60.04732930534004,
19.6,45,-1,-1,1,57,165,74,236.01621070000692,236.01621070000692,236.51663520000875,236.5834462000057,236.63367220002692,236.63367220002692,236.63367220002692,236.63367220002692,236.68350820001797,236.68350820001797,236.68350820001797,right,0.9246582000050694,237.63432340000873,237.63432340000873,None,236.68350820001797,236.68350820001797,236.68350820001797,236.68350820001797,236.68350820001797,236.68350820001797,,12,001,2025-12-19_15h47.14.271,2025C_exp1_comp,2022.2.4,60.04732930534004,
15.7,45,-1,-1,1,58,166,73,237.63432340000873,237.63432340000873,238.13483740002266,238.2015240000037,238.25197300000582,238.25197300000582,238.25197300000582,238.25197300000582,238.30176070000743,238.30176070000743,238.30176070000743,right,0.3780901999853086,238.70216060001985,238.70216060001985,None,238.30176070000743,238.30176070000743,238.30176070000743,238.30176070000743,238.30176070000743,238.30176070000743,,12,001,2025-12-19_15h47.14.271,2025C_exp1_comp,2022.2.4,60.04732930534004,
29.4,45,1,1,1,59,167,59,238.70216060001985,238.70216060001985,239.20267050000257,239.26952640002128,239.31990310002584,239.31990310002584,239.31990310002584,239.31990310002584,239.3695631000155,239.3695631000155,239.3695631000155,left,0.42992920000688173,239.81968720001169,239.81968720001169,None,239.3695631000155,239.3695631000155,239.3695631000155,239.3695631000155,239.3695631000155,239.3695631000155,,12,001,2025-12-19_15h47.14.271,2025C_exp1_comp,2022.2.4,60.04732930534004,
12.1,45,1,-1,1,60,168,90,239.81968720001169,239.81968720001169,240.32039830001304,240.38717090000864,240.43743990000803,240.43743990000803,240.43743990000803,240.43743990000803,240.48713990001124,240.48713990001124,240.48713990001124,left,0.4081688999722246,240.92093050002586,240.92093050002586,None,240.48713990001124,240.48713990001124,240.48713990001124,240.48713990001124,240.48713990001124,240.48713990001124,,12,001,2025-12-19_15h47.14.271,2025C_exp1_comp,2022.2.4,60.04732930534004,
22.7,45,1,-1,1,61,169,93,240.92093050002586,240.92093050002586,241.42153560000588,241.48828120002872,241.53858510000282,241.53858510000282,241.53858510000282,241.53858510000282,241.588339000009,241.588339000009,241.588339000009,left,0.3548388000053819,241.97179530002177,241.97179530002177,None,241.588339000009,241.588339000009,241.588339000009,241.588339000009,241.588339000009,241.588339000009,,12,001,2025-12-19_15h47.14.271,2025C_exp1_comp,2022.2.4,60.04732930534004,
35.3,315,-1,1,1,62,170,51,241.97179530002177,241.97179530002177,242.47278490001918,242.53946490000817,242.58928320000996,242.58928320000996,242.58928320000996,242.58928320000996,242.63927400001558,242.63927400001558,242.63927400001558,right,0.4405925999744795,243.10641290000058,243.10641290000058,None,242.63927400001558,242.63927400001558,242.63927400001558,242.63927400001558,242.63927400001558,242.63927400001558,,12,001,2025-12-19_15h47.14.271,2025C_exp1_comp,2022.2.4,60.04732930534004,
35.3,45,-1,0,1,63,171,6,243.10641290000058,243.10641290000058,243.60712430000422,243.67396930002724,243.72417800000403,243.72417800000403,243.72417800000403,243.72417800000403,243.7738090000057,243.7738090000057,243.7738090000057,right,1.2335380999720655,245.02527020001435,245.02527020001435,None,243.7738090000057,243.7738090000057,243.7738090000057,243.7738090000057,243.7738090000057,243.7738090000057,,12,001,2025-12-19_15h47.14.271,2025C_exp1_comp,2022.2.4,60.04732930534004,
19.6,45,-1,1,1,64,172,38,245.02527020001435,245.02527020001435,245.52566290000686,245.59235170000466,245.64268130002893,245.64268130002893,245.64268130002893,245.64268130002893,245.6923985000176,245.6923985000176,245.6923985000176,right,0.3867681999981869,246.1092658000125,246.1092658000125,None,245.6923985000176,245.6923985000176,245.6923985000176,245.6923985000176,245.6923985000176,245.6923985000176,,12,001,2025-12-19_15h47.14.271,2025C_exp1_comp,2022.2.4,60.04732930534004,
39.2,45,1,1,1,65,173,61,246.1092658000125,246.1092658000125,246.61018850002438,246.67670510002063,246.7270753000048,246.7270753000048,246.7270753000048,246.7270753000048,246.77690850000363,246.77690850000363,246.77690850000363,right,0.3905723000061698,247.19396910001524,247.19396910001524,None,246.77690850000363,246.77690850000363,246.77690850000363,246.77690850000363,246.77690850000363,246.77690850000363,,12,001,2025-12-19_15h47.14.271,2025C_exp1_comp,2022.2.4,60.04732930534004,
12.1,315,1,1,1,66,174,63,247.19396910001524,247.19396910001524,247.69452330001513,247.76119370001834,247.8114969000162,247.8114969000162,247.8114969000162,247.8114969000162,247.86116320002475,247.86116320002475,247.86116320002475,left,0.5310986000113189,248.41187100001844,248.41187100001844,None,247.86116320002475,247.86116320002475,247.86116320002475,247.86116320002475,247.86116320002475,247.86116320002475,,12,001,2025-12-19_15h47.14.271,2025C_exp1_comp,2022.2.4,60.04732930534004,
15.7,315,-1,-1,1,67,175,82,248.41187100001844,248.41187100001844,248.91223110002466,248.9791011000052,249.02933220000705,249.02933220000705,249.02933220000705,249.02933220000705,249.07909020001534,249.07909020001534,249.07909020001534,right,0.46496089998981915,249.56288770001265,249.56288770001265,None,249.07909020001534,249.07909020001534,249.07909020001534,249.07909020001534,249.07909020001534,249.07909020001534,,12,001,2025-12-19_15h47.14.271,2025C_exp1_comp,2022.2.4,60.04732930534004,
35.3,315,1,1,1,68,176,69,249.56288770001265,249.56288770001265,250.06342460002634,250.13026270002592,250.18055980000645,250.18055980000645,250.18055980000645,250.18055980000645,250.23012430002564,250.23012430002564,250.23012430002564,right,0.4251935000065714,250.68080660002306,250.68080660002306,None,250.23012430002564,250.23012430002564,250.23012430002564,250.23012430002564,250.23012430002564,250.23012430002564,,12,001,2025-12-19_15h47.14.271,2025C_exp1_comp,2022.2.4,60.04732930534004,
39.2,45,-1,0,1,69,177,7,250.68080660002306,250.68080660002306,251.1814598000201,251.24803740001516,251.29831280000508,251.29831280000508,251.29831280000508,251.29831280000508,251.34826330002397,251.34826330002397,251.34826330002397,right,0.4434165999991819,251.81495830000495,251.81495830000495,None,251.34826330002397,251.34826330002397,251.34826330002397,251.34826330002397,251.34826330002397,251.34826330002397,,12,001,2025-12-19_15h47.14.271,2025C_exp1_comp,2022.2.4,60.04732930534004,
39.2,315,1,1,1,70,178,70,251.81495830000495,251.81495830000495,252.31549550002092,252.38256270001875,252.43273700002464,252.43273700002464,252.43273700002464,252.43273700002464,252.48255240000435,252.48255240000435,252.48255240000435,right,0.3737027000170201,252.88300150001305,252.88300150001305,None,252.48255240000435,252.48255240000435,252.48255240000435,252.48255240000435,252.48255240000435,252.48255240000435,,12,001,2025-12-19_15h47.14.271,2025C_exp1_comp,2022.2.4,60.04732930534004,
19.6,315,1,0,1,71,179,29,252.88300150001305,252.88300150001305,253.38352230002056,253.45023870002478,253.500566600007,253.500566600007,253.500566600007,253.500566600007,253.55034390001674,253.55034390001674,253.55034390001674,left,0.36988849999033846,253.95074410000234,253.95074410000234,None,253.55034390001674,253.55034390001674,253.55034390001674,253.55034390001674,253.55034390001674,253.55034390001674,,12,001,2025-12-19_15h47.14.271,2025C_exp1_comp,2022.2.4,60.04732930534004,
22.7,315,1,1,1,72,180,66,253.95074410000234,253.95074410000234,254.45121700002346,254.51820150000276,254.56846840001526,254.56846840001526,254.56846840001526,254.56846840001526,254.61809080000967,254.61809080000967,254.61809080000967,right,0.29315759998280555,254.93499520001933,254.93499520001933,None,254.61809080000967,254.61809080000967,254.61809080000967,254.61809080000967,254.61809080000967,254.61809080000967,,12,001,2025-12-19_15h47.14.271,2025C_exp1_comp,2022.2.4,60.04732930534004,
25.5,315,-1,-1,1,73,181,85,254.93499520001933,254.93499520001933,255.43555900000501,255.5021086000197,255.55257340002572,255.55257340002572,255.55257340002572,255.55257340002572,255.60237740000593,255.60237740000593,255.60237740000593,right,0.4215660000045318,256.05288970001857,256.05288970001857,None,255.60237740000593,255.60237740000593,255.60237740000593,255.60237740000593,255.60237740000593,255.60237740000593,,12,001,2025-12-19_15h47.14.271,2025C_exp1_comp,2022.2.4,60.04732930534004,
15.7,45,-1,0,1,74,182,1,256.05288970001857,256.05288970001857,256.5533167000103,256.6200255000149,256.6702678000147,256.6702678000147,256.6702678000147,256.6702678000147,256.72010820001015,256.72010820001015,256.72010820001015,right,0.44811489997664467,257.18725200000335,257.18725200000335,None,256.72010820001015,256.72010820001015,256.72010820001015,256.72010820001015,256.72010820001015,256.72010820001015,,12,001,2025-12-19_15h47.14.271,2025C_exp1_comp,2022.2.4,60.04732930534004,
15.7,315,-1,1,1,75,183,46,257.18725200000335,257.18725200000335,257.6878330000036,257.75442770001246,257.8047980000265,257.8047980000265,257.8047980000265,257.8047980000265,257.85462910000933,257.85462910000933,257.85462910000933,right,0.3452855999930762,258.2217000000237,258.2217000000237,None,257.85462910000933,257.85462910000933,257.85462910000933,257.85462910000933,257.85462910000933,257.85462910000933,,12,001,2025-12-19_15h47.14.271,2025C_exp1_comp,2022.2.4,60.04732930534004,
42.7,45,-1,-1,1,76,184,80,258.2217000000237,258.2217000000237,258.7224620000052,258.78903390001506,258.83919680002145,258.83919680002145,258.83919680002145,258.83919680002145,258.88911030002055,258.88911030002055,258.88911030002055,left,0.41409260002546944,259.32256610001787,259.32256610001787,None,258.88911030002055,258.88911030002055,258.88911030002055,258.88911030002055,258.88911030002055,258.88911030002055,,12,001,2025-12-19_15h47.14.271,2025C_exp1_comp,2022.2.4,60.04732930534004,
42.7,315,-1,-1,1,77,185,89,259.32256610001787,259.32256610001787,259.8230954000028,259.8899821000232,259.9401525000285,259.9401525000285,259.9401525000285,259.9401525000285,259.99000430002343,259.99000430002343,259.99000430002343,left,0.6656704000197351,260.67407560002175,260.67407560002175,None,259.99000430002343,259.99000430002343,259.99000430002343,259.99000430002343,259.99000430002343,259.99000430002343,,12,001,2025-12-19_15h47.14.271,2025C_exp1_comp,2022.2.4,60.04732930534004,
25.5,315,1,-1,1,78,186,103,260.67407560002175,260.67407560002175,261.17460470000515,261.24133150000125,261.2916234000004,261.2916234000004,261.2916234000004,261.2916234000004,261.3413434000104,261.3413434000104,261.3413434000104,left,0.4269303999899421,261.7917636000202,261.7917636000202,None,261.3413434000104,261.3413434000104,261.3413434000104,261.3413434000104,261.3413434000104,261.3413434000104,,12,001,2025-12-19_15h47.14.271,2025C_exp1_comp,2022.2.4,60.04732930534004,
42.7,45,-1,0,1,79,187,8,261.7917636000202,261.7917636000202,262.29238780000014,262.35900280001806,262.4094377000001,262.4094377000001,262.4094377000001,262.4094377000001,262.4592092000239,262.4592092000239,262.4592092000239,left,0.3809719999844674,262.85957750002854,262.85957750002854,None,262.4592092000239,262.4592092000239,262.4592092000239,262.4592092000239,262.4592092000239,262.4592092000239,,12,001,2025-12-19_15h47.14.271,2025C_exp1_comp,2022.2.4,60.04732930534004,
42.7,315,1,1,1,80,188,71,262.85957750002854,262.85957750002854,263.3601354000275,263.4268870000087,263.47715740001877,263.47715740001877,263.47715740001877,263.47715740001877,263.52692450000905,263.52692450000905,263.52692450000905,right,0.39325380002264865,263.944043400028,263.944043400028,None,263.52692450000905,263.52692450000905,263.52692450000905,263.52692450000905,263.52692450000905,263.52692450000905,,12,001,2025-12-19_15h47.14.271,2025C_exp1_comp,2022.2.4,60.04732930534004,
42.7,45,-1,1,1,81,189,44,263.944043400028,263.944043400028,264.4445539000153,264.511255600024,264.56171800001175,264.56171800001175,264.56171800001175,264.56171800001175,264.6114855000051,264.6114855000051,264.6114855000051,left,0.8358919000020251,265.47905310001806,265.47905310001806,None,264.6114855000051,264.6114855000051,264.6114855000051,264.6114855000051,264.6114855000051,264.6114855000051,,12,001,2025-12-19_15h47.14.271,2025C_exp1_comp,2022.2.4,60.04732930534004,
39.2,315,-1,1,1,82,190,52,265.47905310001806,265.47905310001806,265.97941970001557,266.04614040002343,266.096441200003,266.096441200003,266.096441200003,266.096441200003,266.1461315000197,266.1461315000197,266.1461315000197,left,0.6768990999844391,266.84667710002395,266.84667710002395,None,266.1461315000197,266.1461315000197,266.1461315000197,266.1461315000197,266.1461315000197,266.1461315000197,,12,001,2025-12-19_15h47.14.271,2025C_exp1_comp,2022.2.4,60.04732930534004,
22.7,315,-1,-1,1,83,191,84,266.84667710002395,266.84667710002395,267.34743780002464,267.41427530001965,267.4646376000019,267.4646376000019,267.4646376000019,267.4646376000019,267.51431000002776,267.51431000002776,267.51431000002776,right,0.47783449999406,268.0147979000176,268.0147979000176,None,267.51431000002776,267.51431000002776,267.51431000002776,267.51431000002776,267.51431000002776,267.51431000002776,,12,001,2025-12-19_15h47.14.271,2025C_exp1_comp,2022.2.4,60.04732930534004,
42.7,45,1,-1,1,84,192,98,268.0147979000176,268.0147979000176,268.51531490002526,268.5820186000201,268.63236250000773,268.63236250000773,268.63236250000773,268.63236250000773,268.68215610002517,268.68215610002517,268.68215610002517,right,0.4377834999759216,269.1492517000006,269.1492517000006,None,268.68215610002517,268.68215610002517,268.68215610002517,268.68215610002517,268.68215610002517,268.68215610002517,,12,001,2025-12-19_15h47.14.271,2025C_exp1_comp,2022.2.4,60.04732930534004,
42.7,315,-1,0,1,85,193,17,269.1492517000006,269.1492517000006,269.64975530002266,269.71643320002477,269.76660880001145,269.76660880001145,269.76660880001145,269.76660880001145,269.816423900018,269.816423900018,269.816423900018,right,1.5757626999984495,271.418215600017,271.418215600017,None,269.816423900018,269.816423900018,269.816423900018,269.816423900018,269.816423900018,269.816423900018,,12,001,2025-12-19_15h47.14.271,2025C_exp1_comp,2022.2.4,60.04732930534004,
19.6,45,-1,0,1,86,194,2,271.418215600017,271.418215600017,271.9187059000251,271.9852797000203,272.035712300014,272.035712300014,272.035712300014,272.035712300014,272.08538960001897,272.08538960001897,272.08538960001897,right,0.682732399989618,272.7862075000012,272.7862075000012,None,272.08538960001897,272.08538960001897,272.08538960001897,272.08538960001897,272.08538960001897,272.08538960001897,,12,001,2025-12-19_15h47.14.271,2025C_exp1_comp,2022.2.4,60.04732930534004,
12.1,315,-1,-1,1,87,195,81,272.7862075000012,272.7862075000012,273.28672660002485,273.3534985000151,273.4037748000119,273.4037748000119,273.4037748000119,273.4037748000119,273.4535620000097,273.4535620000097,273.4535620000097,right,0.45009729999583215,273.920689200022,273.920689200022,None,273.4535620000097,273.4535620000097,273.4535620000097,273.4535620000097,273.4535620000097,273.4535620000097,,12,001,2025-12-19_15h47.14.271,2025C_exp1_comp,2022.2.4,60.04732930534004,
15.7,45,1,0,1,88,196,19,273.920689200022,273.920689200022,274.4211325000215,274.488113600004,274.53841220002505,274.53841220002505,274.53841220002505,274.53841220002505,274.5882164000068,274.5882164000068,274.5882164000068,left,0.6426980999822263,275.2551197000139,275.2551197000139,None,274.5882164000068,274.5882164000068,274.5882164000068,274.5882164000068,274.5882164000068,274.5882164000068,,12,001,2025-12-19_15h47.14.271,2025C_exp1_comp,2022.2.4,60.04732930534004,
12.1,45,1,0,1,89,197,18,275.2551197000139,275.2551197000139,275.7558565000072,275.822601700027,275.87288060001447,275.87288060001447,275.87288060001447,275.87288060001447,275.9226778000011,275.9226778000011,275.9226778000011,left,0.3173675999860279,276.2563344000082,276.2563344000082,None,275.9226778000011,275.9226778000011,275.9226778000011,275.9226778000011,275.9226778000011,275.9226778000011,,12,001,2025-12-19_15h47.14.271,2025C_exp1_comp,2022.2.4,60.04732930534004,
19.6,45,1,1,1,90,198,56,276.2563344000082,276.2563344000082,276.75684960000217,276.8234698000015,276.87374500001897,276.87374500001897,276.87374500001897,276.87374500001897,276.9236998000124,276.9236998000124,276.9236998000124,left,0.3962442000047304,277.3407407000195,277.3407407000195,None,276.9236998000124,276.9236998000124,276.9236998000124,276.9236998000124,276.9236998000124,276.9236998000124,,12,001,2025-12-19_15h47.14.271,2025C_exp1_comp,2022.2.4,60.04732930534004,
42.7,45,1,1,1,91,199,62,277.3407407000195,277.3407407000195,277.8414007000101,277.90804210002534,277.9583282000094,277.9583282000094,277.9583282000094,277.9583282000094,278.0079905000166,278.0079905000166,278.0079905000166,right,0.5673826999845915,278.5920437000168,278.5920437000168,None,278.0079905000166,278.0079905000166,278.0079905000166,278.0079905000166,278.0079905000166,278.0079905000166,,12,001,2025-12-19_15h47.14.271,2025C_exp1_comp,2022.2.4,60.04732930534004,
29.4,45,-1,1,1,92,200,41,278.5920437000168,278.5920437000168,279.0925394000078,279.1591384000203,279.20956970000407,279.20956970000407,279.20956970000407,279.20956970000407,279.2592702000111,279.2592702000111,279.2592702000111,right,0.3643517000018619,279.6430089000205,279.6430089000205,None,279.2592702000111,279.2592702000111,279.2592702000111,279.2592702000111,279.2592702000111,279.2592702000111,,12,001,2025-12-19_15h47.14.271,2025C_exp1_comp,2022.2.4,60.04732930534004,
12.1,45,1,1,1,93,201,54,279.6430089000205,279.6430089000205,280.1436554000247,280.2101425000001,280.2605752000236,280.2605752000236,280.2605752000236,280.2605752000236,280.3103645000083,280.3103645000083,280.3103645000083,left,0.30549910000991076,280.6439457000233,280.6439457000233,None,280.3103645000083,280.3103645000083,280.3103645000083,280.3103645000083,280.3103645000083,280.3103645000083,,12,001,2025-12-19_15h47.14.271,2025C_exp1_comp,2022.2.4,60.04732930534004,
12.1,315,1,0,1,94,202,27,280.6439457000233,280.6439457000233,281.1445367000124,281.2111680000089,281.2615827000118,281.2615827000118,281.2615827000118,281.2615827000118,281.31135790000553,281.31135790000553,281.31135790000553,left,0.38374270001077093,281.71174950001296,281.71174950001296,None,281.31135790000553,281.31135790000553,281.31135790000553,281.31135790000553,281.31135790000553,281.31135790000553,,12,001,2025-12-19_15h47.14.271,2025C_exp1_comp,2022.2.4,60.04732930534004,
15.7,45,-1,1,1,95,203,37,281.71174950001296,281.71174950001296,282.21237870000186,282.2790734000155,282.32929070002865,282.32929070002865,282.32929070002865,282.32929070002865,282.37916050001513,282.37916050001513,282.37916050001513,right,0.3720679999969434,282.7795937000192,282.7795937000192,None,282.37916050001513,282.37916050001513,282.37916050001513,282.37916050001513,282.37916050001513,282.37916050001513,,12,001,2025-12-19_15h47.14.271,2025C_exp1_comp,2022.2.4,60.04732930534004,
29.4,45,1,0,1,96,204,23,282.7795937000192,282.7795937000192,283.2799965000013,283.34675940001034,283.39679010002874,283.39679010002874,283.39679010002874,283.39679010002874,283.4467733000056,283.4467733000056,283.4467733000056,left,0.28935829998226836,283.76384070000495,283.76384070000495,None,283.4467733000056,283.4467733000056,283.4467733000056,283.4467733000056,283.4467733000056,283.4467733000056,,12,001,2025-12-19_15h47.14.271,2025C_exp1_comp,2022.2.4,60.04732930534004,
25.5,315,-1,0,1,97,205,13,283.76384070000495,283.76384070000495,284.26433330000145,284.331055800023,284.381354800018,284.381354800018,284.381354800018,284.381354800018,284.4308644000266,284.4308644000266,284.4308644000266,right,0.43316200000117533,284.8818788000208,284.8818788000208,None,284.4308644000266,284.4308644000266,284.4308644000266,284.4308644000266,284.4308644000266,284.4308644000266,,12,001,2025-12-19_15h47.14.271,2025C_exp1_comp,2022.2.4,60.04732930534004,
