contrast,ori,side,precue,trials.thisRepN,trials.thisTrialN,trials.thisN,trials.thisIndex,fix1.started,fix2.started,precue_2.started,precue_2.stopped,left_grating.started,right_grating.started,noise_left2.started,noise_right2.started,fix1.stopped,fix2.stopped,left_grating.stopped,right_grating.stopped,noise_left2.stopped,noise_right2.stopped,key_resp.started,fix1_2.started,fix2_2.started,key_resp.keys,key_resp.rt,key_resp_2.started,break_text_2.started,key_resp_2.keys,key_resp_2.rt,participant,session,date,expName,psychopyVersion,frameRate,
39.2,315,1,1,0,0,0,70,40.578145499981474,40.578145499981474,41.048558999958914,41.11524809995899,41.200197500002105,41.200197500002105,41.200197500002105,41.200197500002105,41.23176589998184,41.23176589998184,41.23176589998184,41.23176589998184,41.23176589998184,41.23176589998184,41.24842159997206,41.24842159997206,41.24842159997206,right,2.0180447999737225,43.28402580000693,43.28402580000693,None,,13,001,2025-12-23_10h04.21.613,2025C_exp1_comp,2022.2.4,60.08431030268142,
15.7,315,1,1,0,1,1,64,43.28402580000693,43.28402580000693,43.78445979999378,43.851260799972806,43.90156869997736,43.90156869997736,43.90156869997736,43.90156869997736,43.95140399999218,43.95140399999218,43.95140399999218,43.95140399999218,43.95140399999218,43.95140399999218,43.95140399999218,43.95140399999218,43.95140399999218,left,1.4438490999746136,45.41931279998971,45.41931279998971,None,,13,001,2025-12-23_10h04.21.613,2025C_exp1_comp,2022.2.4,60.08431030268142,
35.3,315,1,1,0,2,2,69,45.41931279998971,45.41931279998971,45.920028499967884,45.98670639999909,46.03719770000316,46.03719770000316,46.03719770000316,46.03719770000316,46.086835799971595,46.086835799971595,46.086835799971595,46.086835799971595,46.086835799971595,46.086835799971595,46.086835799971595,46.086835799971595,46.086835799971595,left,1.2440186999738216,47.35473379999166,47.35473379999166,None,,13,001,2025-12-23_10h04.21.613,2025C_exp1_comp,2022.2.4,60.08431030268142,
25.5,315,-1,0,0,3,3,13,47.35473379999166,47.35473379999166,47.855376499996055,47.9220102999825,47.972320700006094,47.972320700006094,47.972320700006094,47.972320700006094,48.02201259997673,48.02201259997673,48.02201259997673,48.02201259997673,48.02201259997673,48.02201259997673,48.02201259997673,48.02201259997673,48.02201259997673,right,1.3730666000046767,49.42334919999121,49.42334919999121,None,,13,001,2025-12-23_10h04.21.613,2025C_exp1_comp,2022.2.4,60.08431030268142,
39.2,315,-1,-1,0,4,4,88,49.42334919999121,49.42334919999121,49.923728799971286,49.99070520000532,50.04095090000192,50.04095090000192,50.04095090000192,50.04095090000192,50.0905536999926,50.0905536999926,50.0905536999926,50.0905536999926,50.0905536999926,50.0905536999926,50.0905536999926,50.0905536999926,50.0905536999926,left,1.5043026000494137,51.625679999997374,51.625679999997374,None,,13,001,2025-12-23_10h04.21.613,2025C_exp1_comp,2022.2.4,60.08431030268142,
19.6,315,-1,1,0,5,5,47,51.625679999997374,51.625679999997374,52.126228099979926,52.192941099987365,52.243312300008256,52.243312300008256,52.243312300008256,52.243312300008256,52.29304889997002,52.29304889997002,52.29304889997002,52.29304889997002,52.29304889997002,52.29304889997002,52.29304889997002,52.29304889997002,52.29304889997002,right,27.501232799957506,79.82051970000612,79.82051970000612,None,,13,001,2025-12-23_10h04.21.613,2025C_exp1_comp,2022.2.4,60.08431030268142,
22.7,45,1,0,0,6,6,21,79.82051970000612,79.82051970000612,80.3208403000026,80.38747279997915,80.43775539996568,80.43775539996568,80.43775539996568,80.43775539996568,80.4875619999948,80.4875619999948,80.4875619999948,80.4875619999948,80.4875619999948,80.4875619999948,80.4875619999948,80.4875619999948,80.4875619999948,left,1.123072000045795,81.63917009998113,81.63917009998113,None,,13,001,2025-12-23_10h04.21.613,2025C_exp1_comp,2022.2.4,60.08431030268142,
25.5,45,-1,-1,0,7,7,76,81.63917009998113,81.63917009998113,82.13931900000898,82.20602109999163,82.25629930000287,82.25629930000287,82.25629930000287,82.25629930000287,82.30611689999932,82.30611689999932,82.30611689999932,82.30611689999932,82.30611689999932,82.30611689999932,82.30611689999932,82.30611689999932,82.30611689999932,left,1.7446512000169605,84.07475309999427,84.07475309999427,None,,13,001,2025-12-23_10h04.21.613,2025C_exp1_comp,2022.2.4,60.08431030268142,
22.7,315,-1,0,0,8,8,12,84.07475309999427,84.07475309999427,84.57500819995767,84.64202819997445,84.69232749997173,84.69232749997173,84.69232749997173,84.69232749997173,84.74212189996615,84.74212189996615,84.74212189996615,84.74212189996615,84.74212189996615,84.74212189996615,84.74212189996615,84.74212189996615,84.74212189996615,right,0.7484541999874637,85.50947150000138,85.50947150000138,None,,13,001,2025-12-23_10h04.21.613,2025C_exp1_comp,2022.2.4,60.08431030268142,
19.6,315,-1,0,0,9,9,11,85.50947150000138,85.50947150000138,86.01002549997065,86.07675830001244,86.12704980000854,86.12704980000854,86.12704980000854,86.12704980000854,86.17687109997496,86.17687109997496,86.17687109997496,86.17687109997496,86.17687109997496,86.17687109997496,86.17687109997496,86.17687109997496,86.17687109997496,right,0.7064230000250973,86.91084179998143,86.91084179998143,None,,13,001,2025-12-23_10h04.21.613,2025C_exp1_comp,2022.2.4,60.08431030268142,
15.7,315,-1,-1,0,10,10,82,86.91084179998143,86.91084179998143,87.41137609997531,87.47815300000366,87.52819459995953,87.52819459995953,87.52819459995953,87.52819459995953,87.57804559997749,87.57804559997749,87.57804559997749,87.57804559997749,87.57804559997749,87.57804559997749,87.57804559997749,87.57804559997749,87.57804559997749,right,0.7520190000068396,88.36226369999349,88.36226369999349,None,,13,001,2025-12-23_10h04.21.613,2025C_exp1_comp,2022.2.4,60.08431030268142,
15.7,45,1,1,0,11,11,55,88.36226369999349,88.36226369999349,88.86265369999455,88.9294843999669,88.97990019997815,88.97990019997815,88.97990019997815,88.97990019997815,89.02966609998839,89.02966609998839,89.02966609998839,89.02966609998839,89.02966609998839,89.02966609998839,89.02966609998839,89.02966609998839,89.02966609998839,left,0.7010225999983959,89.74694360001013,89.74694360001013,None,,13,001,2025-12-23_10h04.21.613,2025C_exp1_comp,2022.2.4,60.08431030268142,
35.3,45,1,-1,0,12,12,96,89.74694360001013,89.74694360001013,90.24743290001061,90.31430789997103,90.36460059997626,90.36460059997626,90.36460059997626,90.36460059997626,90.41431819996797,90.41431819996797,90.41431819996797,90.41431819996797,90.41431819996797,90.41431819996797,90.41431819996797,90.41431819996797,90.41431819996797,right,1.5167647000052966,91.94929929997306,91.94929929997306,None,,13,001,2025-12-23_10h04.21.613,2025C_exp1_comp,2022.2.4,60.08431030268142,
39.2,45,1,1,0,13,13,61,91.94929929997306,91.94929929997306,92.44979399995646,92.51653099997202,92.56682479998562,92.56682479998562,92.56682479998562,92.56682479998562,92.61653579998529,92.61653579998529,92.61653579998529,92.61653579998529,92.61653579998529,92.61653579998529,92.61653579998529,92.61653579998529,92.61653579998529,left,0.5460590000147931,93.18353300000308,93.18353300000308,None,,13,001,2025-12-23_10h04.21.613,2025C_exp1_comp,2022.2.4,60.08431030268142,
42.7,315,-1,-1,0,14,14,89,93.18353300000308,93.18353300000308,93.68407089996617,93.75079859996913,93.80119619995821,93.80119619995821,93.80119619995821,93.80119619995821,93.85091269999975,93.85091269999975,93.85091269999975,93.85091269999975,93.85091269999975,93.85091269999975,93.85091269999975,93.85091269999975,93.85091269999975,left,0.47990330000175163,94.35169049998512,94.35169049998512,None,,13,001,2025-12-23_10h04.21.613,2025C_exp1_comp,2022.2.4,60.08431030268142,
42.7,315,1,-1,0,15,15,107,94.35169049998512,94.35169049998512,94.85210199997528,94.91894120001234,94.96910539997043,94.96910539997043,94.96910539997043,94.96910539997043,95.01902919996064,95.01902919996064,95.01902919996064,95.01902919996064,95.01902919996064,95.01902919996064,95.01902919996064,95.01902919996064,95.01902919996064,left,0.8794003999792039,95.91975880000973,95.91975880000973,None,,13,001,2025-12-23_10h04.21.613,2025C_exp1_comp,2022.2.4,60.08431030268142,
12.1,45,1,0,0,16,16,18,95.91975880000973,95.91975880000973,96.42029479995836,96.48716909997165,96.53762719995575,96.53762719995575,96.53762719995575,96.53762719995575,96.58725290000439,96.58725290000439,96.58725290000439,96.58725290000439,96.58725290000439,96.58725290000439,96.58725290000439,96.58725290000439,96.58725290000439,left,0.5756901999702677,97.18772990000434,97.18772990000434,None,,13,001,2025-12-23_10h04.21.613,2025C_exp1_comp,2022.2.4,60.08431030268142,
19.6,45,-1,1,0,17,17,38,97.18772990000434,97.18772990000434,97.68826799996896,97.75487959996099,97.80520529998466,97.80520529998466,97.80520529998466,97.80520529998466,97.85505589999957,97.85505589999957,97.85505589999957,97.85505589999957,97.85505589999957,97.85505589999957,97.85505589999957,97.85505589999957,97.85505589999957,right,0.6679113000282086,98.53928309999174,98.53928309999174,None,,13,001,2025-12-23_10h04.21.613,2025C_exp1_comp,2022.2.4,60.08431030268142,
35.3,315,1,0,0,18,18,33,98.53928309999174,98.53928309999174,99.03979359997902,99.1063773999922,99.15680210001301,99.15680210001301,99.15680210001301,99.15680210001301,99.20650540001225,99.20650540001225,99.20650540001225,99.20650540001225,99.20650540001225,99.20650540001225,99.20650540001225,99.20650540001225,99.20650540001225,left,1.8601196000236087,101.09168029995635,101.09168029995635,None,,13,001,2025-12-23_10h04.21.613,2025C_exp1_comp,2022.2.4,60.08431030268142,
42.7,45,-1,0,0,19,19,8,101.09168029995635,101.09168029995635,101.59233740001218,101.65904030000092,101.70938159996876,101.70938159996876,101.70938159996876,101.70938159996876,101.75912359997164,101.75912359997164,101.75912359997164,101.75912359997164,101.75912359997164,101.75912359997164,101.75912359997164,101.75912359997164,101.75912359997164,left,0.5318949000211433,102.30934699997306,102.30934699997306,None,,13,001,2025-12-23_10h04.21.613,2025C_exp1_comp,2022.2.4,60.08431030268142,
15.7,315,1,-1,0,20,20,100,102.30934699997306,102.30934699997306,102.81026140000904,102.87690079997992,102.92718349996721,102.92718349996721,102.92718349996721,102.92718349996721,102.97707299998729,102.97707299998729,102.97707299998729,102.97707299998729,102.97707299998729,102.97707299998729,102.97707299998729,102.97707299998729,102.97707299998729,left,0.49013429996557534,103.49398219998693,103.49398219998693,None,,13,001,2025-12-23_10h04.21.613,2025C_exp1_comp,2022.2.4,60.08431030268142,
15.7,45,1,-1,0,21,21,91,103.49398219998693,103.49398219998693,103.99469630001113,104.06146669998998,104.11181299999589,104.11181299999589,104.11181299999589,104.11181299999589,104.16121089999797,104.16121089999797,104.16121089999797,104.16121089999797,104.16121089999797,104.16121089999797,104.16121089999797,104.16121089999797,104.16121089999797,left,0.489125200023409,104.67848629999207,104.67848629999207,None,,13,001,2025-12-23_10h04.21.613,2025C_exp1_comp,2022.2.4,60.08431030268142,
12.1,315,1,1,0,22,22,63,104.67848629999207,104.67848629999207,105.1790349999792,105.24585329997353,105.29622660001041,105.29622660001041,105.29622660001041,105.29622660001041,105.34608519996982,105.34608519996982,105.34608519996982,105.34608519996982,105.34608519996982,105.34608519996982,105.34608519996982,105.34608519996982,105.34608519996982,left,0.5368737000389956,105.91351609997218,105.91351609997218,None,,13,001,2025-12-23_10h04.21.613,2025C_exp1_comp,2022.2.4,60.08431030268142,
22.7,315,1,-1,0,23,23,102,105.91351609997218,105.91351609997218,106.41347779997159,106.48100879997946,106.53048710001167,106.53048710001167,106.53048710001167,106.53048710001167,106.58086439996259,106.58086439996259,106.58086439996259,106.58086439996259,106.58086439996259,106.58086439996259,106.58086439996259,106.58086439996259,106.58086439996259,left,0.7573769000009634,107.36528480000561,107.36528480000561,None,,13,001,2025-12-23_10h04.21.613,2025C_exp1_comp,2022.2.4,60.08431030268142,
29.4,45,-1,1,0,24,24,41,107.36528480000561,107.36528480000561,107.86562309996225,107.93172329996014,107.98212689999491,107.98212689999491,107.98212689999491,107.98212689999491,108.03203389997361,108.03203389997361,108.03203389997361,108.03203389997361,108.03203389997361,108.03203389997361,108.03203389997361,108.03203389997361,108.03203389997361,right,0.8980724000139162,108.94961750000948,108.94961750000948,None,,13,001,2025-12-23_10h04.21.613,2025C_exp1_comp,2022.2.4,60.08431030268142,
29.4,315,1,-1,0,25,25,104,108.94961750000948,108.94961750000948,109.44977720000315,109.51650299999164,109.56685489998199,109.56685489998199,109.56685489998199,109.56685489998199,109.61665679997532,109.61665679997532,109.61665679997532,109.61665679997532,109.61665679997532,109.61665679997532,109.61665679997532,109.61665679997532,109.61665679997532,left,0.4663035999983549,110.10063309996622,110.10063309996622,None,,13,001,2025-12-23_10h04.21.613,2025C_exp1_comp,2022.2.4,60.08431030268142,
19.6,315,-1,-1,0,26,26,83,110.10063309996622,110.10063309996622,110.60117089998676,110.66798339999514,110.71819949999917,110.71819949999917,110.71819949999917,110.71819949999917,110.76810899999691,110.76810899999691,110.76810899999691,110.76810899999691,110.76810899999691,110.76810899999691,110.76810899999691,110.76810899999691,110.76810899999691,right,0.5548777999938466,111.35189509997144,111.35189509997144,None,,13,001,2025-12-23_10h04.21.613,2025C_exp1_comp,2022.2.4,60.08431030268142,
12.1,45,-1,0,0,27,27,0,111.35189509997144,111.35189509997144,111.85237239999697,111.91901429998688,111.9695165999583,111.9695165999583,111.9695165999583,111.9695165999583,112.01915589999408,112.01915589999408,112.01915589999408,112.01915589999408,112.01915589999408,112.01915589999408,112.01915589999408,112.01915589999408,112.01915589999408,right,0.5193804000155069,112.57012859999668,112.57012859999668,None,,13,001,2025-12-23_10h04.21.613,2025C_exp1_comp,2022.2.4,60.08431030268142,
12.1,315,-1,-1,0,28,28,81,112.57012859999668,112.57012859999668,113.07029999996303,113.13689419999719,113.1871369999717,113.1871369999717,113.1871369999717,113.1871369999717,113.23697709996486,113.23697709996486,113.23697709996486,113.23697709996486,113.23697709996486,113.23697709996486,113.23697709996486,113.23697709996486,113.23697709996486,right,0.4775056999642402,113.73746589996153,113.73746589996153,None,,13,001,2025-12-23_10h04.21.613,2025C_exp1_comp,2022.2.4,60.08431030268142,
19.6,45,-1,0,0,29,29,2,113.73746589996153,113.73746589996153,114.23802990000695,114.3047588999616,114.35553880000953,114.35553880000953,114.35553880000953,114.35553880000953,114.40476639999542,114.40476639999542,114.40476639999542,114.40476639999542,114.40476639999542,114.40476639999542,114.40476639999542,114.40476639999542,114.40476639999542,right,0.45354900002712384,114.88872479996644,114.88872479996644,None,,13,001,2025-12-23_10h04.21.613,2025C_exp1_comp,2022.2.4,60.08431030268142,
39.2,315,1,-1,0,30,30,106,114.88872479996644,114.88872479996644,115.38928249996388,115.45587589999195,115.50615219998872,115.50615219998872,115.50615219998872,115.50615219998872,115.55594039999414,115.55594039999414,115.55594039999414,115.55594039999414,115.55594039999414,115.55594039999414,115.55594039999414,115.55594039999414,115.55594039999414,right,0.423042600043118,116.0064371000044,116.0064371000044,None,,13,001,2025-12-23_10h04.21.613,2025C_exp1_comp,2022.2.4,60.08431030268142,
35.3,45,1,0,0,31,31,24,116.0064371000044,116.0064371000044,116.50689019996207,116.57366789999651,116.6240170999663,116.6240170999663,116.6240170999663,116.6240170999663,116.67379139998229,116.67379139998229,116.67379139998229,116.67379139998229,116.67379139998229,116.67379139998229,116.67379139998229,116.67379139998229,116.67379139998229,left,1.0974925000336953,117.79165889997967,117.79165889997967,None,,13,001,2025-12-23_10h04.21.613,2025C_exp1_comp,2022.2.4,60.08431030268142,
35.3,315,-1,0,0,32,32,15,117.79165889997967,117.79165889997967,118.2924733000109,118.35916469997028,118.40931319998344,118.40931319998344,118.40931319998344,118.40931319998344,118.45902059995569,118.45902059995569,118.45902059995569,118.45902059995569,118.45902059995569,118.45902059995569,118.45902059995569,118.45902059995569,118.45902059995569,left,0.9913197999703698,119.4765694999951,119.4765694999951,None,,13,001,2025-12-23_10h04.21.613,2025C_exp1_comp,2022.2.4,60.08431030268142,
29.4,315,1,0,0,33,33,32,119.4765694999951,119.4765694999951,119.97746999998344,120.04399380000541,120.09428979997756,120.09428979997756,120.09428979997756,120.09428979997756,120.14400969998678,120.14400969998678,120.14400969998678,120.14400969998678,120.14400969998678,120.14400969998678,120.14400969998678,120.14400969998678,120.14400969998678,left,0.8666614000103436,121.02830609999364,121.02830609999364,None,,13,001,2025-12-23_10h04.21.613,2025C_exp1_comp,2022.2.4,60.08431030268142,
35.3,45,-1,0,0,34,34,6,121.02830609999364,121.02830609999364,121.52880819997517,121.59554670000216,121.6458835999947,121.6458835999947,121.6458835999947,121.6458835999947,121.69551920000231,121.69551920000231,121.69551920000231,121.69551920000231,121.69551920000231,121.69551920000231,121.69551920000231,121.69551920000231,121.69551920000231,left,0.6833616999792866,122.39631169999484,122.39631169999484,None,,13,001,2025-12-23_10h04.21.613,2025C_exp1_comp,2022.2.4,60.08431030268142,
42.7,315,1,1,0,35,35,71,122.39631169999484,122.39631169999484,122.89690859999973,122.96327830001246,123.0139186999877,123.0139186999877,123.0139186999877,123.0139186999877,123.06373110000277,123.06373110000277,123.06373110000277,123.06373110000277,123.06373110000277,123.06373110000277,123.06373110000277,123.06373110000277,123.06373110000277,right,0.6906404999899678,123.78108159999829,123.78108159999829,None,,13,001,2025-12-23_10h04.21.613,2025C_exp1_comp,2022.2.4,60.08431030268142,
35.3,315,-1,1,0,36,36,51,123.78108159999829,123.78108159999829,124.28147980000358,124.34833949996391,124.39862180000637,124.39862180000637,124.39862180000637,124.39862180000637,124.44844139995985,124.44844139995985,124.44844139995985,124.44844139995985,124.44844139995985,124.44844139995985,124.44844139995985,124.44844139995985,124.44844139995985,right,0.6747446999652311,125.15492299996549,125.15492299996549,None,,13,001,2025-12-23_10h04.21.613,2025C_exp1_comp,2022.2.4,60.08431030268142,
35.3,45,-1,-1,0,37,37,78,125.15492299996549,125.15492299996549,125.6496155000059,125.71634199999971,125.76638290000847,125.76638290000847,125.76638290000847,125.76638290000847,125.81624769995688,125.81624769995688,125.81624769995688,125.81624769995688,125.81624769995688,125.81624769995688,125.8329835999757,125.8329835999757,125.8329835999757,right,0.698195900011342,126.55065309995553,126.55065309995553,None,,13,001,2025-12-23_10h04.21.613,2025C_exp1_comp,2022.2.4,60.08431030268142,
29.4,45,-1,-1,0,38,38,77,126.55065309995553,126.55065309995553,127.05099709995557,127.11742199998116,127.16797849995783,127.16797849995783,127.16797849995783,127.16797849995783,127.2178358999663,127.2178358999663,127.2178358999663,127.2178358999663,127.2178358999663,127.2178358999663,127.2178358999663,127.2178358999663,127.2178358999663,right,0.7611954999738373,128.00189549999777,128.00189549999777,None,,13,001,2025-12-23_10h04.21.613,2025C_exp1_comp,2022.2.4,60.08431030268142,
29.4,315,1,1,0,39,39,68,128.00189549999777,128.00189549999777,128.50261949998094,128.569308599981,128.61973789997865,128.61973789997865,128.61973789997865,128.61973789997865,128.6690011000028,128.6690011000028,128.6690011000028,128.6690011000028,128.6690011000028,128.6690011000028,128.6690011000028,128.6690011000028,128.6690011000028,left,1.270435299957171,129.97074079996673,129.97074079996673,None,,13,001,2025-12-23_10h04.21.613,2025C_exp1_comp,2022.2.4,60.08431030268142,
42.7,45,1,-1,0,40,40,98,129.97074079996673,129.97074079996673,130.4711188999936,130.5378464999958,130.58816139999544,130.58816139999544,130.58816139999544,130.58816139999544,130.63781089999247,130.63781089999247,130.63781089999247,130.63781089999247,130.63781089999247,130.63781089999247,130.63781089999247,130.63781089999247,130.63781089999247,left,1.476569099992048,132.13945869996678,132.13945869996678,None,,13,001,2025-12-23_10h04.21.613,2025C_exp1_comp,2022.2.4,60.08431030268142,
12.1,45,1,1,0,41,41,54,132.13945869996678,132.13945869996678,132.6398275999818,132.70669219997944,132.75680919998558,132.75680919998558,132.75680919998558,132.75680919998558,132.80669429997215,132.80669429997215,132.80669429997215,132.80669429997215,132.80669429997215,132.80669429997215,132.80669429997215,132.80669429997215,132.80669429997215,left,0.6123254999984056,133.44065709999995,133.44065709999995,None,,13,001,2025-12-23_10h04.21.613,2025C_exp1_comp,2022.2.4,60.08431030268142,
19.6,315,1,1,0,42,42,65,133.44065709999995,133.44065709999995,133.9412822999875,134.00788300001295,134.058223799977,134.058223799977,134.058223799977,134.058223799977,134.1080757000018,134.1080757000018,134.1080757000018,134.1080757000018,134.1080757000018,134.1080757000018,134.1080757000018,134.1080757000018,134.1080757000018,left,1.1354735000059009,135.2757530999952,135.2757530999952,None,,13,001,2025-12-23_10h04.21.613,2025C_exp1_comp,2022.2.4,60.08431030268142,
42.7,315,1,0,0,43,43,35,135.2757530999952,135.2757530999952,135.7762148999609,135.84296769998036,135.89324659999693,135.89324659999693,135.89324659999693,135.89324659999693,135.94321519997902,135.94321519997902,135.94321519997902,135.94321519997902,135.94321519997902,135.94321519997902,135.94321519997902,135.94321519997902,135.94321519997902,left,1.1240886999876238,137.0945279999869,137.0945279999869,None,,13,001,2025-12-23_10h04.21.613,2025C_exp1_comp,2022.2.4,60.08431030268142,
22.7,315,1,1,0,44,44,66,137.0945279999869,137.0945279999869,137.59492689999752,137.66161999996984,137.71184479998192,137.71184479998192,137.71184479998192,137.71184479998192,137.7617339999997,137.7617339999997,137.7617339999997,137.7617339999997,137.7617339999997,137.7617339999997,137.7617339999997,137.7617339999997,137.7617339999997,left,0.5365277999662794,138.32874759996776,138.32874759996776,None,,13,001,2025-12-23_10h04.21.613,2025C_exp1_comp,2022.2.4,60.08431030268142,
42.7,45,1,1,0,45,45,62,138.32874759996776,138.32874759996776,138.8292690999806,138.89591239998117,138.9464637999772,138.9464637999772,138.9464637999772,138.9464637999772,138.99619460001122,138.99619460001122,138.99619460001122,138.99619460001122,138.99619460001122,138.99619460001122,138.99619460001122,138.99619460001122,138.99619460001122,right,0.7267108000232838,139.74689159996342,139.74689159996342,None,,13,001,2025-12-23_10h04.21.613,2025C_exp1_comp,2022.2.4,60.08431030268142,
39.2,315,-1,0,0,46,46,16,139.74689159996342,139.74689159996342,140.24768149998272,140.31424049998168,140.3647313999827,140.3647313999827,140.3647313999827,140.3647313999827,140.41451619996224,140.41451619996224,140.41451619996224,140.41451619996224,140.41451619996224,140.41451619996224,140.41451619996224,140.41451619996224,140.41451619996224,left,0.7238037000061013,141.16509879997466,141.16509879997466,None,,13,001,2025-12-23_10h04.21.613,2025C_exp1_comp,2022.2.4,60.08431030268142,
19.6,315,1,0,0,47,47,29,141.16509879997466,141.16509879997466,141.66547639999771,141.7323558999924,141.78254399995785,141.78254399995785,141.78254399995785,141.78254399995785,141.83231899997918,141.83231899997918,141.83231899997918,141.83231899997918,141.83231899997918,141.83231899997918,141.83231899997918,141.83231899997918,141.83231899997918,left,0.699147199979052,142.54981629998656,142.54981629998656,None,,13,001,2025-12-23_10h04.21.613,2025C_exp1_comp,2022.2.4,60.08431030268142,
39.2,45,1,0,0,48,48,25,142.54981629998656,142.54981629998656,143.05017800000496,143.11696169996867,143.1674129999592,143.1674129999592,143.1674129999592,143.1674129999592,143.21716489997925,143.21716489997925,143.21716489997925,143.21716489997925,143.21716489997925,143.21716489997925,143.21716489997925,143.21716489997925,143.21716489997925,left,1.1451938000391237,144.3849937999621,144.3849937999621,None,,13,001,2025-12-23_10h04.21.613,2025C_exp1_comp,2022.2.4,60.08431030268142,
35.3,45,1,1,0,49,49,60,144.3849937999621,144.3849937999621,144.88553139998112,144.95199699996738,145.00239959999453,145.00239959999453,145.00239959999453,145.00239959999453,145.05235760001233,145.05235760001233,145.05235760001233,145.05235760001233,145.05235760001233,145.05235760001233,145.05235760001233,145.05235760001233,145.05235760001233,right,0.7112802999909036,145.7861050000065,145.7861050000065,None,,13,001,2025-12-23_10h04.21.613,2025C_exp1_comp,2022.2.4,60.08431030268142,
12.1,315,1,0,0,50,50,27,145.7861050000065,145.7861050000065,146.28695400001016,146.35364459996345,146.40395010000793,146.40395010000793,146.40395010000793,146.40395010000793,146.45374510000693,146.45374510000693,146.45374510000693,146.45374510000693,146.45374510000693,146.45374510000693,146.45374510000693,146.45374510000693,146.45374510000693,left,0.4292739999946207,146.90417689998867,146.90417689998867,None,,13,001,2025-12-23_10h04.21.613,2025C_exp1_comp,2022.2.4,60.08431030268142,
19.6,45,-1,-1,0,51,51,74,146.90417689998867,146.90417689998867,147.4045177999651,147.47139229997993,147.52172689995496,147.52172689995496,147.52172689995496,147.52172689995496,147.57153739995556,147.57153739995556,147.57153739995556,147.57153739995556,147.57153739995556,147.57153739995556,147.57153739995556,147.57153739995556,147.57153739995556,right,0.5751398999709636,148.17212429997744,148.17212429997744,None,,13,001,2025-12-23_10h04.21.613,2025C_exp1_comp,2022.2.4,60.08431030268142,
29.4,45,1,-1,0,52,52,95,148.17212429997744,148.17212429997744,148.67270429997006,148.73937520000618,148.7895563999773,148.7895563999773,148.7895563999773,148.7895563999773,148.83939759997884,148.83939759997884,148.83939759997884,148.83939759997884,148.83939759997884,148.83939759997884,148.83939759997884,148.83939759997884,148.83939759997884,left,0.5068839999730699,149.37336339999456,149.37336339999456,None,,13,001,2025-12-23_10h04.21.613,2025C_exp1_comp,2022.2.4,60.08431030268142,
25.5,315,1,0,0,53,53,31,149.37336339999456,149.37336339999456,149.87383659998886,149.94059730001027,149.99091910000425,149.99091910000425,149.99091910000425,149.99091910000425,150.04065019998234,150.04065019998234,150.04065019998234,150.04065019998234,150.04065019998234,150.04065019998234,150.04065019998234,150.04065019998234,150.04065019998234,left,0.7853756999829784,150.85813939996297,150.85813939996297,None,,13,001,2025-12-23_10h04.21.613,2025C_exp1_comp,2022.2.4,60.08431030268142,
12.1,45,1,-1,0,54,54,90,150.85813939996297,150.85813939996297,151.35877019999316,151.42534109996632,151.47577109996928,151.47577109996928,151.47577109996928,151.47577109996928,151.52545129996724,151.52545129996724,151.52545129996724,151.52545129996724,151.52545129996724,151.52545129996724,151.52545129996724,151.52545129996724,151.52545129996724,left,0.5569928999757394,152.10926050000126,152.10926050000126,None,,13,001,2025-12-23_10h04.21.613,2025C_exp1_comp,2022.2.4,60.08431030268142,
15.7,315,-1,0,0,55,55,10,152.10926050000126,152.10926050000126,152.60991870000726,152.67659479996655,152.7267831999925,152.7267831999925,152.7267831999925,152.7267831999925,152.77670659997966,152.77670659997966,152.77670659997966,152.77670659997966,152.77670659997966,152.77670659997966,152.77670659997966,152.77670659997966,152.77670659997966,right,0.5777691000257619,153.37743250001222,153.37743250001222,None,,13,001,2025-12-23_10h04.21.613,2025C_exp1_comp,2022.2.4,60.08431030268142,
12.1,315,-1,0,0,56,56,9,153.37743250001222,153.37743250001222,153.8776560999686,153.9442582000047,153.99485799996182,153.99485799996182,153.99485799996182,153.99485799996182,154.04466269997647,154.04466269997647,154.04466269997647,154.04466269997647,154.04466269997647,154.04466269997647,154.04466269997647,154.04466269997647,154.04466269997647,right,0.44647209998220205,154.5119197999593,154.5119197999593,None,,13,001,2025-12-23_10h04.21.613,2025C_exp1_comp,2022.2.4,60.08431030268142,
39.2,45,-1,-1,0,57,57,79,154.5119197999593,154.5119197999593,155.01257349998923,155.07914240000537,155.1295773999882,155.1295773999882,155.1295773999882,155.1295773999882,155.1792256999761,155.1792256999761,155.1792256999761,155.1792256999761,155.1792256999761,155.1792256999761,155.1792256999761,155.1792256999761,155.1792256999761,left,0.4552006999729201,155.6628880999633,155.6628880999633,None,,13,001,2025-12-23_10h04.21.613,2025C_exp1_comp,2022.2.4,60.08431030268142,
29.4,45,-1,0,0,58,58,5,155.6628880999633,155.6628880999633,156.16346059995703,156.22985199996037,156.2804027000093,156.2804027000093,156.2804027000093,156.2804027000093,156.33029349998105,156.33029349998105,156.33029349998105,156.33029349998105,156.33029349998105,156.33029349998105,156.33029349998105,156.33029349998105,156.33029349998105,left,1.2642990000313148,157.61483829998178,157.61483829998178,None,,13,001,2025-12-23_10h04.21.613,2025C_exp1_comp,2022.2.4,60.08431030268142,
22.7,315,1,0,0,59,59,30,157.61483829998178,157.61483829998178,158.11544399999548,158.18228289997205,158.2325304999831,158.2325304999831,158.2325304999831,158.2325304999831,158.28204759996152,158.28204759996152,158.28204759996152,158.28204759996152,158.28204759996152,158.28204759996152,158.28204759996152,158.28204759996152,158.28204759996152,left,0.5365501999622211,158.8492227999959,158.8492227999959,None,,13,001,2025-12-23_10h04.21.613,2025C_exp1_comp,2022.2.4,60.08431030268142,
25.5,45,1,-1,0,60,60,94,158.8492227999959,158.8492227999959,159.350042200007,159.41663930000504,159.4671662999899,159.4671662999899,159.4671662999899,159.4671662999899,159.5167615999817,159.5167615999817,159.5167615999817,159.5167615999817,159.5167615999817,159.5167615999817,159.5167615999817,159.5167615999817,159.5167615999817,left,0.4620903000468388,160.00059159996454,160.00059159996454,None,,13,001,2025-12-23_10h04.21.613,2025C_exp1_comp,2022.2.4,60.08431030268142,
39.2,45,-1,0,0,61,61,7,160.00059159996454,160.00059159996454,160.50111979997018,160.56772709998768,160.6182003999711,160.6182003999711,160.6182003999711,160.6182003999711,160.66793599998346,160.66793599998346,160.66793599998346,160.66793599998346,160.66793599998346,160.66793599998346,160.66793599998346,160.66793599998346,160.66793599998346,left,0.511028399982024,161.20177369995508,161.20177369995508,None,,13,001,2025-12-23_10h04.21.613,2025C_exp1_comp,2022.2.4,60.08431030268142,
25.5,45,1,0,0,62,62,22,161.20177369995508,161.20177369995508,161.70229489996564,161.76903869997477,161.8191657999996,161.8191657999996,161.8191657999996,161.8191657999996,161.86896419996629,161.86896419996629,161.86896419996629,161.86896419996629,161.86896419996629,161.86896419996629,161.86896419996629,161.86896419996629,161.86896419996629,right,0.48629209998762235,162.38629349996336,162.38629349996336,None,,13,001,2025-12-23_10h04.21.613,2025C_exp1_comp,2022.2.4,60.08431030268142,
12.1,315,-1,1,0,63,63,45,162.38629349996336,162.38629349996336,162.88685000000987,162.9534579999745,163.00376260001212,163.00376260001212,163.00376260001212,163.00376260001212,163.05366899998626,163.05366899998626,163.05366899998626,163.05366899998626,163.05366899998626,163.05366899998626,163.05366899998626,163.05366899998626,163.05366899998626,right,0.5005928999744356,163.57079699996393,163.57079699996393,None,,13,001,2025-12-23_10h04.21.613,2025C_exp1_comp,2022.2.4,60.08431030268142,
19.6,315,1,-1,0,64,64,101,163.57079699996393,163.57079699996393,164.07132599997567,164.1380579000106,164.1882806000067,164.1882806000067,164.1882806000067,164.1882806000067,164.2381674000062,164.2381674000062,164.2381674000062,164.2381674000062,164.2381674000062,164.2381674000062,164.2381674000062,164.2381674000062,164.2381674000062,right,0.9643707000068389,165.22248039999977,165.22248039999977,None,,13,001,2025-12-23_10h04.21.613,2025C_exp1_comp,2022.2.4,60.08431030268142,
22.7,45,-1,1,0,65,65,39,165.22248039999977,165.22248039999977,165.72283340001013,165.7897092999774,165.8399056000053,165.8399056000053,165.8399056000053,165.8399056000053,165.8896368999849,165.8896368999849,165.8896368999849,165.8896368999849,165.8896368999849,165.8896368999849,165.8896368999849,165.8896368999849,165.8896368999849,right,0.4497335000196472,166.3568495999789,166.3568495999789,None,,13,001,2025-12-23_10h04.21.613,2025C_exp1_comp,2022.2.4,60.08431030268142,
29.4,45,1,1,0,66,66,59,166.3568495999789,166.3568495999789,166.85750689997803,166.9241033999715,166.97454139997717,166.97454139997717,166.97454139997717,166.97454139997717,167.02431619999697,167.02431619999697,167.02431619999697,167.02431619999697,167.02431619999697,167.02431619999697,167.02431619999697,167.02431619999697,167.02431619999697,left,1.2503425999893807,168.29202589998022,168.29202589998022,None,,13,001,2025-12-23_10h04.21.613,2025C_exp1_comp,2022.2.4,60.08431030268142,
22.7,315,-1,1,0,67,67,48,168.29202589998022,168.29202589998022,168.79271949996473,168.85950679995585,168.9097213000059,168.9097213000059,168.9097213000059,168.9097213000059,168.95965430000797,168.95965430000797,168.95965430000797,168.95965430000797,168.95965430000797,168.95965430000797,168.95965430000797,168.95965430000797,168.95965430000797,right,0.4751164999906905,169.45979399996577,169.45979399996577,None,,13,001,2025-12-23_10h04.21.613,2025C_exp1_comp,2022.2.4,60.08431030268142,
35.3,45,-1,1,0,68,68,42,169.45979399996577,169.45979399996577,169.9605467999936,170.02740949997678,170.07772559998557,170.07772559998557,170.07772559998557,170.07772559998557,170.12738739995984,170.12738739995984,170.12738739995984,170.12738739995984,170.12738739995984,170.12738739995984,170.12738739995984,170.12738739995984,170.12738739995984,left,1.7955102000269108,171.9456901999656,171.9456901999656,None,,13,001,2025-12-23_10h04.21.613,2025C_exp1_comp,2022.2.4,60.08431030268142,
39.2,315,-1,1,0,69,69,52,171.9456901999656,171.9456901999656,172.4464935999713,172.51324309996562,172.5634168999968,172.5634168999968,172.5634168999968,172.5634168999968,172.61327869998058,172.61327869998058,172.61327869998058,172.61327869998058,172.61327869998058,172.61327869998058,172.61327869998058,172.61327869998058,172.61327869998058,right,0.9572586999856867,173.5974586000084,173.5974586000084,None,,13,001,2025-12-23_10h04.21.613,2025C_exp1_comp,2022.2.4,60.08431030268142,
22.7,45,1,-1,0,70,70,93,173.5974586000084,173.5974586000084,174.0980649999692,174.16480209998554,174.21489929995732,174.21489929995732,174.21489929995732,174.21489929995732,174.26484630000778,174.26484630000778,174.26484630000778,174.26484630000778,174.26484630000778,174.26484630000778,174.26484630000778,174.26484630000778,174.26484630000778,left,0.5774618999566883,174.86531419999665,174.86531419999665,None,,13,001,2025-12-23_10h04.21.613,2025C_exp1_comp,2022.2.4,60.08431030268142,
22.7,45,-1,-1,0,71,71,75,174.86531419999665,174.86531419999665,175.3659556999919,175.4325996999978,175.4829854000127,175.4829854000127,175.4829854000127,175.4829854000127,175.53268479998223,175.53268479998223,175.53268479998223,175.53268479998223,175.53268479998223,175.53268479998223,175.53268479998223,175.53268479998223,175.53268479998223,right,0.38227639999240637,175.9331797999912,175.9331797999912,None,,13,001,2025-12-23_10h04.21.613,2025C_exp1_comp,2022.2.4,60.08431030268142,
25.5,45,-1,1,0,72,72,40,175.9331797999912,175.9331797999912,176.43363169999793,176.50040119996993,176.55046469997615,176.55046469997615,176.55046469997615,176.55046469997615,176.60032289999072,176.60032289999072,176.60032289999072,176.60032289999072,176.60032289999072,176.60032289999072,176.60032289999072,176.60032289999072,176.60032289999072,right,0.4183402999769896,177.05071429995587,177.05071429995587,None,,13,001,2025-12-23_10h04.21.613,2025C_exp1_comp,2022.2.4,60.08431030268142,
29.4,315,-1,1,0,73,73,50,177.05071429995587,177.05071429995587,177.55165189999389,177.61796609999146,177.66836519999197,177.66836519999197,177.66836519999197,177.66836519999197,177.71814989997074,177.71814989997074,177.71814989997074,177.71814989997074,177.71814989997074,177.71814989997074,177.71814989997074,177.71814989997074,177.71814989997074,right,0.4364188999752514,178.1854294000077,178.1854294000077,None,,13,001,2025-12-23_10h04.21.613,2025C_exp1_comp,2022.2.4,60.08431030268142,
39.2,45,1,-1,0,74,74,97,178.1854294000077,178.1854294000077,178.68596259999322,178.75265310000395,178.80303489998914,178.80303489998914,178.80303489998914,178.80303489998914,178.85275459999684,178.85275459999684,178.85275459999684,178.85275459999684,178.85275459999684,178.85275459999684,178.85275459999684,178.85275459999684,178.85275459999684,right,0.5651569000328891,179.43635009997524,179.43635009997524,None,,13,001,2025-12-23_10h04.21.613,2025C_exp1_comp,2022.2.4,60.08431030268142,
12.1,315,1,-1,0,75,75,99,179.43635009997524,179.43635009997524,179.93748749996303,180.0039095999673,180.05440149997594,180.05440149997594,180.05440149997594,180.05440149997594,180.10412689996883,180.10412689996883,180.10412689996883,180.10412689996883,180.10412689996883,180.10412689996883,180.10412689996883,180.10412689996883,180.10412689996883,left,0.6023986000218429,180.73798029997852,180.73798029997852,None,,13,001,2025-12-23_10h04.21.613,2025C_exp1_comp,2022.2.4,60.08431030268142,
35.3,315,1,-1,0,76,76,105,180.73798029997852,180.73798029997852,181.23824519995833,181.30513880000217,181.3554526999942,181.3554526999942,181.3554526999942,181.3554526999942,181.4053151999833,181.4053151999833,181.4053151999833,181.4053151999833,181.4053151999833,181.4053151999833,181.4053151999833,181.4053151999833,181.4053151999833,right,0.6135295999702066,182.03910069999984,182.03910069999984,None,,13,001,2025-12-23_10h04.21.613,2025C_exp1_comp,2022.2.4,60.08431030268142,
25.5,315,-1,1,0,77,77,49,182.03910069999984,182.03910069999984,182.53999349998776,182.60653369995998,182.65678570000455,182.65678570000455,182.65678570000455,182.65678570000455,182.7064951999928,182.7064951999928,182.7064951999928,182.7064951999928,182.7064951999928,182.7064951999928,182.7064951999928,182.7064951999928,182.7064951999928,right,0.5202228000271134,183.25716999999713,183.25716999999713,None,,13,001,2025-12-23_10h04.21.613,2025C_exp1_comp,2022.2.4,60.08431030268142,
19.6,45,1,0,0,78,78,20,183.25716999999713,183.25716999999713,183.75753919995623,183.8243794000009,183.87459969997872,183.87459969997872,183.87459969997872,183.87459969997872,183.92434899997897,183.92434899997897,183.92434899997897,183.92434899997897,183.92434899997897,183.92434899997897,183.92434899997897,183.92434899997897,183.92434899997897,left,0.9267836000071838,184.87542309996206,184.87542309996206,None,,13,001,2025-12-23_10h04.21.613,2025C_exp1_comp,2022.2.4,60.08431030268142,
42.7,45,1,0,0,79,79,26,184.87542309996206,184.87542309996206,185.37604880001163,185.44240269996226,185.49290770001244,185.49290770001244,185.49290770001244,185.49290770001244,185.542661399988,185.542661399988,185.542661399988,185.542661399988,185.542661399988,185.542661399988,185.542661399988,185.542661399988,185.542661399988,right,0.46751400001812726,186.02660419995664,186.02660419995664,None,,13,001,2025-12-23_10h04.21.613,2025C_exp1_comp,2022.2.4,60.08431030268142,
12.1,45,-1,1,0,80,80,36,186.02660419995664,186.02660419995664,186.52723319997313,186.59384789998876,186.64398259995505,186.64398259995505,186.64398259995505,186.64398259995505,186.69380469998578,186.69380469998578,186.69380469998578,186.69380469998578,186.69380469998578,186.69380469998578,186.69380469998578,186.69380469998578,186.69380469998578,right,0.413204200041946,187.12758719996782,187.12758719996782,None,,13,001,2025-12-23_10h04.21.613,2025C_exp1_comp,2022.2.4,60.08431030268142,
25.5,45,-1,0,0,81,81,4,187.12758719996782,187.12758719996782,187.62816769996425,187.6952239999664,187.74538390000816,187.74538390000816,187.74538390000816,187.74538390000816,187.79494039999554,187.79494039999554,187.79494039999554,187.79494039999554,187.79494039999554,187.79494039999554,187.79494039999554,187.79494039999554,187.79494039999554,right,0.39943699998548254,188.21207489998778,188.21207489998778,None,,13,001,2025-12-23_10h04.21.613,2025C_exp1_comp,2022.2.4,60.08431030268142,
29.4,45,1,0,0,82,82,23,188.21207489998778,188.21207489998778,188.71276819997001,188.77941109996755,188.8297787999618,188.8297787999618,188.8297787999618,188.8297787999618,188.87943939998513,188.87943939998513,188.87943939998513,188.87943939998513,188.87943939998513,188.87943939998513,188.87943939998513,188.87943939998513,188.87943939998513,right,0.6273265000199899,189.52981400000863,189.52981400000863,None,,13,001,2025-12-23_10h04.21.613,2025C_exp1_comp,2022.2.4,60.08431030268142,
15.7,315,-1,1,0,83,83,46,189.52981400000863,189.52981400000863,190.03072639997117,190.0978618999943,190.1479948000051,190.1479948000051,190.1479948000051,190.1479948000051,190.1972717999597,190.1972717999597,190.1972717999597,190.1972717999597,190.1972717999597,190.1972717999597,190.1972717999597,190.1972717999597,190.1972717999597,right,0.46960710000712425,190.69768149999436,190.69768149999436,None,,13,001,2025-12-23_10h04.21.613,2025C_exp1_comp,2022.2.4,60.08431030268142,
39.2,45,-1,1,0,84,84,43,190.69768149999436,190.69768149999436,191.19835550000425,191.26487559999805,191.31527979997918,191.31527979997918,191.31527979997918,191.31527979997918,191.36497429996962,191.36497429996962,191.36497429996962,191.36497429996962,191.36497429996962,191.36497429996962,191.36497429996962,191.36497429996962,191.36497429996962,right,0.4458267000154592,191.83223130000988,191.83223130000988,None,,13,001,2025-12-23_10h04.21.613,2025C_exp1_comp,2022.2.4,60.08431030268142,
15.7,45,1,0,0,85,85,19,191.83223130000988,191.83223130000988,192.332605100004,192.39929649996338,192.4495979999774,192.4495979999774,192.4495979999774,192.4495979999774,192.49940189998597,192.49940189998597,192.49940189998597,192.49940189998597,192.49940189998597,192.49940189998597,192.49940189998597,192.49940189998597,192.49940189998597,left,0.6313860000227578,193.15015219995985,193.15015219995985,None,,13,001,2025-12-23_10h04.21.613,2025C_exp1_comp,2022.2.4,60.08431030268142,
42.7,315,-1,1,0,86,86,53,193.15015219995985,193.15015219995985,193.65057469997555,193.7174815000035,193.76764499995625,193.76764499995625,193.76764499995625,193.76764499995625,193.8173930000048,193.8173930000048,193.8173930000048,193.8173930000048,193.8173930000048,193.8173930000048,193.8173930000048,193.8173930000048,193.8173930000048,right,1.672739300003741,195.51911349996226,195.51911349996226,None,,13,001,2025-12-23_10h04.21.613,2025C_exp1_comp,2022.2.4,60.08431030268142,
12.1,45,-1,-1,0,87,87,72,195.51911349996226,195.51911349996226,196.01963779999642,196.08641240000725,196.13692139997147,196.13692139997147,196.13692139997147,196.13692139997147,196.18644729995867,196.18644729995867,196.18644729995867,196.18644729995867,196.18644729995867,196.18644729995867,196.18644729995867,196.18644729995867,196.18644729995867,right,0.4560012000147253,196.67053679999663,196.67053679999663,None,,13,001,2025-12-23_10h04.21.613,2025C_exp1_comp,2022.2.4,60.08431030268142,
35.3,315,-1,-1,0,88,88,87,196.67053679999663,196.67053679999663,197.17094479996013,197.2375039999606,197.28782229998615,197.28782229998615,197.28782229998615,197.28782229998615,197.33762820000993,197.33762820000993,197.33762820000993,197.33762820000993,197.33762820000993,197.33762820000993,197.33762820000993,197.33762820000993,197.33762820000993,right,0.6408090000040829,198.00495289999526,198.00495289999526,None,,13,001,2025-12-23_10h04.21.613,2025C_exp1_comp,2022.2.4,60.08431030268142,
29.4,315,-1,0,0,89,89,14,198.00495289999526,198.00495289999526,198.50544629996875,198.57215059996815,198.62262430001283,198.62262430001283,198.62262430001283,198.62262430001283,198.67226069996832,198.67226069996832,198.67226069996832,198.67226069996832,198.67226069996832,198.67226069996832,198.67226069996832,198.67226069996832,198.67226069996832,right,0.5540303000016138,199.25616379996063,199.25616379996063,None,,13,001,2025-12-23_10h04.21.613,2025C_exp1_comp,2022.2.4,60.08431030268142,
25.5,45,1,1,0,90,90,58,199.25616379996063,199.25616379996063,199.75665970001137,199.8236357999849,199.8736884999671,199.8736884999671,199.8736884999671,199.8736884999671,199.92354859999614,199.92354859999614,199.92354859999614,199.92354859999614,199.92354859999614,199.92354859999614,199.92354859999614,199.92354859999614,199.92354859999614,right,3.782672100001946,203.72751629998675,203.72751629998675,None,,13,001,2025-12-23_10h04.21.613,2025C_exp1_comp,2022.2.4,60.08431030268142,
19.6,45,1,1,0,91,91,56,203.72751629998675,203.72751629998675,204.22825719998218,204.2949798000045,204.3453959999606,204.3453959999606,204.3453959999606,204.3453959999606,204.3951420999947,204.3951420999947,204.3951420999947,204.3951420999947,204.3951420999947,204.3951420999947,204.3951420999947,204.3951420999947,204.3951420999947,left,1.8718872999888845,206.2966674999916,206.2966674999916,None,,13,001,2025-12-23_10h04.21.613,2025C_exp1_comp,2022.2.4,60.08431030268142,
22.7,315,-1,-1,0,92,92,84,206.2966674999916,206.2966674999916,206.79709469998488,206.8640586999827,206.91465140000219,206.91465140000219,206.91465140000219,206.91465140000219,206.96436529996572,206.96436529996572,206.96436529996572,206.96436529996572,206.96436529996572,206.96436529996572,206.96436529996572,206.96436529996572,206.96436529996572,right,0.8704075999557972,207.86511229997268,207.86511229997268,None,,13,001,2025-12-23_10h04.21.613,2025C_exp1_comp,2022.2.4,60.08431030268142,
25.5,315,1,1,0,93,93,67,207.86511229997268,207.86511229997268,208.36558539996622,208.4323039999581,208.48264999996172,208.48264999996172,208.48264999996172,208.48264999996172,208.5322967999964,208.5322967999964,208.5322967999964,208.5322967999964,208.5322967999964,208.5322967999964,208.5322967999964,208.5322967999964,208.5322967999964,right,0.7900852999882773,209.34991140000056,209.34991140000056,None,,13,001,2025-12-23_10h04.21.613,2025C_exp1_comp,2022.2.4,60.08431030268142,
15.7,45,-1,1,0,94,94,37,209.34991140000056,209.34991140000056,209.85042319999775,209.91705009998986,209.9673401999753,209.9673401999753,209.9673401999753,209.9673401999753,210.01710599998478,210.01710599998478,210.01710599998478,210.01710599998478,210.01710599998478,210.01710599998478,210.01710599998478,210.01710599998478,210.01710599998478,right,0.5537220999831334,210.60132169997087,210.60132169997087,None,,13,001,2025-12-23_10h04.21.613,2025C_exp1_comp,2022.2.4,60.08431030268142,
25.5,315,-1,-1,0,95,95,85,210.60132169997087,210.60132169997087,211.10170539998217,211.1684294999577,211.21874799998477,211.21874799998477,211.21874799998477,211.21874799998477,211.268528399989,211.268528399989,211.268528399989,211.268528399989,211.268528399989,211.268528399989,211.268528399989,211.268528399989,211.268528399989,right,0.4309491000021808,211.71906599996146,211.71906599996146,None,,13,001,2025-12-23_10h04.21.613,2025C_exp1_comp,2022.2.4,60.08431030268142,
25.5,315,1,-1,0,96,96,103,211.71906599996146,211.71906599996146,212.21922899998026,212.28587269998388,212.3367506999639,212.3367506999639,212.3367506999639,212.3367506999639,212.38655039999867,212.38655039999867,212.38655039999867,212.38655039999867,212.38655039999867,212.38655039999867,212.38655039999867,212.38655039999867,212.38655039999867,right,2.808509900001809,215.222411499999,215.222411499999,None,,13,001,2025-12-23_10h04.21.613,2025C_exp1_comp,2022.2.4,60.08431030268142,
42.7,45,-1,1,0,97,97,44,215.222411499999,215.222411499999,215.72305989998858,215.78960409999127,215.84009229997173,215.84009229997173,215.84009229997173,215.84009229997173,215.88981089997105,215.88981089997105,215.88981089997105,215.88981089997105,215.88981089997105,215.88981089997105,215.88981089997105,215.88981089997105,215.88981089997105,left,2.768984599970281,218.67597799998475,218.67597799998475,None,,13,001,2025-12-23_10h04.21.613,2025C_exp1_comp,2022.2.4,60.08431030268142,
15.7,315,1,0,0,98,98,28,218.67597799998475,218.67597799998475,219.17647780000698,219.24310239998158,219.29350979998708,219.29350979998708,219.29350979998708,219.29350979998708,219.34331099997507,219.34331099997507,219.34331099997507,219.34331099997507,219.34331099997507,219.34331099997507,219.34331099997507,219.34331099997507,219.34331099997507,left,0.5957440999918617,219.9603247999912,219.9603247999912,None,,13,001,2025-12-23_10h04.21.613,2025C_exp1_comp,2022.2.4,60.08431030268142,
42.7,45,-1,-1,0,99,99,80,219.9603247999912,219.9603247999912,220.46080179995624,220.52771029999712,220.57807290001074,220.57807290001074,220.57807290001074,220.57807290001074,220.62753489997704,220.62753489997704,220.62753489997704,220.62753489997704,220.62753489997704,220.62753489997704,220.62753489997704,220.62753489997704,220.62753489997704,left,1.2630546999862418,221.91237539995927,221.91237539995927,None,,13,001,2025-12-23_10h04.21.613,2025C_exp1_comp,2022.2.4,60.08431030268142,
19.6,45,1,-1,0,100,100,92,221.91237539995927,221.91237539995927,222.41312219999963,222.47968519997085,222.530033499992,222.530033499992,222.530033499992,222.530033499992,222.57976409996627,222.57976409996627,222.57976409996627,222.57976409996627,222.57976409996627,222.57976409996627,222.57976409996627,222.57976409996627,222.57976409996627,left,0.5755255999974906,223.18054809997557,223.18054809997557,None,,13,001,2025-12-23_10h04.21.613,2025C_exp1_comp,2022.2.4,60.08431030268142,
22.7,45,1,1,0,101,101,57,223.18054809997557,223.18054809997557,223.68082469998626,223.74750529997982,223.79776649997802,223.79776649997802,223.79776649997802,223.79776649997802,223.8477264000103,223.8477264000103,223.8477264000103,223.8477264000103,223.8477264000103,223.8477264000103,223.8477264000103,223.8477264000103,223.8477264000103,left,0.7544855999876745,224.63165369996568,224.63165369996568,None,,13,001,2025-12-23_10h04.21.613,2025C_exp1_comp,2022.2.4,60.08431030268142,
15.7,45,-1,-1,0,102,102,73,224.63165369996568,224.63165369996568,225.13231849996373,225.19903029996203,225.24932709999848,225.24932709999848,225.24932709999848,225.24932709999848,225.299147099955,225.299147099955,225.299147099955,225.299147099955,225.299147099955,225.299147099955,225.299147099955,225.299147099955,225.299147099955,right,0.5197821000474505,225.8498438000097,225.8498438000097,None,,13,001,2025-12-23_10h04.21.613,2025C_exp1_comp,2022.2.4,60.08431030268142,
39.2,315,1,0,0,103,103,34,225.8498438000097,225.8498438000097,226.35011399997165,226.41681669995887,226.46714309998788,226.46714309998788,226.46714309998788,226.46714309998788,226.5170360999764,226.5170360999764,226.5170360999764,226.5170360999764,226.5170360999764,226.5170360999764,226.5170360999764,226.5170360999764,226.5170360999764,right,1.0870134999859147,227.6346284999745,227.6346284999745,None,,13,001,2025-12-23_10h04.21.613,2025C_exp1_comp,2022.2.4,60.08431030268142,
29.4,315,-1,-1,0,104,104,86,227.6346284999745,227.6346284999745,228.13534629996866,228.20192069996847,228.25225570000475,228.25225570000475,228.25225570000475,228.25225570000475,228.30214280000655,228.30214280000655,228.30214280000655,228.30214280000655,228.30214280000655,228.30214280000655,228.30214280000655,228.30214280000655,228.30214280000655,right,0.451788000005763,228.78589189995546,228.78589189995546,None,,13,001,2025-12-23_10h04.21.613,2025C_exp1_comp,2022.2.4,60.08431030268142,
42.7,315,-1,0,0,105,105,17,228.78589189995546,228.78589189995546,229.28643290000036,229.35315939999418,229.40334540000185,229.40334540000185,229.40334540000185,229.40334540000185,229.4531896999688,229.4531896999688,229.4531896999688,229.4531896999688,229.4531896999688,229.4531896999688,229.4531896999688,229.4531896999688,229.4531896999688,right,0.5168040000135079,229.98698950000107,229.98698950000107,None,,13,001,2025-12-23_10h04.21.613,2025C_exp1_comp,2022.2.4,60.08431030268142,
22.7,45,-1,0,0,106,106,3,229.98698950000107,229.98698950000107,230.4876718999585,230.55431639996823,230.604567900009,230.604567900009,230.604567900009,230.604567900009,230.65444199997,230.65444199997,230.65444199997,230.65444199997,230.65444199997,230.65444199997,230.65444199997,230.65444199997,230.65444199997,right,0.46775970002636313,231.15495850000298,231.15495850000298,None,,13,001,2025-12-23_10h04.21.613,2025C_exp1_comp,2022.2.4,60.08431030268142,
15.7,45,-1,0,0,107,107,1,231.15495850000298,231.15495850000298,231.6554562000092,231.7222272999934,231.77253979997477,231.77253979997477,231.77253979997477,231.77253979997477,231.82230979995802,231.82230979995802,231.82230979995802,231.82230979995802,231.82230979995802,231.82230979995802,231.82230979995802,231.82230979995802,231.82230979995802,right,0.41214089997811243,232.25930139998673,232.25930139998673,space,5.710512800025754,13,001,2025-12-23_10h04.21.613,2025C_exp1_comp,2022.2.4,60.08431030268142,
42.7,315,-1,-1,1,0,108,89,237.9950272999704,237.9950272999704,238.4956983999582,238.56238309998298,238.6127068999922,238.6127068999922,238.6127068999922,238.6127068999922,238.66225409996696,238.66225409996696,238.66225409996696,238.66225409996696,238.66225409996696,238.66225409996696,238.66225409996696,238.66225409996696,238.66225409996696,right,2.1248106000130065,240.8144980999641,240.8144980999641,None,,13,001,2025-12-23_10h04.21.613,2025C_exp1_comp,2022.2.4,60.08431030268142,
19.6,315,-1,-1,1,1,109,83,240.8144980999641,240.8144980999641,241.31490629998734,241.38160640001297,241.43213420000393,241.43213420000393,241.43213420000393,241.43213420000393,241.48186529998202,241.48186529998202,241.48186529998202,241.48186529998202,241.48186529998202,241.48186529998202,241.48186529998202,241.48186529998202,241.48186529998202,right,0.44094389997189865,241.94901679997565,241.94901679997565,None,,13,001,2025-12-23_10h04.21.613,2025C_exp1_comp,2022.2.4,60.08431030268142,
35.3,45,1,0,1,2,110,24,241.94901679997565,241.94901679997565,242.44954269996379,242.51634259999264,242.56663439999102,242.56663439999102,242.56663439999102,242.56663439999102,242.6164350999752,242.6164350999752,242.6164350999752,242.6164350999752,242.6164350999752,242.6164350999752,242.6164350999752,242.6164350999752,242.6164350999752,right,0.410105399962049,243.05030870001065,243.05030870001065,None,,13,001,2025-12-23_10h04.21.613,2025C_exp1_comp,2022.2.4,60.08431030268142,
15.7,45,-1,0,1,3,111,1,243.05030870001065,243.05030870001065,243.5507004999672,243.61742699996103,243.66767709999112,243.66767709999112,243.66767709999112,243.66767709999112,243.7175543999765,243.7175543999765,243.7175543999765,243.7175543999765,243.7175543999765,243.7175543999765,243.7175543999765,243.7175543999765,243.7175543999765,right,0.3895374999847263,244.13475329999346,244.13475329999346,None,,13,001,2025-12-23_10h04.21.613,2025C_exp1_comp,2022.2.4,60.08431030268142,
15.7,45,1,0,1,4,112,19,244.13475329999346,244.13475329999346,244.6350390999578,244.70177739998326,244.7521093999967,244.7521093999967,244.7521093999967,244.7521093999967,244.80195279995678,244.80195279995678,244.80195279995678,244.80195279995678,244.80195279995678,244.80195279995678,244.80195279995678,244.80195279995678,244.80195279995678,left,0.5446192999952473,245.36918579996563,245.36918579996563,None,,13,001,2025-12-23_10h04.21.613,2025C_exp1_comp,2022.2.4,60.08431030268142,
39.2,315,1,-1,1,5,113,106,245.36918579996563,245.36918579996563,245.86968409997644,245.9364013999584,245.98664279998047,245.98664279998047,245.98664279998047,245.98664279998047,246.03638919995865,246.03638919995865,246.03638919995865,246.03638919995865,246.03638919995865,246.03638919995865,246.03638919995865,246.03638919995865,246.03638919995865,right,0.4631002999958582,246.52027879998786,246.52027879998786,None,,13,001,2025-12-23_10h04.21.613,2025C_exp1_comp,2022.2.4,60.08431030268142,
22.7,315,-1,0,1,6,114,12,246.52027879998786,246.52027879998786,247.02085039997473,247.08758729998954,247.13783759996295,247.13783759996295,247.13783759996295,247.13783759996295,247.18758839997463,247.18758839997463,247.18758839997463,247.18758839997463,247.18758839997463,247.18758839997463,247.18758839997463,247.18758839997463,247.18758839997463,right,0.39835169998696074,247.60445519996574,247.60445519996574,None,,13,001,2025-12-23_10h04.21.613,2025C_exp1_comp,2022.2.4,60.08431030268142,
22.7,315,-1,-1,1,7,115,84,247.60445519996574,247.60445519996574,248.10531289997743,248.17204609996406,248.22240570001304,248.22240570001304,248.22240570001304,248.22240570001304,248.27219849999528,248.27219849999528,248.27219849999528,248.27219849999528,248.27219849999528,248.27219849999528,248.27219849999528,248.27219849999528,248.27219849999528,right,0.41082529997220263,248.70573439996224,248.70573439996224,None,,13,001,2025-12-23_10h04.21.613,2025C_exp1_comp,2022.2.4,60.08431030268142,
19.6,315,1,0,1,8,116,29,248.70573439996224,248.70573439996224,249.20638089999557,249.27310309995664,249.32341369998176,249.32341369998176,249.32341369998176,249.32341369998176,249.3731731000007,249.3731731000007,249.3731731000007,249.3731731000007,249.3731731000007,249.3731731000007,249.3731731000007,249.3731731000007,249.3731731000007,right,0.8380651000188664,250.24082549999002,250.24082549999002,None,,13,001,2025-12-23_10h04.21.613,2025C_exp1_comp,2022.2.4,60.08431030268142,
35.3,315,1,0,1,9,117,33,250.24082549999002,250.24082549999002,250.74132829997689,250.80796339997323,250.85821939999005,250.85821939999005,250.85821939999005,250.85821939999005,250.90782009996474,250.90782009996474,250.90782009996474,250.90782009996474,250.90782009996474,250.90782009996474,250.90782009996474,250.90782009996474,250.90782009996474,right,0.40705680003156886,251.34179809998022,251.34179809998022,None,,13,001,2025-12-23_10h04.21.613,2025C_exp1_comp,2022.2.4,60.08431030268142,
39.2,315,-1,1,1,10,118,52,251.34179809998022,251.34179809998022,251.84248749999097,251.9092128999764,251.95950820000144,251.95950820000144,251.95950820000144,251.95950820000144,252.0092900999589,252.0092900999589,252.0092900999589,252.0092900999589,252.0092900999589,252.0092900999589,252.0092900999589,252.0092900999589,252.0092900999589,right,0.42495910002617165,252.46036809997167,252.46036809997167,None,,13,001,2025-12-23_10h04.21.613,2025C_exp1_comp,2022.2.4,60.08431030268142,
22.7,45,1,1,1,11,119,57,252.46036809997167,252.46036809997167,252.96022069995524,253.02688249998027,253.07734429999255,253.07734429999255,253.07734429999255,253.07734429999255,253.12705909996293,253.12705909996293,253.12705909996293,253.12705909996293,253.12705909996293,253.12705909996293,253.12705909996293,253.12705909996293,253.12705909996293,left,0.4439870999776758,253.59400409995578,253.59400409995578,None,,13,001,2025-12-23_10h04.21.613,2025C_exp1_comp,2022.2.4,60.08431030268142,
39.2,45,1,0,1,12,120,25,253.59400409995578,253.59400409995578,254.09475679998286,254.16153569996823,254.2118494999595,254.2118494999595,254.2118494999595,254.2118494999595,254.26166369998828,254.26166369998828,254.26166369998828,254.26166369998828,254.26166369998828,254.26166369998828,254.26166369998828,254.26166369998828,254.26166369998828,right,0.436319199972786,254.72848180000437,254.72848180000437,None,,13,001,2025-12-23_10h04.21.613,2025C_exp1_comp,2022.2.4,60.08431030268142,
39.2,45,-1,-1,1,13,121,79,254.72848180000437,254.72848180000437,255.2290692999959,255.2958687999635,255.3460832000128,255.3460832000128,255.3460832000128,255.3460832000128,255.3958214999875,255.3958214999875,255.3958214999875,255.3958214999875,255.3958214999875,255.3958214999875,255.3958214999875,255.3958214999875,255.3958214999875,left,0.9271314999787137,256.3466517999768,256.3466517999768,None,,13,001,2025-12-23_10h04.21.613,2025C_exp1_comp,2022.2.4,60.08431030268142,
29.4,45,-1,0,1,14,122,5,256.3466517999768,256.3466517999768,256.8471508999937,256.91408149997005,256.96430029999465,256.96430029999465,256.96430029999465,256.96430029999465,257.0140541999717,257.0140541999717,257.0140541999717,257.0140541999717,257.0140541999717,257.0140541999717,257.0140541999717,257.0140541999717,257.0140541999717,right,0.45293760002823547,257.4979604000109,257.4979604000109,None,,13,001,2025-12-23_10h04.21.613,2025C_exp1_comp,2022.2.4,60.08431030268142,
15.7,45,1,-1,1,15,123,91,257.4979604000109,257.4979604000109,257.9981894000084,258.0652517999988,258.11584099999163,258.11584099999163,258.11584099999163,258.11584099999163,258.1653661999735,258.1653661999735,258.1653661999735,258.1653661999735,258.1653661999735,258.1653661999735,258.1653661999735,258.1653661999735,258.1653661999735,left,0.6454723999486305,258.8325451000128,258.8325451000128,None,,13,001,2025-12-23_10h04.21.613,2025C_exp1_comp,2022.2.4,60.08431030268142,
29.4,315,-1,1,1,16,124,50,258.8325451000128,258.8325451000128,259.3328824999626,259.39994629996363,259.4501614999608,259.4501614999608,259.4501614999608,259.4501614999608,259.49984750000294,259.49984750000294,259.49984750000294,259.49984750000294,259.49984750000294,259.49984750000294,259.49984750000294,259.49984750000294,259.49984750000294,right,0.42226010002195835,259.95032159995753,259.95032159995753,None,,13,001,2025-12-23_10h04.21.613,2025C_exp1_comp,2022.2.4,60.08431030268142,
39.2,315,1,0,1,17,125,34,259.95032159995753,259.95032159995753,260.4510527999955,260.5174388999585,260.5682134999661,260.5682134999661,260.5682134999661,260.5682134999661,260.617884999956,260.617884999956,260.617884999956,260.617884999956,260.617884999956,260.617884999956,260.617884999956,260.617884999956,260.617884999956,right,0.5287846999708563,261.16818310000235,261.16818310000235,None,,13,001,2025-12-23_10h04.21.613,2025C_exp1_comp,2022.2.4,60.08431030268142,
19.6,45,-1,0,1,18,126,2,261.16818310000235,261.16818310000235,261.66872159997,261.7355152000091,261.7859036999871,261.7859036999871,261.7859036999871,261.7859036999871,261.8356863000081,261.8356863000081,261.8356863000081,261.8356863000081,261.8356863000081,261.8356863000081,261.8356863000081,261.8356863000081,261.8356863000081,right,0.4233622000319883,262.2860061000101,262.2860061000101,None,,13,001,2025-12-23_10h04.21.613,2025C_exp1_comp,2022.2.4,60.08431030268142,
12.1,315,1,-1,1,19,127,99,262.2860061000101,262.2860061000101,262.7867555000121,262.8534507000004,262.90380639996147,262.90380639996147,262.90380639996147,262.90380639996147,262.9534346999717,262.9534346999717,262.9534346999717,262.9534346999717,262.9534346999717,262.9534346999717,262.9534346999717,262.9534346999717,262.9534346999717,left,0.8010310000390746,263.7707511999761,263.7707511999761,None,,13,001,2025-12-23_10h04.21.613,2025C_exp1_comp,2022.2.4,60.08431030268142,
19.6,45,1,1,1,20,128,56,263.7707511999761,263.7707511999761,264.2711647999822,264.338132600009,264.38842159998603,264.38842159998603,264.38842159998603,264.38842159998603,264.43827839998994,264.43827839998994,264.43827839998994,264.43827839998994,264.43827839998994,264.43827839998994,264.43827839998994,264.43827839998994,264.43827839998994,left,0.908406299946364,265.37275649997173,265.37275649997173,None,,13,001,2025-12-23_10h04.21.613,2025C_exp1_comp,2022.2.4,60.08431030268142,
42.7,45,-1,1,1,21,129,44,265.37275649997173,265.37275649997173,265.8732250999892,265.93998359999387,265.990333499969,265.990333499969,265.990333499969,265.990333499969,266.04014569998253,266.04014569998253,266.04014569998253,266.04014569998253,266.04014569998253,266.04014569998253,266.04014569998253,266.04014569998253,266.04014569998253,right,0.554368999961298,266.6236380999908,266.6236380999908,None,,13,001,2025-12-23_10h04.21.613,2025C_exp1_comp,2022.2.4,60.08431030268142,
35.3,315,-1,0,1,22,130,15,266.6236380999908,266.6236380999908,267.12418260000413,267.1910254000104,267.2412058999762,267.2412058999762,267.2412058999762,267.2412058999762,267.29104839998763,267.29104839998763,267.29104839998763,267.29104839998763,267.29104839998763,267.29104839998763,267.29104839998763,267.29104839998763,267.29104839998763,right,1.191903099999763,268.5090722999885,268.5090722999885,None,,13,001,2025-12-23_10h04.21.613,2025C_exp1_comp,2022.2.4,60.08431030268142,
29.4,315,1,0,1,23,131,32,268.5090722999885,268.5090722999885,269.009476599982,269.07629309996264,269.1264254999696,269.1264254999696,269.1264254999696,269.1264254999696,269.1761684999801,269.1761684999801,269.1761684999801,269.1761684999801,269.1761684999801,269.1761684999801,269.1761684999801,269.1761684999801,269.1761684999801,right,0.4337840999942273,269.62667649996,269.62667649996,None,,13,001,2025-12-23_10h04.21.613,2025C_exp1_comp,2022.2.4,60.08431030268142,
19.6,315,1,1,1,24,132,65,269.62667649996,269.62667649996,270.1272580999648,270.19410689995857,270.24441240000306,270.24441240000306,270.24441240000306,270.24441240000306,270.29410249996,270.29410249996,270.29410249996,270.29410249996,270.29410249996,270.29410249996,270.29410249996,270.29410249996,270.29410249996,left,0.8767054000054486,271.1948546000058,271.1948546000058,None,,13,001,2025-12-23_10h04.21.613,2025C_exp1_comp,2022.2.4,60.08431030268142,
29.4,45,-1,-1,1,25,133,77,271.1948546000058,271.1948546000058,271.6954986999626,271.76222109998344,271.81241600000067,271.81241600000067,271.81241600000067,271.81241600000067,271.86219959997106,271.86219959997106,271.86219959997106,271.86219959997106,271.86219959997106,271.86219959997106,271.86219959997106,271.86219959997106,271.86219959997106,right,0.4924991999869235,272.3794930999866,272.3794930999866,None,,13,001,2025-12-23_10h04.21.613,2025C_exp1_comp,2022.2.4,60.08431030268142,
19.6,45,-1,1,1,26,134,38,272.3794930999866,272.3794930999866,272.88000100001227,272.94677519996185,272.99710629996844,272.99710629996844,272.99710629996844,272.99710629996844,273.0468841000111,273.0468841000111,273.0468841000111,273.0468841000111,273.0468841000111,273.0468841000111,273.0468841000111,273.0468841000111,273.0468841000111,right,0.5639206999912858,273.63071880000643,273.63071880000643,None,,13,001,2025-12-23_10h04.21.613,2025C_exp1_comp,2022.2.4,60.08431030268142,
22.7,45,1,-1,1,27,135,93,273.63071880000643,273.63071880000643,274.13128149998374,274.198094899999,274.24834509997163,274.24834509997163,274.24834509997163,274.24834509997163,274.29808239999693,274.29808239999693,274.29808239999693,274.29808239999693,274.29808239999693,274.29808239999693,274.29808239999693,274.29808239999693,274.29808239999693,left,1.0398772000335157,275.3656619999674,275.3656619999674,None,,13,001,2025-12-23_10h04.21.613,2025C_exp1_comp,2022.2.4,60.08431030268142,
12.1,315,1,0,1,28,136,27,275.3656619999674,275.3656619999674,275.8663493999629,275.9330105999834,275.98338759999024,275.98338759999024,275.98338759999024,275.98338759999024,276.0331911999965,276.0331911999965,276.0331911999965,276.0331911999965,276.0331911999965,276.0331911999965,276.0331911999965,276.0331911999965,276.0331911999965,left,0.5699022999615408,276.63357969996287,276.63357969996287,None,,13,001,2025-12-23_10h04.21.613,2025C_exp1_comp,2022.2.4,60.08431030268142,
39.2,45,-1,0,1,29,137,7,276.63357969996287,276.63357969996287,277.13426590000745,277.2010060999892,277.25130020000506,277.25130020000506,277.25130020000506,277.25130020000506,277.3011242999928,277.3011242999928,277.3011242999928,277.3011242999928,277.3011242999928,277.3011242999928,277.3011242999928,277.3011242999928,277.3011242999928,left,0.9423026000149548,278.2688291000086,278.2688291000086,None,,13,001,2025-12-23_10h04.21.613,2025C_exp1_comp,2022.2.4,60.08431030268142,
29.4,45,1,-1,1,30,138,95,278.2688291000086,278.2688291000086,278.76923229999375,278.83575319999363,278.8862669999944,278.8862669999944,278.8862669999944,278.8862669999944,278.9360855999985,278.9360855999985,278.9360855999985,278.9360855999985,278.9360855999985,278.9360855999985,278.9360855999985,278.9360855999985,278.9360855999985,left,1.6112685999833047,280.5710567999631,280.5710567999631,None,,13,001,2025-12-23_10h04.21.613,2025C_exp1_comp,2022.2.4,60.08431030268142,
42.7,45,1,-1,1,31,139,98,280.5710567999631,280.5710567999631,281.0714397999691,281.1382495999569,281.1885751999798,281.1885751999798,281.1885751999798,281.1885751999798,281.2382165999734,281.2382165999734,281.2382165999734,281.2382165999734,281.2382165999734,281.2382165999734,281.2382165999734,281.2382165999734,281.2382165999734,right,0.4288988999905996,281.6888544000103,281.6888544000103,None,,13,001,2025-12-23_10h04.21.613,2025C_exp1_comp,2022.2.4,60.08431030268142,
25.5,45,-1,0,1,32,140,4,281.6888544000103,281.6888544000103,282.18933759996435,282.2560484999558,282.3062899999786,282.3062899999786,282.3062899999786,282.3062899999786,282.35610639996594,282.35610639996594,282.35610639996594,282.35610639996594,282.35610639996594,282.35610639996594,282.35610639996594,282.35610639996594,282.35610639996594,right,0.4628798000048846,282.8398553999723,282.8398553999723,None,,13,001,2025-12-23_10h04.21.613,2025C_exp1_comp,2022.2.4,60.08431030268142,
22.7,45,-1,0,1,33,141,3,282.8398553999723,282.8398553999723,283.34052359999623,283.4071369000012,283.4575013999711,283.4575013999711,283.4575013999711,283.4575013999711,283.50730319996364,283.50730319996364,283.50730319996364,283.50730319996364,283.50730319996364,283.50730319996364,283.50730319996364,283.50730319996364,283.50730319996364,right,0.376334999979008,283.9077062999713,283.9077062999713,None,,13,001,2025-12-23_10h04.21.613,2025C_exp1_comp,2022.2.4,60.08431030268142,
29.4,315,1,-1,1,34,142,104,283.9077062999713,283.9077062999713,284.40838310000254,284.47496989998035,284.5252855999861,284.5252855999861,284.5252855999861,284.5252855999861,284.57516680000117,284.57516680000117,284.57516680000117,284.57516680000117,284.57516680000117,284.57516680000117,284.57516680000117,284.57516680000117,284.57516680000117,right,0.46715719997882843,285.0585856999969,285.0585856999969,None,,13,001,2025-12-23_10h04.21.613,2025C_exp1_comp,2022.2.4,60.08431030268142,
19.6,315,1,-1,1,35,143,101,285.0585856999969,285.0585856999969,285.5592195999925,285.6260941000073,285.6763773999992,285.6763773999992,285.6763773999992,285.6763773999992,285.72603510000044,285.72603510000044,285.72603510000044,285.72603510000044,285.72603510000044,285.72603510000044,285.72603510000044,285.72603510000044,285.72603510000044,left,1.04422079998767,286.79381599999033,286.79381599999033,None,,13,001,2025-12-23_10h04.21.613,2025C_exp1_comp,2022.2.4,60.08431030268142,
19.6,315,-1,0,1,36,144,11,286.79381599999033,286.79381599999033,287.29456419998314,287.36117639997974,287.4114264000091,287.4114264000091,287.4114264000091,287.4114264000091,287.46126279997407,287.46126279997407,287.46126279997407,287.46126279997407,287.46126279997407,287.46126279997407,287.46126279997407,287.46126279997407,287.46126279997407,right,0.693951900000684,288.1786104000057,288.1786104000057,None,,13,001,2025-12-23_10h04.21.613,2025C_exp1_comp,2022.2.4,60.08431030268142,
35.3,315,-1,-1,1,37,145,87,288.1786104000057,288.1786104000057,288.6790263999719,288.74585040000966,288.7960674999631,288.7960674999631,288.7960674999631,288.7960674999631,288.84581169998273,288.84581169998273,288.84581169998273,288.84581169998273,288.84581169998273,288.84581169998273,288.84581169998273,288.84581169998273,288.84581169998273,right,0.4771306000184268,289.3464523999719,289.3464523999719,None,,13,001,2025-12-23_10h04.21.613,2025C_exp1_comp,2022.2.4,60.08431030268142,
42.7,315,1,0,1,38,146,35,289.3464523999719,289.3464523999719,289.84675959998276,289.9137486999971,289.9639255999937,289.9639255999937,289.9639255999937,289.9639255999937,290.0136066999985,290.0136066999985,290.0136066999985,290.0136066999985,290.0136066999985,290.0136066999985,290.0136066999985,290.0136066999985,290.0136066999985,right,0.38971300004050136,290.4308864999912,290.4308864999912,None,,13,001,2025-12-23_10h04.21.613,2025C_exp1_comp,2022.2.4,60.08431030268142,
22.7,45,-1,-1,1,39,147,75,290.4308864999912,290.4308864999912,290.93138799996814,290.9981078999699,291.04841220000526,291.04841220000526,291.04841220000526,291.04841220000526,291.09804189996794,291.09804189996794,291.09804189996794,291.09804189996794,291.09804189996794,291.09804189996794,291.09804189996794,291.09804189996794,291.09804189996794,right,0.409294500015676,291.5320180999697,291.5320180999697,None,,13,001,2025-12-23_10h04.21.613,2025C_exp1_comp,2022.2.4,60.08431030268142,
39.2,315,-1,-1,1,40,148,88,291.5320180999697,291.5320180999697,292.0326669999631,292.09915129997535,292.1492462999886,292.1492462999886,292.1492462999886,292.1492462999886,292.19946589996107,292.19946589996107,292.19946589996107,292.19946589996107,292.19946589996107,292.19946589996107,292.19946589996107,292.19946589996107,292.19946589996107,right,0.7871145000099204,293.01676089997636,293.01676089997636,None,,13,001,2025-12-23_10h04.21.613,2025C_exp1_comp,2022.2.4,60.08431030268142,
15.7,45,-1,-1,1,41,149,73,293.01676089997636,293.01676089997636,293.5173128999886,293.5842874000082,293.63433189998614,293.63433189998614,293.63433189998614,293.63433189998614,293.68392789998325,293.68392789998325,293.68392789998325,293.68392789998325,293.68392789998325,293.68392789998325,293.68392789998325,293.68392789998325,293.68392789998325,right,1.1272671000333503,294.8352900999598,294.8352900999598,None,,13,001,2025-12-23_10h04.21.613,2025C_exp1_comp,2022.2.4,60.08431030268142,
19.6,45,1,0,1,42,150,20,294.8352900999598,294.8352900999598,295.3357699000044,295.4025059999549,295.45275259995833,295.45275259995833,295.45275259995833,295.45275259995833,295.50237289996585,295.50237289996585,295.50237289996585,295.50237289996585,295.50237289996585,295.50237289996585,295.50237289996585,295.50237289996585,295.50237289996585,left,0.7969787999754772,296.31997939996654,296.31997939996654,None,,13,001,2025-12-23_10h04.21.613,2025C_exp1_comp,2022.2.4,60.08431030268142,
29.4,315,-1,0,1,43,151,14,296.31997939996654,296.31997939996654,296.82065099995816,296.8873641999671,296.93746079999255,296.93746079999255,296.93746079999255,296.93746079999255,296.98748660000274,296.98748660000274,296.98748660000274,296.98748660000274,296.98748660000274,296.98748660000274,296.98748660000274,296.98748660000274,296.98748660000274,right,0.4712473999825306,297.4879935999634,297.4879935999634,None,,13,001,2025-12-23_10h04.21.613,2025C_exp1_comp,2022.2.4,60.08431030268142,
42.7,45,1,1,1,44,152,62,297.4879935999634,297.4879935999634,297.98847639997257,298.0551055999822,298.10545879998244,298.10545879998244,298.10545879998244,298.10545879998244,298.15538049995666,298.15538049995666,298.15538049995666,298.15538049995666,298.15538049995666,298.15538049995666,298.15538049995666,298.15538049995666,298.15538049995666,right,0.47919300000648946,298.65566049999325,298.65566049999325,None,,13,001,2025-12-23_10h04.21.613,2025C_exp1_comp,2022.2.4,60.08431030268142,
12.1,315,-1,-1,1,45,153,81,298.65566049999325,298.65566049999325,299.1562483999878,299.2226590999635,299.27297609997913,299.27297609997913,299.27297609997913,299.27297609997913,299.32275729998946,299.32275729998946,299.32275729998946,299.32275729998946,299.32275729998946,299.32275729998946,299.32275729998946,299.32275729998946,299.32275729998946,right,0.5438334999489598,299.8904094999889,299.8904094999889,None,,13,001,2025-12-23_10h04.21.613,2025C_exp1_comp,2022.2.4,60.08431030268142,
42.7,45,1,0,1,46,154,26,299.8904094999889,299.8904094999889,300.39086159999715,300.4574971999973,300.5078781999764,300.5078781999764,300.5078781999764,300.5078781999764,300.5576854000101,300.5576854000101,300.5576854000101,300.5576854000101,300.5576854000101,300.5576854000101,300.5576854000101,300.5576854000101,300.5576854000101,left,1.028489799995441,301.6087501999573,301.6087501999573,None,,13,001,2025-12-23_10h04.21.613,2025C_exp1_comp,2022.2.4,60.08431030268142,
12.1,45,-1,1,1,47,155,36,301.6087501999573,301.6087501999573,302.1092572999769,302.1759504000074,302.22627099999227,302.22627099999227,302.22627099999227,302.22627099999227,302.27606399997603,302.27606399997603,302.27606399997603,302.27606399997603,302.27606399997603,302.27606399997603,302.27606399997603,302.27606399997603,302.27606399997603,right,0.6229138000053354,302.92657359997975,302.92657359997975,None,,13,001,2025-12-23_10h04.21.613,2025C_exp1_comp,2022.2.4,60.08431030268142,
12.1,315,-1,1,1,48,156,45,302.92657359997975,302.92657359997975,303.42710939998506,303.4937784000067,303.54428599996027,303.54428599996027,303.54428599996027,303.54428599996027,303.5940363999689,303.5940363999689,303.5940363999689,303.5940363999689,303.5940363999689,303.5940363999689,303.5940363999689,303.5940363999689,303.5940363999689,right,0.46487300004810095,304.07768739998573,304.07768739998573,None,,13,001,2025-12-23_10h04.21.613,2025C_exp1_comp,2022.2.4,60.08431030268142,
15.7,315,1,1,1,49,157,64,304.07768739998573,304.07768739998573,304.5784080000012,304.64502180001,304.69533620000584,304.69533620000584,304.69533620000584,304.69533620000584,304.74520750000374,304.74520750000374,304.74520750000374,304.74520750000374,304.74520750000374,304.74520750000374,304.74520750000374,304.74520750000374,304.74520750000374,right,0.4174345000064932,305.1788908999879,305.1788908999879,None,,13,001,2025-12-23_10h04.21.613,2025C_exp1_comp,2022.2.4,60.08431030268142,
35.3,45,-1,-1,1,50,158,78,305.1788908999879,305.1788908999879,305.6794921999681,305.7462080999976,305.79651319998084,305.79651319998084,305.79651319998084,305.79651319998084,305.84608099999605,305.84608099999605,305.84608099999605,305.84608099999605,305.84608099999605,305.84608099999605,305.84608099999605,305.84608099999605,305.84608099999605,left,2.1974086000118405,308.065315899963,308.065315899963,None,,13,001,2025-12-23_10h04.21.613,2025C_exp1_comp,2022.2.4,60.08431030268142,
42.7,45,-1,0,1,51,159,8,308.065315899963,308.065315899963,308.5658439999679,308.63240249996306,308.6826433999813,308.6826433999813,308.6826433999813,308.6826433999813,308.7324867999996,308.7324867999996,308.7324867999996,308.7324867999996,308.7324867999996,308.7324867999996,308.7324867999996,308.7324867999996,308.7324867999996,left,1.1341596000129357,309.88363900000695,309.88363900000695,None,,13,001,2025-12-23_10h04.21.613,2025C_exp1_comp,2022.2.4,60.08431030268142,
22.7,315,1,-1,1,52,160,102,309.88363900000695,309.88363900000695,310.38420739996945,310.4511048999848,310.5012798999669,310.5012798999669,310.5012798999669,310.5012798999669,310.5512060999754,310.5512060999754,310.5512060999754,310.5512060999754,310.5512060999754,310.5512060999754,310.5512060999754,310.5512060999754,310.5512060999754,left,0.4515510000055656,311.0349881000002,311.0349881000002,None,,13,001,2025-12-23_10h04.21.613,2025C_exp1_comp,2022.2.4,60.08431030268142,
35.3,45,1,1,1,53,161,60,311.0349881000002,311.0349881000002,311.53556749998825,311.6020646999823,311.65240109997103,311.65240109997103,311.65240109997103,311.65240109997103,311.70218229998136,311.70218229998136,311.70218229998136,311.70218229998136,311.70218229998136,311.70218229998136,311.70218229998136,311.70218229998136,311.70218229998136,right,0.6129523999989033,312.3359608000028,312.3359608000028,None,,13,001,2025-12-23_10h04.21.613,2025C_exp1_comp,2022.2.4,60.08431030268142,
12.1,315,1,1,1,54,162,63,312.3359608000028,312.3359608000028,312.8366544999881,312.9033147000009,312.95350469998084,312.95350469998084,312.95350469998084,312.95350469998084,313.00343260000227,313.00343260000227,313.00343260000227,313.00343260000227,313.00343260000227,313.00343260000227,313.00343260000227,313.00343260000227,313.00343260000227,left,0.5113713000318967,313.5373013999779,313.5373013999779,None,,13,001,2025-12-23_10h04.21.613,2025C_exp1_comp,2022.2.4,60.08431030268142,
35.3,315,1,-1,1,55,163,105,313.5373013999779,313.5373013999779,314.03754419996403,314.1044022999704,314.154841999989,314.154841999989,314.154841999989,314.154841999989,314.20476669998607,314.20476669998607,314.20476669998607,314.20476669998607,314.20476669998607,314.20476669998607,314.20476669998607,314.20476669998607,314.20476669998607,right,1.1982334000058472,315.42263419996016,315.42263419996016,None,,13,001,2025-12-23_10h04.21.613,2025C_exp1_comp,2022.2.4,60.08431030268142,
42.7,315,-1,1,1,56,164,53,315.42263419996016,315.42263419996016,315.92317809996894,315.98982099996647,316.0401829999755,316.0401829999755,316.0401829999755,316.0401829999755,316.08967570000095,316.08967570000095,316.08967570000095,316.08967570000095,316.08967570000095,316.08967570000095,316.08967570000095,316.08967570000095,316.08967570000095,right,1.4968703999766149,317.6081407999736,317.6081407999736,None,,13,001,2025-12-23_10h04.21.613,2025C_exp1_comp,2022.2.4,60.08431030268142,
29.4,315,-1,-1,1,57,165,86,317.6081407999736,317.6081407999736,318.10862740001176,318.17493119998835,318.22548530000495,318.22548530000495,318.22548530000495,318.22548530000495,318.2755868000095,318.2755868000095,318.2755868000095,318.2755868000095,318.2755868000095,318.2755868000095,318.2755868000095,318.2755868000095,318.2755868000095,right,0.678844400041271,318.97612229996594,318.97612229996594,None,,13,001,2025-12-23_10h04.21.613,2025C_exp1_comp,2022.2.4,60.08431030268142,
25.5,315,-1,0,1,58,166,13,318.97612229996594,318.97612229996594,319.47646639996674,319.5430012999568,319.5935866999789,319.5935866999789,319.5935866999789,319.5935866999789,319.6432574999635,319.6432574999635,319.6432574999635,319.6432574999635,319.6432574999635,319.6432574999635,319.6432574999635,319.6432574999635,319.6432574999635,right,0.5275870999903418,320.19372280000243,320.19372280000243,None,,13,001,2025-12-23_10h04.21.613,2025C_exp1_comp,2022.2.4,60.08431030268142,
15.7,315,-1,1,1,59,167,46,320.19372280000243,320.19372280000243,320.6945463999873,320.7612019999651,320.8115318999626,320.8115318999626,320.8115318999626,320.8115318999626,320.86129879998043,320.86129879998043,320.86129879998043,320.86129879998043,320.86129879998043,320.86129879998043,320.86129879998043,320.86129879998043,320.86129879998043,right,0.43015540001215413,321.31164379999973,321.31164379999973,None,,13,001,2025-12-23_10h04.21.613,2025C_exp1_comp,2022.2.4,60.08431030268142,
39.2,45,1,-1,1,60,168,97,321.31164379999973,321.31164379999973,321.81229159998475,321.8789692999562,321.9291454000049,321.9291454000049,321.9291454000049,321.9291454000049,321.9790840999922,321.9790840999922,321.9790840999922,321.9790840999922,321.9790840999922,321.9790840999922,321.9790840999922,321.9790840999922,321.9790840999922,right,0.48725419997936115,322.4961418999592,322.4961418999592,None,,13,001,2025-12-23_10h04.21.613,2025C_exp1_comp,2022.2.4,60.08431030268142,
25.5,45,-1,-1,1,61,169,76,322.4961418999592,322.4961418999592,322.99679629999446,323.0634863000014,323.11377890000585,323.11377890000585,323.11377890000585,323.11377890000585,323.16356720001204,323.16356720001204,323.16356720001204,323.16356720001204,323.16356720001204,323.16356720001204,323.16356720001204,323.16356720001204,323.16356720001204,right,0.574601000000257,323.7642637999961,323.7642637999961,None,,13,001,2025-12-23_10h04.21.613,2025C_exp1_comp,2022.2.4,60.08431030268142,
25.5,45,1,-1,1,62,170,94,323.7642637999961,323.7642637999961,324.26447039999766,324.331388599996,324.3814158999594,324.3814158999594,324.3814158999594,324.3814158999594,324.43132169998717,324.43132169998717,324.43132169998717,324.43132169998717,324.43132169998717,324.43132169998717,324.43132169998717,324.43132169998717,324.43132169998717,right,0.6032995999557897,325.06553029996576,325.06553029996576,None,,13,001,2025-12-23_10h04.21.613,2025C_exp1_comp,2022.2.4,60.08431030268142,
22.7,315,1,0,1,63,171,30,325.06553029996576,325.06553029996576,325.5660574999638,325.63275409996277,325.6830440000049,325.6830440000049,325.6830440000049,325.6830440000049,325.7328425999731,325.7328425999731,325.7328425999731,325.7328425999731,325.7328425999731,325.7328425999731,325.7328425999731,325.7328425999731,325.7328425999731,right,0.6299713999615051,326.38352769997437,326.38352769997437,None,,13,001,2025-12-23_10h04.21.613,2025C_exp1_comp,2022.2.4,60.08431030268142,
25.5,315,-1,-1,1,64,172,85,326.38352769997437,326.38352769997437,326.88389689999167,326.95073189999675,327.00090489996364,327.00090489996364,327.00090489996364,327.00090489996364,327.0508605999639,327.0508605999639,327.0508605999639,327.0508605999639,327.0508605999639,327.0508605999639,327.0508605999639,327.0508605999639,327.0508605999639,right,0.6079501999774948,327.6848285999731,327.6848285999731,None,,13,001,2025-12-23_10h04.21.613,2025C_exp1_comp,2022.2.4,60.08431030268142,
42.7,315,1,-1,1,65,173,107,327.6848285999731,327.6848285999731,328.1853507999913,328.25187609996647,328.30234379996546,328.30234379996546,328.30234379996546,328.30234379996546,328.35208779998356,328.35208779998356,328.35208779998356,328.35208779998356,328.35208779998356,328.35208779998356,328.35208779998356,328.35208779998356,328.35208779998356,right,0.4257602999568917,328.80239009996876,328.80239009996876,None,,13,001,2025-12-23_10h04.21.613,2025C_exp1_comp,2022.2.4,60.08431030268142,
25.5,45,1,0,1,66,174,22,328.80239009996876,328.80239009996876,329.30305119999684,329.369647399988,329.41990079998504,329.41990079998504,329.41990079998504,329.41990079998504,329.46985379996477,329.46985379996477,329.46985379996477,329.46985379996477,329.46985379996477,329.46985379996477,329.46985379996477,329.46985379996477,329.46985379996477,left,0.9412806999753229,330.4374225999927,330.4374225999927,None,,13,001,2025-12-23_10h04.21.613,2025C_exp1_comp,2022.2.4,60.08431030268142,
19.6,315,-1,1,1,67,175,47,330.4374225999927,330.4374225999927,330.9381510000094,331.0048647999647,331.0550458999933,331.0550458999933,331.0550458999933,331.0550458999933,331.10485279996647,331.10485279996647,331.10485279996647,331.10485279996647,331.10485279996647,331.10485279996647,331.10485279996647,331.10485279996647,331.10485279996647,right,0.4501029999810271,331.57175419997657,331.57175419997657,None,,13,001,2025-12-23_10h04.21.613,2025C_exp1_comp,2022.2.4,60.08431030268142,
22.7,45,-1,1,1,68,176,39,331.57175419997657,331.57175419997657,332.0725097999675,332.1391758999671,332.1895261000027,332.1895261000027,332.1895261000027,332.1895261000027,332.23931400000583,332.23931400000583,332.23931400000583,332.23931400000583,332.23931400000583,332.23931400000583,332.23931400000583,332.23931400000583,332.23931400000583,right,0.4669337999657728,332.72283749998314,332.72283749998314,None,,13,001,2025-12-23_10h04.21.613,2025C_exp1_comp,2022.2.4,60.08431030268142,
29.4,45,1,0,1,69,177,23,332.72283749998314,332.72283749998314,333.22377589996904,333.29046859999653,333.3406646999647,333.3406646999647,333.3406646999647,333.3406646999647,333.39064299996244,333.39064299996244,333.39064299996244,333.39064299996244,333.39064299996244,333.39064299996244,333.39064299996244,333.39064299996244,333.39064299996244,left,1.8519375000032596,335.2589900000021,335.2589900000021,None,,13,001,2025-12-23_10h04.21.613,2025C_exp1_comp,2022.2.4,60.08431030268142,
39.2,45,-1,1,1,70,178,43,335.2589900000021,335.2589900000021,335.75948710000375,335.82609799999045,335.87654129997827,335.87654129997827,335.87654129997827,335.87654129997827,335.92618339997716,335.92618339997716,335.92618339997716,335.92618339997716,335.92618339997716,335.92618339997716,335.92618339997716,335.92618339997716,335.92618339997716,left,1.172053300018888,337.12755249999464,337.12755249999464,None,,13,001,2025-12-23_10h04.21.613,2025C_exp1_comp,2022.2.4,60.08431030268142,
22.7,315,-1,1,1,71,179,48,337.12755249999464,337.12755249999464,337.62796589999925,337.69469689996913,337.74506489996566,337.74506489996566,337.74506489996566,337.74506489996566,337.7949217999703,337.7949217999703,337.7949217999703,337.7949217999703,337.7949217999703,337.7949217999703,337.7949217999703,337.7949217999703,337.7949217999703,right,0.5120405999477953,338.3285795999691,338.3285795999691,None,,13,001,2025-12-23_10h04.21.613,2025C_exp1_comp,2022.2.4,60.08431030268142,
25.5,315,1,0,1,72,180,31,338.3285795999691,338.3285795999691,338.8292337000021,338.89595079998253,338.94625959999394,338.94625959999394,338.94625959999394,338.94625959999394,338.99582249997184,338.99582249997184,338.99582249997184,338.99582249997184,338.99582249997184,338.99582249997184,338.99582249997184,338.99582249997184,338.99582249997184,right,1.0704991999664344,340.0971275999909,340.0971275999909,None,,13,001,2025-12-23_10h04.21.613,2025C_exp1_comp,2022.2.4,60.08431030268142,
12.1,45,-1,0,1,73,181,0,340.0971275999909,340.0971275999909,340.5976445999695,340.6643683000002,340.7145397999557,340.7145397999557,340.7145397999557,340.7145397999557,340.76446189999115,340.76446189999115,340.76446189999115,340.76446189999115,340.76446189999115,340.76446189999115,340.76446189999115,340.76446189999115,340.76446189999115,right,0.45415390003472567,341.2481279000058,341.2481279000058,None,,13,001,2025-12-23_10h04.21.613,2025C_exp1_comp,2022.2.4,60.08431030268142,
25.5,315,1,-1,1,74,182,103,341.2481279000058,341.2481279000058,341.7488175999606,341.8156641999958,341.865864899999,341.865864899999,341.865864899999,341.865864899999,341.91566539998166,341.91566539998166,341.91566539998166,341.91566539998166,341.91566539998166,341.91566539998166,341.91566539998166,341.91566539998166,341.91566539998166,left,0.6785371000296436,342.61604529997567,342.61604529997567,None,,13,001,2025-12-23_10h04.21.613,2025C_exp1_comp,2022.2.4,60.08431030268142,
42.7,315,-1,0,1,75,183,17,342.61604529997567,342.61604529997567,343.1166758000036,343.1835681999801,343.233733400004,343.233733400004,343.233733400004,343.233733400004,343.2835396999726,343.2835396999726,343.2835396999726,343.2835396999726,343.2835396999726,343.2835396999726,343.2835396999726,343.2835396999726,343.2835396999726,right,0.615357699978631,343.9176442999742,343.9176442999742,None,,13,001,2025-12-23_10h04.21.613,2025C_exp1_comp,2022.2.4,60.08431030268142,
25.5,45,-1,1,1,76,184,40,343.9176442999742,343.9176442999742,344.41816780000227,344.48487369995564,344.5351810999564,344.5351810999564,344.5351810999564,344.5351810999564,344.58498649997637,344.58498649997637,344.58498649997637,344.58498649997637,344.58498649997637,344.58498649997637,344.58498649997637,344.58498649997637,344.58498649997637,right,0.4975654000299983,345.10214159998577,345.10214159998577,None,,13,001,2025-12-23_10h04.21.613,2025C_exp1_comp,2022.2.4,60.08431030268142,
19.6,45,-1,-1,1,77,185,74,345.10214159998577,345.10214159998577,345.60278249997646,345.66926920000697,345.7196738999919,345.7196738999919,345.7196738999919,345.7196738999919,345.76946429995587,345.76946429995587,345.76946429995587,345.76946429995587,345.76946429995587,345.76946429995587,345.76946429995587,345.76946429995587,345.76946429995587,right,0.4654517999733798,346.25328309996985,346.25328309996985,None,,13,001,2025-12-23_10h04.21.613,2025C_exp1_comp,2022.2.4,60.08431030268142,
42.7,315,1,1,1,78,186,71,346.25328309996985,346.25328309996985,346.75389549997635,346.8204531999654,346.87088719999883,346.87088719999883,346.87088719999883,346.87088719999883,346.92062759998953,346.92062759998953,346.92062759998953,346.92062759998953,346.92062759998953,346.92062759998953,346.92062759998953,346.92062759998953,346.92062759998953,right,0.47387220000382513,347.42115010001,347.42115010001,None,,13,001,2025-12-23_10h04.21.613,2025C_exp1_comp,2022.2.4,60.08431030268142,
35.3,315,1,1,1,79,187,69,347.42115010001,347.42115010001,347.9215637999587,347.9882715999847,348.0387128999573,348.0387128999573,348.0387128999573,348.0387128999573,348.08853710000403,348.08853710000403,348.08853710000403,348.08853710000403,348.08853710000403,348.08853710000403,348.08853710000403,348.08853710000403,348.08853710000403,right,0.402299499954097,348.5222421999788,348.5222421999788,None,,13,001,2025-12-23_10h04.21.613,2025C_exp1_comp,2022.2.4,60.08431030268142,
35.3,45,1,-1,1,80,188,96,348.5222421999788,348.5222421999788,349.0225904000108,349.0893034999608,349.1397833999945,349.1397833999945,349.1397833999945,349.1397833999945,349.189664000005,349.189664000005,349.189664000005,349.189664000005,349.189664000005,349.189664000005,349.189664000005,349.189664000005,349.189664000005,right,0.8367423999588937,350.05720089998795,350.05720089998795,None,,13,001,2025-12-23_10h04.21.613,2025C_exp1_comp,2022.2.4,60.08431030268142,
22.7,45,1,0,1,81,189,21,350.05720089998795,350.05720089998795,350.5576704000123,350.6243750999565,350.67463679995853,350.67463679995853,350.67463679995853,350.67463679995853,350.7244318999583,350.7244318999583,350.7244318999583,350.7244318999583,350.7244318999583,350.7244318999583,350.7244318999583,350.7244318999583,350.7244318999583,left,0.5267331000068225,351.2749968999997,351.2749968999997,None,,13,001,2025-12-23_10h04.21.613,2025C_exp1_comp,2022.2.4,60.08431030268142,
29.4,45,1,1,1,82,190,59,351.2749968999997,351.2749968999997,351.77547900000354,351.84219799999846,351.8927294999594,351.8927294999594,351.8927294999594,351.8927294999594,351.9423430999741,351.9423430999741,351.9423430999741,351.9423430999741,351.9423430999741,351.9423430999741,351.9423430999741,351.9423430999741,351.9423430999741,left,0.8756370999617502,352.84308859996963,352.84308859996963,None,,13,001,2025-12-23_10h04.21.613,2025C_exp1_comp,2022.2.4,60.08431030268142,
35.3,45,-1,0,1,83,191,6,352.84308859996963,352.84308859996963,353.34386729996186,353.41050669999095,353.4609253999661,353.4609253999661,353.4609253999661,353.4609253999661,353.51062650000677,353.51062650000677,353.51062650000677,353.51062650000677,353.51062650000677,353.51062650000677,353.51062650000677,353.51062650000677,353.51062650000677,left,0.9951786000165157,354.5282197999768,354.5282197999768,None,,13,001,2025-12-23_10h04.21.613,2025C_exp1_comp,2022.2.4,60.08431030268142,
15.7,45,1,1,1,84,192,55,354.5282197999768,354.5282197999768,355.0287537999684,355.0954178000102,355.14575949998107,355.14575949998107,355.14575949998107,355.14575949998107,355.19557029998396,355.19557029998396,355.19557029998396,355.19557029998396,355.19557029998396,355.19557029998396,355.19557029998396,355.19557029998396,355.19557029998396,left,0.5988878000061959,355.8129798999871,355.8129798999871,None,,13,001,2025-12-23_10h04.21.613,2025C_exp1_comp,2022.2.4,60.08431030268142,
15.7,45,-1,1,1,85,193,37,355.8129798999871,355.8129798999871,356.3135459999903,356.3802308999584,356.4305340999854,356.4305340999854,356.4305340999854,356.4305340999854,356.4803263999638,356.4803263999638,356.4803263999638,356.4803263999638,356.4803263999638,356.4803263999638,356.4803263999638,356.4803263999638,356.4803263999638,right,0.4980247999774292,356.9971810999559,356.9971810999559,None,,13,001,2025-12-23_10h04.21.613,2025C_exp1_comp,2022.2.4,60.08431030268142,
22.7,315,1,1,1,86,194,66,356.9971810999559,356.9971810999559,357.4978489999776,357.5644661000115,357.6149135999731,357.6149135999731,357.6149135999731,357.6149135999731,357.6646424999926,357.6646424999926,357.6646424999926,357.6646424999926,357.6646424999926,357.6646424999926,357.6646424999926,357.6646424999926,357.6646424999926,left,1.4496024000109173,359.1329149999656,359.1329149999656,None,,13,001,2025-12-23_10h04.21.613,2025C_exp1_comp,2022.2.4,60.08431030268142,
39.2,45,1,1,1,87,195,61,359.1329149999656,359.1329149999656,359.6332631999976,359.70007289998466,359.75022699998226,359.75022699998226,359.75022699998226,359.75022699998226,359.80020419997163,359.80020419997163,359.80020419997163,359.80020419997163,359.80020419997163,359.80020419997163,359.80020419997163,359.80020419997163,359.80020419997163,right,1.1389568999875337,360.96773769997526,360.96773769997526,None,,13,001,2025-12-23_10h04.21.613,2025C_exp1_comp,2022.2.4,60.08431030268142,
12.1,45,1,0,1,88,196,18,360.96773769997526,360.96773769997526,361.46856409998145,361.53519929997856,361.58548229996813,361.58548229996813,361.58548229996813,361.58548229996813,361.6353503999999,361.6353503999999,361.6353503999999,361.6353503999999,361.6353503999999,361.6353503999999,361.6353503999999,361.6353503999999,361.6353503999999,left,0.5036467000027187,362.1690664999769,362.1690664999769,None,,13,001,2025-12-23_10h04.21.613,2025C_exp1_comp,2022.2.4,60.08431030268142,
39.2,315,-1,0,1,89,197,16,362.1690664999769,362.1690664999769,362.6697225999669,362.7364566999604,362.786783699994,362.786783699994,362.786783699994,362.786783699994,362.8365721000009,362.8365721000009,362.8365721000009,362.8365721000009,362.8365721000009,362.8365721000009,362.8365721000009,362.8365721000009,362.8365721000009,right,0.5021443999721669,363.3702566999709,363.3702566999709,None,,13,001,2025-12-23_10h04.21.613,2025C_exp1_comp,2022.2.4,60.08431030268142,
15.7,315,-1,0,1,90,198,10,363.3702566999709,363.3702566999709,363.8708168999874,363.93766210001195,363.98794269998325,363.98794269998325,363.98794269998325,363.98794269998325,364.0374464999768,364.0374464999768,364.0374464999768,364.0374464999768,364.0374464999768,364.0374464999768,364.0374464999768,364.0374464999768,364.0374464999768,right,0.5007740000146441,364.5550652999664,364.5550652999664,None,,13,001,2025-12-23_10h04.21.613,2025C_exp1_comp,2022.2.4,60.08431030268142,
12.1,45,1,1,1,91,199,54,364.5550652999664,364.5550652999664,365.0554207999958,365.12206669995794,365.1724816999631,365.1724816999631,365.1724816999631,365.1724816999631,365.2221850999631,365.2221850999631,365.2221850999631,365.2221850999631,365.2221850999631,365.2221850999631,365.2221850999631,365.2221850999631,365.2221850999631,left,0.5488919999916106,365.7897411999875,365.7897411999875,None,,13,001,2025-12-23_10h04.21.613,2025C_exp1_comp,2022.2.4,60.08431030268142,
12.1,45,-1,-1,1,92,200,72,365.7897411999875,365.7897411999875,366.2902393999975,366.3569903000025,366.4071502999868,366.4071502999868,366.4071502999868,366.4071502999868,366.45705540000927,366.45705540000927,366.45705540000927,366.45705540000927,366.45705540000927,366.45705540000927,366.45705540000927,366.45705540000927,366.45705540000927,right,0.48243299999739975,366.9575841999613,366.9575841999613,None,,13,001,2025-12-23_10h04.21.613,2025C_exp1_comp,2022.2.4,60.08431030268142,
42.7,45,-1,-1,1,93,201,80,366.9575841999613,366.9575841999613,367.4579584999592,367.52477729995735,367.5750618999591,367.5750618999591,367.5750618999591,367.5750618999591,367.6248398000025,367.6248398000025,367.6248398000025,367.6248398000025,367.6248398000025,367.6248398000025,367.6248398000025,367.6248398000025,367.6248398000025,left,0.562104000011459,368.20848209998803,368.20848209998803,None,,13,001,2025-12-23_10h04.21.613,2025C_exp1_comp,2022.2.4,60.08431030268142,
25.5,315,1,1,1,94,202,67,368.20848209998803,368.20848209998803,368.70916199998464,368.7759199999855,368.8262359999935,368.8262359999935,368.8262359999935,368.8262359999935,368.8758519999683,368.8758519999683,368.8758519999683,368.8758519999683,368.8758519999683,368.8758519999683,368.8758519999683,368.8758519999683,368.8758519999683,left,2.03931989998091,370.94463189999806,370.94463189999806,None,,13,001,2025-12-23_10h04.21.613,2025C_exp1_comp,2022.2.4,60.08431030268142,
29.4,45,-1,1,1,95,203,41,370.94463189999806,370.94463189999806,371.44517239998095,371.5119306999841,371.56228999997256,371.56228999997256,371.56228999997256,371.56228999997256,371.61196469998686,371.61196469998686,371.61196469998686,371.61196469998686,371.61196469998686,371.61196469998686,371.61196469998686,371.61196469998686,371.61196469998686,right,0.41449409996857867,372.0456292000017,372.0456292000017,None,,13,001,2025-12-23_10h04.21.613,2025C_exp1_comp,2022.2.4,60.08431030268142,
35.3,315,-1,1,1,96,204,51,372.0456292000017,372.0456292000017,372.54624950001016,372.6129374000011,372.6632565999753,372.6632565999753,372.6632565999753,372.6632565999753,372.7130560000078,372.7130560000078,372.7130560000078,372.7130560000078,372.7130560000078,372.7130560000078,372.7130560000078,372.7130560000078,372.7130560000078,right,0.49764220003271475,373.2301069999812,373.2301069999812,None,,13,001,2025-12-23_10h04.21.613,2025C_exp1_comp,2022.2.4,60.08431030268142,
25.5,315,-1,1,1,97,205,49,373.2301069999812,373.2301069999812,373.73074049997376,373.7974669999676,373.8476808000123,373.8476808000123,373.8476808000123,373.8476808000123,373.8974410999799,373.8974410999799,373.8974410999799,373.8974410999799,373.8974410999799,373.8974410999799,373.8974410999799,373.8974410999799,373.8974410999799,right,0.8090945999720134,374.7318057999946,374.7318057999946,None,,13,001,2025-12-23_10h04.21.613,2025C_exp1_comp,2022.2.4,60.08431030268142,
