contrast,ori,lefttarget,righttarget,postcue,precue,trials.thisRepN,trials.thisTrialN,trials.thisN,trials.thisIndex,fix1.started,fix2.started,precue_2.started,precue_2.stopped,left_grating.started,right_grating.started,noise_left.started,noise_right.started,fix1.stopped,fix2.stopped,left_grating.stopped,right_grating.stopped,noise_left.stopped,noise_right.stopped,key_resp.started,postcue_2.started,fix1_2.started,fix2_2.started,key_resp.keys,key_resp.rt,key_resp_2.started,break_text_2.started,key_resp_2.keys,key_resp_2.rt,participant,session,date,expName,psychopyVersion,frameRate,
15.7,45,1,1,-1,1,0,0,0,343,18.03261890000431,18.03261890000431,18.51560949999839,18.581739699991886,18.644254599988926,18.644254599988926,18.644254599988926,18.644254599988926,18.68197209999198,18.68197209999198,18.68197209999198,18.68197209999198,18.68197209999198,18.68197209999198,18.68197209999198,18.68197209999198,18.68197209999198,18.68197209999198,num_1,8.083829299954232,26.789851900015492,26.789851900015492,None,,13,001,2025-12-23_10h39.20.471,2025C_exp1_detect,2022.2.4,59.946467801396665,
22.7,315,0,1,-1,-1,0,1,1,192,26.789851900015492,26.789851900015492,27.29044090001844,27.357354799984023,27.407465199998114,27.407465199998114,27.407465199998114,27.407465199998114,27.457257200032473,27.457257200032473,27.457257200032473,27.457257200032473,27.457257200032473,27.457257200032473,27.457257200032473,27.457257200032473,27.457257200032473,27.457257200032473,num_3,2.7885263999924064,30.277144199993927,30.277144199993927,None,,13,001,2025-12-23_10h39.20.471,2025C_exp1_detect,2022.2.4,59.946467801396665,
12.1,45,0,0,1,1,0,2,2,360,30.277144199993927,30.277144199993927,30.777672500000335,30.844383399991784,30.894743799988646,30.894743799988646,30.894743799988646,30.894743799988646,30.94457190000685,30.94457190000685,30.94457190000685,30.94457190000685,30.94457190000685,30.94457190000685,30.94457190000685,30.94457190000685,30.94457190000685,30.94457190000685,num_3,1.9338865000172518,32.895999900007155,32.895999900007155,None,,13,001,2025-12-23_10h39.20.471,2025C_exp1_detect,2022.2.4,59.946467801396665,
15.7,315,1,1,-1,0,0,3,3,64,32.895999900007155,32.895999900007155,33.39669230004074,33.46320100000594,33.513500300003216,33.513500300003216,33.513500300003216,33.513500300003216,33.56334420002531,33.56334420002531,33.56334420002531,33.56334420002531,33.56334420002531,33.56334420002531,33.56334420002531,33.56334420002531,33.56334420002531,33.56334420002531,num_3,1.0759542000014335,34.664368900004774,34.664368900004774,None,,13,001,2025-12-23_10h39.20.471,2025C_exp1_detect,2022.2.4,59.946467801396665,
35.3,315,1,1,-1,1,0,4,4,357,34.664368900004774,34.664368900004774,35.16499050002312,35.23169710004004,35.28200940001989,35.28200940001989,35.28200940001989,35.28200940001989,35.331844600033946,35.331844600033946,35.331844600033946,35.331844600033946,35.331844600033946,35.331844600033946,35.331844600033946,35.331844600033946,35.331844600033946,35.331844600033946,num_3,1.8259498000261374,37.18361430004006,37.18361430004006,None,,13,001,2025-12-23_10h39.20.471,2025C_exp1_detect,2022.2.4,59.946467801396665,
29.4,315,0,0,1,1,0,5,5,374,37.18361430004006,37.18361430004006,37.68408289999934,37.75087660003919,37.80130270001246,37.80130270001246,37.80130270001246,37.80130270001246,37.85103489999892,37.85103489999892,37.85103489999892,37.85103489999892,37.85103489999892,37.85103489999892,37.85103489999892,37.85103489999892,37.85103489999892,37.85103489999892,num_3,12.915392399998382,50.797194299986586,50.797194299986586,None,,13,001,2025-12-23_10h39.20.471,2025C_exp1_detect,2022.2.4,59.946467801396665,
22.7,45,0,1,1,1,0,6,6,399,50.797194299986586,50.797194299986586,51.29783659998793,51.36455980001483,51.415034500008915,51.415034500008915,51.415034500008915,51.415034500008915,51.4647100000293,51.4647100000293,51.4647100000293,51.4647100000293,51.4647100000293,51.4647100000293,51.4647100000293,51.4647100000293,51.4647100000293,51.4647100000293,num_1,2.717120400047861,54.20064400002593,54.20064400002593,None,,13,001,2025-12-23_10h39.20.471,2025C_exp1_detect,2022.2.4,59.946467801396665,
42.7,45,0,0,-1,1,0,7,7,296,54.20064400002593,54.20064400002593,54.701099600002635,54.76777259999653,54.81807999999728,54.81807999999728,54.81807999999728,54.81807999999728,54.86800990003394,54.86800990003394,54.86800990003394,54.86800990003394,54.86800990003394,54.86800990003394,54.86800990003394,54.86800990003394,54.86800990003394,54.86800990003394,num_3,2.2746143999975175,57.17028489999939,57.17028489999939,None,,13,001,2025-12-23_10h39.20.471,2025C_exp1_detect,2022.2.4,59.946467801396665,
42.7,315,1,0,-1,-1,0,8,8,179,57.17028489999939,57.17028489999939,57.670672000036575,57.737467500031926,57.78805620002095,57.78805620002095,57.78805620002095,57.78805620002095,57.8376494999975,57.8376494999975,57.8376494999975,57.8376494999975,57.8376494999975,57.8376494999975,57.8376494999975,57.8376494999975,57.8376494999975,57.8376494999975,num_1,1.136458900058642,59.00552940001944,59.00552940001944,None,,13,001,2025-12-23_10h39.20.471,2025C_exp1_detect,2022.2.4,59.946467801396665,
42.7,315,0,0,1,1,0,9,9,377,59.00552940001944,59.00552940001944,59.506045199988876,59.57295470003737,59.62330020003719,59.62330020003719,59.62330020003719,59.62330020003719,59.67288329999428,59.67288329999428,59.67288329999428,59.67288329999428,59.67288329999428,59.67288329999428,59.67288329999428,59.67288329999428,59.67288329999428,59.67288329999428,num_3,1.7166904999758117,61.407803100009914,61.407803100009914,None,,13,001,2025-12-23_10h39.20.471,2025C_exp1_detect,2022.2.4,59.946467801396665,
39.2,315,1,0,-1,1,0,10,10,322,61.407803100009914,61.407803100009914,61.908439700026065,61.97504009999102,62.02548220002791,62.02548220002791,62.02548220002791,62.02548220002791,62.07518630003324,62.07518630003324,62.07518630003324,62.07518630003324,62.07518630003324,62.07518630003324,62.07518630003324,62.07518630003324,62.07518630003324,62.07518630003324,num_1,1.0269051999785006,63.12621320004109,63.12621320004109,None,,13,001,2025-12-23_10h39.20.471,2025C_exp1_detect,2022.2.4,59.946467801396665,
12.1,315,0,1,-1,1,0,11,11,333,63.12621320004109,63.12621320004109,63.62678849999793,63.69339850003598,63.74374780000653,63.74374780000653,63.74374780000653,63.74374780000653,63.79373710002983,63.79373710002983,63.79373710002983,63.79373710002983,63.79373710002983,63.79373710002983,63.79373710002983,63.79373710002983,63.79373710002983,63.79373710002983,num_3,1.2288016000529751,65.0447607000242,65.0447607000242,None,,13,001,2025-12-23_10h39.20.471,2025C_exp1_detect,2022.2.4,59.946467801396665,
35.3,45,1,0,-1,-1,0,12,12,168,65.0447607000242,65.0447607000242,65.54535299999407,65.61202470003627,65.66234780004015,65.66234780004015,65.66234780004015,65.66234780004015,65.71213559998432,65.71213559998432,65.71213559998432,65.71213559998432,65.71213559998432,65.71213559998432,65.71213559998432,65.71213559998432,65.71213559998432,65.71213559998432,num_1,1.0378509999718517,66.77989190001972,66.77989190001972,None,,13,001,2025-12-23_10h39.20.471,2025C_exp1_detect,2022.2.4,59.946467801396665,
35.3,315,1,0,-1,0,0,13,13,33,66.77989190001972,66.77989190001972,67.28034629998729,67.34716480004136,67.39740790001815,67.39740790001815,67.39740790001815,67.39740790001815,67.4472514000372,67.4472514000372,67.4472514000372,67.4472514000372,67.4472514000372,67.4472514000372,67.4472514000372,67.4472514000372,67.4472514000372,67.4472514000372,num_1,1.1263035000301898,68.5982490000315,68.5982490000315,None,,13,001,2025-12-23_10h39.20.471,2025C_exp1_detect,2022.2.4,59.946467801396665,
42.7,45,1,0,-1,1,0,14,14,314,68.5982490000315,68.5982490000315,69.09892800002126,69.16559160000179,69.21588800003519,69.21588800003519,69.21588800003519,69.21588800003519,69.26576879998902,69.26576879998902,69.26576879998902,69.26576879998902,69.26576879998902,69.26576879998902,69.26576879998902,69.26576879998902,69.26576879998902,69.26576879998902,num_1,1.2767620999948122,70.56702550000045,70.56702550000045,None,,13,001,2025-12-23_10h39.20.471,2025C_exp1_detect,2022.2.4,59.946467801396665,
25.5,315,1,0,1,-1,0,15,15,247,70.56702550000045,70.56702550000045,71.0674990999978,71.13422910001827,71.18446319998475,71.18446319998475,71.18446319998475,71.18446319998475,71.23433460004162,71.23433460004162,71.23433460004162,71.23433460004162,71.23433460004162,71.23433460004162,71.23433460004162,71.23433460004162,71.23433460004162,71.23433460004162,num_3,1.3957845999975689,72.65241470001638,72.65241470001638,None,,13,001,2025-12-23_10h39.20.471,2025C_exp1_detect,2022.2.4,59.946467801396665,
42.7,45,1,1,1,-1,0,16,16,278,72.65241470001638,72.65241470001638,73.15299810003489,73.21964670001762,73.26971010002308,73.26971010002308,73.26971010002308,73.26971010002308,73.31978880002862,73.31978880002862,73.31978880002862,73.31978880002862,73.31978880002862,73.31978880002862,73.31978880002862,73.31978880002862,73.31978880002862,73.31978880002862,num_1,1.8463446000241674,75.18828529998427,75.18828529998427,None,,13,001,2025-12-23_10h39.20.471,2025C_exp1_detect,2022.2.4,59.946467801396665,
35.3,315,1,1,-1,-1,0,17,17,213,75.18828529998427,75.18828529998427,75.68868050002493,75.75543200003449,75.80576290003955,75.80576290003955,75.80576290003955,75.80576290003955,75.85559230000945,75.85559230000945,75.85559230000945,75.85559230000945,75.85559230000945,75.85559230000945,75.85559230000945,75.85559230000945,75.85559230000945,75.85559230000945,num_1,3.0145502000232227,78.89201210002648,78.89201210002648,None,,13,001,2025-12-23_10h39.20.471,2025C_exp1_detect,2022.2.4,59.946467801396665,
19.6,45,0,0,-1,1,0,18,18,290,78.89201210002648,78.89201210002648,79.39273160003358,79.45918170001823,79.50942890002625,79.50942890002625,79.50942890002625,79.50942890002625,79.55929509998532,79.55929509998532,79.55929509998532,79.55929509998532,79.55929509998532,79.55929509998532,79.55929509998532,79.55929509998532,79.55929509998532,79.55929509998532,num_3,2.4708804999827407,82.06200700002955,82.06200700002955,None,,13,001,2025-12-23_10h39.20.471,2025C_exp1_detect,2022.2.4,59.946467801396665,
35.3,315,1,0,-1,1,0,19,19,321,82.06200700002955,82.06200700002955,82.56223440001486,82.62893440003973,82.67934999999125,82.67934999999125,82.67934999999125,82.67934999999125,82.72974919999251,82.72974919999251,82.72974919999251,82.72974919999251,82.72974919999251,82.72974919999251,82.72974919999251,82.72974919999251,82.72974919999251,82.72974919999251,num_1,0.7480892000021413,83.49649250000948,83.49649250000948,None,,13,001,2025-12-23_10h39.20.471,2025C_exp1_detect,2022.2.4,59.946467801396665,
29.4,45,1,1,-1,1,0,20,20,347,83.49649250000948,83.49649250000948,83.99702690000413,84.06382330000633,84.11411050002789,84.11411050002789,84.11411050002789,84.11411050002789,84.16389239998534,84.16389239998534,84.16389239998534,84.16389239998534,84.16389239998534,84.16389239998534,84.16389239998534,84.16389239998534,84.16389239998534,84.16389239998534,num_3,1.985802400042303,86.18252810003469,86.18252810003469,None,,13,001,2025-12-23_10h39.20.471,2025C_exp1_detect,2022.2.4,59.946467801396665,
39.2,45,0,1,-1,0,0,21,21,43,86.18252810003469,86.18252810003469,86.68313359998865,86.74975180003094,86.80024469998898,86.80024469998898,86.80024469998898,86.80024469998898,86.85010109998984,86.85010109998984,86.85010109998984,86.85010109998984,86.85010109998984,86.85010109998984,86.85010109998984,86.85010109998984,86.85010109998984,86.85010109998984,num_3,2.796405000030063,89.66932550002821,89.66932550002821,None,,13,001,2025-12-23_10h39.20.471,2025C_exp1_detect,2022.2.4,59.946467801396665,
25.5,315,0,0,-1,1,0,22,22,301,89.66932550002821,89.66932550002821,90.16986130003352,90.23668690002523,90.28700750001008,90.28700750001008,90.28700750001008,90.28700750001008,90.33696809998946,90.33696809998946,90.33696809998946,90.33696809998946,90.33696809998946,90.33696809998946,90.33696809998946,90.33696809998946,90.33696809998946,90.33696809998946,num_3,1.948625200020615,92.30540150002344,92.30540150002344,None,,13,001,2025-12-23_10h39.20.471,2025C_exp1_detect,2022.2.4,59.946467801396665,
39.2,45,0,0,-1,0,0,23,23,7,92.30540150002344,92.30540150002344,92.80590229999507,92.87261439999565,92.92303559998982,92.92303559998982,92.92303559998982,92.92303559998982,92.9728195000207,92.9728195000207,92.9728195000207,92.9728195000207,92.9728195000207,92.9728195000207,92.9728195000207,92.9728195000207,92.9728195000207,92.9728195000207,num_3,1.0250160999712534,94.02372190001188,94.02372190001188,None,,13,001,2025-12-23_10h39.20.471,2025C_exp1_detect,2022.2.4,59.946467801396665,
39.2,45,1,1,-1,-1,0,24,24,205,94.02372190001188,94.02372190001188,94.52429949998623,94.59105550003005,94.64139499998419,94.64139499998419,94.64139499998419,94.64139499998419,94.6911695000017,94.6911695000017,94.6911695000017,94.6911695000017,94.6911695000017,94.6911695000017,94.6911695000017,94.6911695000017,94.6911695000017,94.6911695000017,num_1,2.0671307999873534,96.77642410004046,96.77642410004046,None,,13,001,2025-12-23_10h39.20.471,2025C_exp1_detect,2022.2.4,59.946467801396665,
12.1,45,1,0,1,1,0,25,25,378,96.77642410004046,96.77642410004046,97.27705239999341,97.3436610000208,97.39395769999828,97.39395769999828,97.39395769999828,97.39395769999828,97.4438877000357,97.4438877000357,97.4438877000357,97.4438877000357,97.4438877000357,97.4438877000357,97.4438877000357,97.4438877000357,97.4438877000357,97.4438877000357,num_3,1.6260431000264362,99.09551569999894,99.09551569999894,None,,13,001,2025-12-23_10h39.20.471,2025C_exp1_detect,2022.2.4,59.946467801396665,
39.2,45,0,1,1,0,0,26,26,115,99.09551569999894,99.09551569999894,99.59595400001854,99.66270190000068,99.71301330003189,99.71301330003189,99.71301330003189,99.71301330003189,99.76296080002794,99.76296080002794,99.76296080002794,99.76296080002794,99.76296080002794,99.76296080002794,99.76296080002794,99.76296080002794,99.76296080002794,99.76296080002794,num_3,1.6590550999972038,101.4478286000085,101.4478286000085,None,,13,001,2025-12-23_10h39.20.471,2025C_exp1_detect,2022.2.4,59.946467801396665,
29.4,45,1,0,-1,-1,0,27,27,167,101.4478286000085,101.4478286000085,101.94841439998709,102.015379199991,102.06531460001133,102.06531460001133,102.06531460001133,102.06531460001133,102.11516169999959,102.11516169999959,102.11516169999959,102.11516169999959,102.11516169999959,102.11516169999959,102.11516169999959,102.11516169999959,102.11516169999959,102.11516169999959,num_1,1.1227345999795943,103.26642010000069,103.26642010000069,None,,13,001,2025-12-23_10h39.20.471,2025C_exp1_detect,2022.2.4,59.946467801396665,
29.4,45,0,1,-1,1,0,28,28,329,103.26642010000069,103.26642010000069,103.76671039999928,103.83359460002976,103.88380300003337,103.88380300003337,103.88380300003337,103.88380300003337,103.93383420002647,103.93383420002647,103.93383420002647,103.93383420002647,103.93383420002647,103.93383420002647,103.93383420002647,103.93383420002647,103.93383420002647,103.93383420002647,num_3,2.264041199989151,106.21915680001257,106.21915680001257,None,,13,001,2025-12-23_10h39.20.471,2025C_exp1_detect,2022.2.4,59.946467801396665,
25.5,45,1,1,-1,-1,0,29,29,202,106.21915680001257,106.21915680001257,106.71974710002542,106.78647250001086,106.83683039998868,106.83683039998868,106.83683039998868,106.83683039998868,106.88669280003523,106.88669280003523,106.88669280003523,106.88669280003523,106.88669280003523,106.88669280003523,106.88669280003523,106.88669280003523,106.88669280003523,106.88669280003523,num_1,2.207698500016704,109.12206690001767,109.12206690001767,None,,13,001,2025-12-23_10h39.20.471,2025C_exp1_detect,2022.2.4,59.946467801396665,
29.4,315,0,1,-1,-1,0,30,30,194,109.12206690001767,109.12206690001767,109.62275540002156,109.68943520000903,109.73965910001425,109.73965910001425,109.73965910001425,109.73965910001425,109.78953740000725,109.78953740000725,109.78953740000725,109.78953740000725,109.78953740000725,109.78953740000725,109.78953740000725,109.78953740000725,109.78953740000725,109.78953740000725,num_3,2.584233300003689,112.39204509998672,112.39204509998672,None,,13,001,2025-12-23_10h39.20.471,2025C_exp1_detect,2022.2.4,59.946467801396665,
35.3,45,1,1,1,-1,0,31,31,276,112.39204509998672,112.39204509998672,112.89256320003187,112.95927270001266,113.00991580000846,113.00991580000846,113.00991580000846,113.00991580000846,113.05976810003631,113.05976810003631,113.05976810003631,113.05976810003631,113.05976810003631,113.05976810003631,113.05976810003631,113.05976810003631,113.05976810003631,113.05976810003631,num_3,3.098146000003908,116.179295799986,116.179295799986,None,,13,001,2025-12-23_10h39.20.471,2025C_exp1_detect,2022.2.4,59.946467801396665,
15.7,45,0,0,-1,1,0,32,32,289,116.179295799986,116.179295799986,116.67987100000028,116.74641100002918,116.79667519999202,116.79667519999202,116.79667519999202,116.79667519999202,116.84653059998527,116.84653059998527,116.84653059998527,116.84653059998527,116.84653059998527,116.84653059998527,116.84653059998527,116.84653059998527,116.84653059998527,116.84653059998527,num_3,0.9673712000367232,117.83098219998647,117.83098219998647,None,,13,001,2025-12-23_10h39.20.471,2025C_exp1_detect,2022.2.4,59.946467801396665,
35.3,45,1,1,1,0,0,33,33,132,117.83098219998647,117.83098219998647,118.33139450004091,118.39811290003126,118.44834340002853,118.44834340002853,118.44834340002853,118.44834340002853,118.49821360001806,118.49821360001806,118.49821360001806,118.49821360001806,118.49821360001806,118.49821360001806,118.49821360001806,118.49821360001806,118.49821360001806,118.49821360001806,num_1,2.69194280001102,121.217581600009,121.217581600009,None,,13,001,2025-12-23_10h39.20.471,2025C_exp1_detect,2022.2.4,59.946467801396665,
19.6,45,1,1,1,-1,0,34,34,272,121.217581600009,121.217581600009,121.71816590003436,121.78476960002445,121.83538760000374,121.83538760000374,121.83538760000374,121.83538760000374,121.88526140002068,121.88526140002068,121.88526140002068,121.88526140002068,121.88526140002068,121.88526140002068,121.88526140002068,121.88526140002068,121.88526140002068,121.88526140002068,num_3,1.1846200000145473,123.10270920000039,123.10270920000039,None,,13,001,2025-12-23_10h39.20.471,2025C_exp1_detect,2022.2.4,59.946467801396665,
42.7,315,1,0,-1,0,0,35,35,35,123.10270920000039,123.10270920000039,123.60324830003083,123.66998780000722,123.7202664000215,123.7202664000215,123.7202664000215,123.7202664000215,123.77010210003937,123.77010210003937,123.77010210003937,123.77010210003937,123.77010210003937,123.77010210003937,123.77010210003937,123.77010210003937,123.77010210003937,123.77010210003937,num_1,1.699583400040865,125.48850010003662,125.48850010003662,None,,13,001,2025-12-23_10h39.20.471,2025C_exp1_detect,2022.2.4,59.946467801396665,
29.4,315,1,1,1,-1,0,36,36,284,125.48850010003662,125.48850010003662,125.98904409998795,126.0557928000344,126.10599970002659,126.10599970002659,126.10599970002659,126.10599970002659,126.15588690002915,126.15588690002915,126.15588690002915,126.15588690002915,126.15588690002915,126.15588690002915,126.15588690002915,126.15588690002915,126.15588690002915,126.15588690002915,num_3,1.498034699994605,127.67401090002386,127.67401090002386,None,,13,001,2025-12-23_10h39.20.471,2025C_exp1_detect,2022.2.4,59.946467801396665,
22.7,45,1,0,-1,1,0,37,37,309,127.67401090002386,127.67401090002386,128.1746082000318,128.24119070003508,128.29175889998442,128.29175889998442,128.29175889998442,128.29175889998442,128.3414300000295,128.3414300000295,128.3414300000295,128.3414300000295,128.3414300000295,128.3414300000295,128.3414300000295,128.3414300000295,128.3414300000295,128.3414300000295,num_1,2.192993100034073,130.56016900000395,130.56016900000395,None,,13,001,2025-12-23_10h39.20.471,2025C_exp1_detect,2022.2.4,59.946467801396665,
35.3,45,1,1,-1,-1,0,38,38,204,130.56016900000395,130.56016900000395,131.06073150003795,131.1275675999932,131.17782510002144,131.17782510002144,131.17782510002144,131.17782510002144,131.22755170002347,131.22755170002347,131.22755170002347,131.22755170002347,131.22755170002347,131.22755170002347,131.22755170002347,131.22755170002347,131.22755170002347,131.22755170002347,num_1,1.0102311999653466,132.26196830003755,132.26196830003755,None,,13,001,2025-12-23_10h39.20.471,2025C_exp1_detect,2022.2.4,59.946467801396665,
35.3,315,1,0,1,0,0,39,39,105,132.26196830003755,132.26196830003755,132.76242059998913,132.8296326000127,132.87941689998843,132.87941689998843,132.87941689998843,132.87941689998843,132.92927010002313,132.92927010002313,132.92927010002313,132.92927010002313,132.92927010002313,132.92927010002313,132.92927010002313,132.92927010002313,132.92927010002313,132.92927010002313,num_3,1.4522782999556512,134.41406700003427,134.41406700003427,None,,13,001,2025-12-23_10h39.20.471,2025C_exp1_detect,2022.2.4,59.946467801396665,
19.6,45,1,1,-1,0,0,40,40,56,134.41406700003427,134.41406700003427,134.91481829999248,134.98126269999193,135.03157890000148,135.03157890000148,135.03157890000148,135.03157890000148,135.08187980001094,135.08187980001094,135.08187980001094,135.08187980001094,135.08187980001094,135.08187980001094,135.08187980001094,135.08187980001094,135.08187980001094,135.08187980001094,num_1,1.5484753000200726,136.6495922000031,136.6495922000031,None,,13,001,2025-12-23_10h39.20.471,2025C_exp1_detect,2022.2.4,59.946467801396665,
22.7,45,0,1,-1,0,0,41,41,39,136.6495922000031,136.6495922000031,137.15018430002965,137.2169418000267,137.26720900001237,137.26720900001237,137.26720900001237,137.26720900001237,137.31725960003678,137.31725960003678,137.31725960003678,137.31725960003678,137.31725960003678,137.31725960003678,137.31725960003678,137.31725960003678,137.31725960003678,137.31725960003678,num_3,2.520271599991247,139.86952180002118,139.86952180002118,None,,13,001,2025-12-23_10h39.20.471,2025C_exp1_detect,2022.2.4,59.946467801396665,
35.3,315,0,1,1,1,0,42,42,411,139.86952180002118,139.86952180002118,140.3700855000061,140.4367057000054,140.4869923000224,140.4869923000224,140.4869923000224,140.4869923000224,140.53693040000508,140.53693040000508,140.53693040000508,140.53693040000508,140.53693040000508,140.53693040000508,140.53693040000508,140.53693040000508,140.53693040000508,140.53693040000508,num_3,0.7572319000028074,141.32119909999892,141.32119909999892,None,,13,001,2025-12-23_10h39.20.471,2025C_exp1_detect,2022.2.4,59.946467801396665,
29.4,315,0,0,-1,1,0,43,43,302,141.32119909999892,141.32119909999892,141.82172680000076,141.8881565000047,141.93862100003753,141.93862100003753,141.93862100003753,141.93862100003753,141.98857009998756,141.98857009998756,141.98857009998756,141.98857009998756,141.98857009998756,141.98857009998756,141.98857009998756,141.98857009998756,141.98857009998756,141.98857009998756,num_3,2.2089677000185475,144.22382140002446,144.22382140002446,None,,13,001,2025-12-23_10h39.20.471,2025C_exp1_detect,2022.2.4,59.946467801396665,
19.6,45,0,0,1,-1,0,44,44,218,144.22382140002446,144.22382140002446,144.72462839999935,144.7911041000043,144.8413446000195,144.8413446000195,144.8413446000195,144.8413446000195,144.8916304000304,144.8916304000304,144.8916304000304,144.8916304000304,144.8916304000304,144.8916304000304,144.8916304000304,144.8916304000304,144.8916304000304,144.8916304000304,num_3,1.08224199997494,145.9924306999892,145.9924306999892,None,,13,001,2025-12-23_10h39.20.471,2025C_exp1_detect,2022.2.4,59.946467801396665,
42.7,45,1,1,1,0,0,45,45,134,145.9924306999892,145.9924306999892,146.49278910004068,146.5597468999913,146.6098800000036,146.6098800000036,146.6098800000036,146.6098800000036,146.65965139999753,146.65965139999753,146.65965139999753,146.65965139999753,146.65965139999753,146.65965139999753,146.65965139999753,146.65965139999753,146.65965139999753,146.65965139999753,num_3,2.2426214000442997,148.92864530003862,148.92864530003862,None,,13,001,2025-12-23_10h39.20.471,2025C_exp1_detect,2022.2.4,59.946467801396665,
35.3,315,0,0,-1,1,0,46,46,303,148.92864530003862,148.92864530003862,149.42906150000636,149.49576970003545,149.54612690000795,149.54612690000795,149.54612690000795,149.54612690000795,149.5961608000216,149.5961608000216,149.5961608000216,149.5961608000216,149.5961608000216,149.5961608000216,149.5961608000216,149.5961608000216,149.5961608000216,149.5961608000216,num_3,1.0500029000104405,150.66361480002524,150.66361480002524,None,,13,001,2025-12-23_10h39.20.471,2025C_exp1_detect,2022.2.4,59.946467801396665,
39.2,315,0,1,1,0,0,47,47,124,150.66361480002524,150.66361480002524,151.1642783000134,151.23094139999012,151.28136470000027,151.28136470000027,151.28136470000027,151.28136470000027,151.33150349999778,151.33150349999778,151.33150349999778,151.33150349999778,151.33150349999778,151.33150349999778,151.33150349999778,151.33150349999778,151.33150349999778,151.33150349999778,num_1,1.1623804999981076,152.51539610000327,152.51539610000327,None,,13,001,2025-12-23_10h39.20.471,2025C_exp1_detect,2022.2.4,59.946467801396665,
25.5,315,1,0,1,0,0,48,48,103,152.51539610000327,152.51539610000327,153.01666130003287,153.08279780001612,153.13301059999503,153.13301059999503,153.13301059999503,153.13301059999503,153.18286500003887,153.18286500003887,153.18286500003887,153.18286500003887,153.18286500003887,153.18286500003887,153.18286500003887,153.18286500003887,153.18286500003887,153.18286500003887,num_3,1.1672087999759242,154.36756049998803,154.36756049998803,None,,13,001,2025-12-23_10h39.20.471,2025C_exp1_detect,2022.2.4,59.946467801396665,
39.2,45,1,0,1,0,0,49,49,97,154.36756049998803,154.36756049998803,154.86801999999443,154.93452220002655,154.98478530003922,154.98478530003922,154.98478530003922,154.98478530003922,155.03473700000905,155.03473700000905,155.03473700000905,155.03473700000905,155.03473700000905,155.03473700000905,155.03473700000905,155.03473700000905,155.03473700000905,155.03473700000905,num_3,1.9232434000005014,156.9865931000095,156.9865931000095,None,,13,001,2025-12-23_10h39.20.471,2025C_exp1_detect,2022.2.4,59.946467801396665,
39.2,45,0,0,1,1,0,50,50,367,156.9865931000095,156.9865931000095,157.4876663000323,157.55383699998492,157.60410880000563,157.60410880000563,157.60410880000563,157.60410880000563,157.65405270003248,157.65405270003248,157.65405270003248,157.65405270003248,157.65405270003248,157.65405270003248,157.65405270003248,157.65405270003248,157.65405270003248,157.65405270003248,num_3,1.0481335000367835,158.7216423000209,158.7216423000209,None,,13,001,2025-12-23_10h39.20.471,2025C_exp1_detect,2022.2.4,59.946467801396665,
19.6,315,1,1,1,0,0,51,51,137,158.7216423000209,158.7216423000209,159.22216350003146,159.28909440001007,159.33931579999626,159.33931579999626,159.33931579999626,159.33931579999626,159.38945600000443,159.38945600000443,159.38945600000443,159.38945600000443,159.38945600000443,159.38945600000443,159.38945600000443,159.38945600000443,159.38945600000443,159.38945600000443,num_3,1.240740499983076,160.65694070002064,160.65694070002064,None,,13,001,2025-12-23_10h39.20.471,2025C_exp1_detect,2022.2.4,59.946467801396665,
22.7,315,0,0,-1,0,0,52,52,12,160.65694070002064,160.65694070002064,161.15759369998705,161.22408590000123,161.2745244000107,161.2745244000107,161.2745244000107,161.2745244000107,161.32443099998636,161.32443099998636,161.32443099998636,161.32443099998636,161.32443099998636,161.32443099998636,161.32443099998636,161.32443099998636,161.32443099998636,161.32443099998636,num_3,0.9933159000356682,162.34199149999768,162.34199149999768,None,,13,001,2025-12-23_10h39.20.471,2025C_exp1_detect,2022.2.4,59.946467801396665,
15.7,315,0,1,1,-1,0,53,53,262,162.34199149999768,162.34199149999768,162.842554700037,162.90923370001838,162.95970120001584,162.95970120001584,162.95970120001584,162.95970120001584,163.00978620001115,163.00978620001115,163.00978620001115,163.00978620001115,163.00978620001115,163.00978620001115,163.00978620001115,163.00978620001115,163.00978620001115,163.00978620001115,num_1,2.0844076999928802,165.11132060003,165.11132060003,None,,13,001,2025-12-23_10h39.20.471,2025C_exp1_detect,2022.2.4,59.946467801396665,
25.5,45,0,0,1,0,0,54,54,76,165.11132060003,165.11132060003,165.61211869999534,165.67874000000302,165.72893360001035,165.72893360001035,165.72893360001035,165.72893360001035,165.778771399986,165.778771399986,165.778771399986,165.778771399986,165.778771399986,165.778771399986,165.778771399986,165.778771399986,165.778771399986,165.778771399986,num_3,1.003229200025089,166.8131616000319,166.8131616000319,None,,13,001,2025-12-23_10h39.20.471,2025C_exp1_detect,2022.2.4,59.946467801396665,
25.5,315,0,1,1,-1,0,55,55,265,166.8131616000319,166.8131616000319,167.3136785000097,167.3803260999848,167.4306694000261,167.4306694000261,167.4306694000261,167.4306694000261,167.48054190003313,167.48054190003313,167.48054190003313,167.48054190003313,167.48054190003313,167.48054190003313,167.48054190003313,167.48054190003313,167.48054190003313,167.48054190003313,num_1,1.5176934000337496,169.01529499999015,169.01529499999015,None,,13,001,2025-12-23_10h39.20.471,2025C_exp1_detect,2022.2.4,59.946467801396665,
29.4,45,1,0,1,1,0,56,56,383,169.01529499999015,169.01529499999015,169.5161209999933,169.58254880004097,169.63288480002666,169.63288480002666,169.63288480002666,169.63288480002666,169.6827537000063,169.6827537000063,169.6827537000063,169.6827537000063,169.6827537000063,169.6827537000063,169.6827537000063,169.6827537000063,169.6827537000063,169.6827537000063,num_3,2.0992728999699466,171.80148030002601,171.80148030002601,None,,13,001,2025-12-23_10h39.20.471,2025C_exp1_detect,2022.2.4,59.946467801396665,
22.7,315,0,1,1,1,0,57,57,408,171.80148030002601,171.80148030002601,172.3021776000387,172.3686902000336,172.41900059999898,172.41900059999898,172.41900059999898,172.41900059999898,172.4688605000265,172.4688605000265,172.4688605000265,172.4688605000265,172.4688605000265,172.4688605000265,172.4688605000265,172.4688605000265,172.4688605000265,172.4688605000265,num_1,1.5530937999719754,174.05372570001055,174.05372570001055,None,,13,001,2025-12-23_10h39.20.471,2025C_exp1_detect,2022.2.4,59.946467801396665,
25.5,45,1,1,-1,0,0,58,58,58,174.05372570001055,174.05372570001055,174.55422160000307,174.62085559999105,174.671210600005,174.671210600005,174.671210600005,174.671210600005,174.7210511000012,174.7210511000012,174.7210511000012,174.7210511000012,174.7210511000012,174.7210511000012,174.7210511000012,174.7210511000012,174.7210511000012,174.7210511000012,num_3,2.2612281999900006,177.00673900003312,177.00673900003312,None,,13,001,2025-12-23_10h39.20.471,2025C_exp1_detect,2022.2.4,59.946467801396665,
42.7,315,0,0,-1,-1,0,59,59,161,177.00673900003312,177.00673900003312,177.50719010003377,177.57386400003452,177.62406330002705,177.62406330002705,177.62406330002705,177.62406330002705,177.6742183000315,177.6742183000315,177.6742183000315,177.6742183000315,177.6742183000315,177.6742183000315,177.6742183000315,177.6742183000315,177.6742183000315,177.6742183000315,num_3,1.011338300013449,178.7082747000386,178.7082747000386,None,,13,001,2025-12-23_10h39.20.471,2025C_exp1_detect,2022.2.4,59.946467801396665,
22.7,315,1,0,-1,1,0,60,60,318,178.7082747000386,178.7082747000386,179.20878829999128,179.27557850000449,179.32590450003045,179.32590450003045,179.32590450003045,179.32590450003045,179.37584950000746,179.37584950000746,179.37584950000746,179.37584950000746,179.37584950000746,179.37584950000746,179.37584950000746,179.37584950000746,179.37584950000746,179.37584950000746,num_1,0.8700429999735206,180.2765464000404,180.2765464000404,None,,13,001,2025-12-23_10h39.20.471,2025C_exp1_detect,2022.2.4,59.946467801396665,
22.7,45,1,1,-1,1,0,61,61,345,180.2765464000404,180.2765464000404,180.77712779998546,180.8437716999906,180.8941745000193,180.8941745000193,180.8941745000193,180.8941745000193,180.94406170002185,180.94406170002185,180.94406170002185,180.94406170002185,180.94406170002185,180.94406170002185,180.94406170002185,180.94406170002185,180.94406170002185,180.94406170002185,num_1,3.485679999983404,184.4473466000054,184.4473466000054,None,,13,001,2025-12-23_10h39.20.471,2025C_exp1_detect,2022.2.4,59.946467801396665,
15.7,45,0,0,-1,0,0,62,62,1,184.4473466000054,184.4473466000054,184.94790989998728,185.01456610002788,185.06499829998938,185.06499829998938,185.06499829998938,185.06499829998938,185.1148683000356,185.1148683000356,185.1148683000356,185.1148683000356,185.1148683000356,185.1148683000356,185.1148683000356,185.1148683000356,185.1148683000356,185.1148683000356,num_3,0.9868490999797359,186.13238490000367,186.13238490000367,None,,13,001,2025-12-23_10h39.20.471,2025C_exp1_detect,2022.2.4,59.946467801396665,
35.3,315,1,1,-1,0,0,63,63,69,186.13238490000367,186.13238490000367,186.63300130004063,186.69959850003943,186.74993930000346,186.74993930000346,186.74993930000346,186.74993930000346,186.79976200003875,186.79976200003875,186.79976200003875,186.79976200003875,186.79976200003875,186.79976200003875,186.79976200003875,186.79976200003875,186.79976200003875,186.79976200003875,num_1,1.4702991000376642,188.30136590002803,188.30136590002803,None,,13,001,2025-12-23_10h39.20.471,2025C_exp1_detect,2022.2.4,59.946467801396665,
22.7,315,0,1,-1,0,0,64,64,48,188.30136590002803,188.30136590002803,188.801761300012,188.8685092999949,188.91881669999566,188.91881669999566,188.91881669999566,188.91881669999566,188.96867570001632,188.96867570001632,188.96867570001632,188.96867570001632,188.96867570001632,188.96867570001632,188.96867570001632,188.96867570001632,188.96867570001632,188.96867570001632,num_3,1.9650349000003189,190.95389980002074,190.95389980002074,None,,13,001,2025-12-23_10h39.20.471,2025C_exp1_detect,2022.2.4,59.946467801396665,
35.3,45,0,1,-1,0,0,65,65,42,190.95389980002074,190.95389980002074,191.45443640003214,191.5211363999988,191.57145410001976,191.57145410001976,191.57145410001976,191.57145410001976,191.621557400038,191.621557400038,191.621557400038,191.621557400038,191.621557400038,191.621557400038,191.621557400038,191.621557400038,191.621557400038,191.621557400038,num_3,1.848708900040947,193.48972310003592,193.48972310003592,None,,13,001,2025-12-23_10h39.20.471,2025C_exp1_detect,2022.2.4,59.946467801396665,
19.6,315,1,0,-1,0,0,66,66,29,193.48972310003592,193.48972310003592,193.99033960001543,194.05695930001093,194.10718829999678,194.10718829999678,194.10718829999678,194.10718829999678,194.15705730003538,194.15705730003538,194.15705730003538,194.15705730003538,194.15705730003538,194.15705730003538,194.15705730003538,194.15705730003538,194.15705730003538,194.15705730003538,num_1,0.7449943000101484,194.92442490003305,194.92442490003305,None,,13,001,2025-12-23_10h39.20.471,2025C_exp1_detect,2022.2.4,59.946467801396665,
19.6,315,1,1,1,-1,0,67,67,281,194.92442490003305,194.92442490003305,195.42494060000172,195.49171179998666,195.5419656999875,195.5419656999875,195.5419656999875,195.5419656999875,195.5920155000058,195.5920155000058,195.5920155000058,195.5920155000058,195.5920155000058,195.5920155000058,195.5920155000058,195.5920155000058,195.5920155000058,195.5920155000058,num_1,1.8617996000102721,197.47727080003824,197.47727080003824,None,,13,001,2025-12-23_10h39.20.471,2025C_exp1_detect,2022.2.4,59.946467801396665,
15.7,45,1,1,1,0,0,68,68,127,197.47727080003824,197.47727080003824,197.9777092000004,198.0442444999935,198.09459570003673,198.09459570003673,198.09459570003673,198.09459570003673,198.14445230003912,198.14445230003912,198.14445230003912,198.14445230003912,198.14445230003912,198.14445230003912,198.14445230003912,198.14445230003912,198.14445230003912,198.14445230003912,num_3,0.6692772000096738,198.84512030001497,198.84512030001497,None,,13,001,2025-12-23_10h39.20.471,2025C_exp1_detect,2022.2.4,59.946467801396665,
35.3,315,1,0,1,-1,0,69,69,249,198.84512030001497,198.84512030001497,199.34564890002366,199.41236519999802,199.46265980001772,199.46265980001772,199.46265980001772,199.46265980001772,199.5126062000054,199.5126062000054,199.5126062000054,199.5126062000054,199.5126062000054,199.5126062000054,199.5126062000054,199.5126062000054,199.5126062000054,199.5126062000054,num_3,1.125329000002239,200.66350239998428,200.66350239998428,None,,13,001,2025-12-23_10h39.20.471,2025C_exp1_detect,2022.2.4,59.946467801396665,
35.3,45,1,0,-1,0,0,70,70,24,200.66350239998428,200.66350239998428,201.1640594000346,201.23078610002995,201.28114700003061,201.28114700003061,201.28114700003061,201.28114700003061,201.33104800002184,201.33104800002184,201.33104800002184,201.33104800002184,201.33104800002184,201.33104800002184,201.33104800002184,201.33104800002184,201.33104800002184,201.33104800002184,num_1,0.9710723000462167,202.3319679000415,202.3319679000415,None,,13,001,2025-12-23_10h39.20.471,2025C_exp1_detect,2022.2.4,59.946467801396665,
42.7,45,0,1,1,-1,0,71,71,260,202.3319679000415,202.3319679000415,202.83256410004105,202.89918589999434,202.94940690003568,202.94940690003568,202.94940690003568,202.94940690003568,202.99927470000694,202.99927470000694,202.99927470000694,202.99927470000694,202.99927470000694,202.99927470000694,202.99927470000694,202.99927470000694,202.99927470000694,202.99927470000694,num_3,0.6141616000095382,203.63319510000292,203.63319510000292,None,,13,001,2025-12-23_10h39.20.471,2025C_exp1_detect,2022.2.4,59.946467801396665,
42.7,315,1,1,-1,1,0,72,72,359,203.63319510000292,203.63319510000292,204.1336505000363,204.20036150002852,204.25096109998412,204.25096109998412,204.25096109998412,204.25096109998412,204.30068480002228,204.30068480002228,204.30068480002228,204.30068480002228,204.30068480002228,204.30068480002228,204.30068480002228,204.30068480002228,204.30068480002228,204.30068480002228,num_3,1.0336671999539249,205.35155000002123,205.35155000002123,None,,13,001,2025-12-23_10h39.20.471,2025C_exp1_detect,2022.2.4,59.946467801396665,
35.3,45,0,1,1,1,0,73,73,402,205.35155000002123,205.35155000002123,205.8520986000076,205.9188026000047,205.96920789999422,205.96920789999422,205.96920789999422,205.96920789999422,206.01909960003104,206.01909960003104,206.01909960003104,206.01909960003104,206.01909960003104,206.01909960003104,206.01909960003104,206.01909960003104,206.01909960003104,206.01909960003104,num_1,1.098383400007151,207.1366432000068,207.1366432000068,None,,13,001,2025-12-23_10h39.20.471,2025C_exp1_detect,2022.2.4,59.946467801396665,
25.5,45,1,0,-1,1,0,74,74,310,207.1366432000068,207.1366432000068,207.6371433000313,207.70398160000332,207.75431980000576,207.75431980000576,207.75431980000576,207.75431980000576,207.8041111000348,207.8041111000348,207.8041111000348,207.8041111000348,207.8041111000348,207.8041111000348,207.8041111000348,207.8041111000348,207.8041111000348,207.8041111000348,num_3,1.425978200044483,209.25582200003555,209.25582200003555,None,,13,001,2025-12-23_10h39.20.471,2025C_exp1_detect,2022.2.4,59.946467801396665,
42.7,45,1,0,-1,-1,0,75,75,170,209.25582200003555,209.25582200003555,209.75613069999963,209.8227386000217,209.8730111999903,209.8730111999903,209.8730111999903,209.8730111999903,209.92285470000934,209.92285470000934,209.92285470000934,209.92285470000934,209.92285470000934,209.92285470000934,209.92285470000934,209.92285470000934,209.92285470000934,209.92285470000934,num_1,0.8993564000120386,210.84035750001203,210.84035750001203,None,,13,001,2025-12-23_10h39.20.471,2025C_exp1_detect,2022.2.4,59.946467801396665,
22.7,45,0,0,-1,0,0,76,76,3,210.84035750001203,210.84035750001203,211.34112530003767,211.40769090002868,211.45797059999313,211.45797059999313,211.45797059999313,211.45797059999313,211.50800410000375,211.50800410000375,211.50800410000375,211.50800410000375,211.50800410000375,211.50800410000375,211.50800410000375,211.50800410000375,211.50800410000375,211.50800410000375,num_3,1.1140197000349872,212.64219330000924,212.64219330000924,None,,13,001,2025-12-23_10h39.20.471,2025C_exp1_detect,2022.2.4,59.946467801396665,
25.5,315,1,1,-1,0,0,77,77,67,212.64219330000924,212.64219330000924,213.14281869999832,213.20954980002716,213.26020560000325,213.26020560000325,213.26020560000325,213.26020560000325,213.3096719000023,213.3096719000023,213.3096719000023,213.3096719000023,213.3096719000023,213.3096719000023,213.3096719000023,213.3096719000023,213.3096719000023,213.3096719000023,num_1,2.2801690999767743,215.61202729999786,215.61202729999786,None,,13,001,2025-12-23_10h39.20.471,2025C_exp1_detect,2022.2.4,59.946467801396665,
29.4,315,0,1,1,-1,0,78,78,266,215.61202729999786,215.61202729999786,216.11237640003674,216.17946389998542,216.22952380002243,216.22952380002243,216.22952380002243,216.22952380002243,216.27928830002202,216.27928830002202,216.27928830002202,216.27928830002202,216.27928830002202,216.27928830002202,216.27928830002202,216.27928830002202,216.27928830002202,216.27928830002202,num_3,0.734377900022082,217.029829600011,217.029829600011,None,,13,001,2025-12-23_10h39.20.471,2025C_exp1_detect,2022.2.4,59.946467801396665,
39.2,315,1,0,1,-1,0,79,79,250,217.029829600011,217.029829600011,217.53045540000312,217.5971921000164,217.6475470000296,217.6475470000296,217.6475470000296,217.6475470000296,217.69741900003282,217.69741900003282,217.69741900003282,217.69741900003282,217.69741900003282,217.69741900003282,217.69741900003282,217.69741900003282,217.69741900003282,217.69741900003282,num_3,1.260900399996899,218.98179739998886,218.98179739998886,None,,13,001,2025-12-23_10h39.20.471,2025C_exp1_detect,2022.2.4,59.946467801396665,
39.2,315,0,1,-1,0,0,80,80,52,218.98179739998886,218.98179739998886,219.48242670000764,219.54926790000172,219.59951900003944,219.59951900003944,219.59951900003944,219.59951900003944,219.64931489998708,219.64931489998708,219.64931489998708,219.64931489998708,219.64931489998708,219.64931489998708,219.64931489998708,219.64931489998708,219.64931489998708,219.64931489998708,num_3,1.7566760000190698,221.4344002000289,221.4344002000289,None,,13,001,2025-12-23_10h39.20.471,2025C_exp1_detect,2022.2.4,59.946467801396665,
12.1,45,1,1,1,1,0,81,81,414,221.4344002000289,221.4344002000289,221.93486320000375,222.00154170003952,222.05187700001989,222.05187700001989,222.05187700001989,222.05187700001989,222.10177760000806,222.10177760000806,222.10177760000806,222.10177760000806,222.10177760000806,222.10177760000806,222.10177760000806,222.10177760000806,222.10177760000806,222.10177760000806,num_1,1.7042558999964967,223.83673169999383,223.83673169999383,None,,13,001,2025-12-23_10h39.20.471,2025C_exp1_detect,2022.2.4,59.946467801396665,
15.7,315,0,1,1,0,0,82,82,118,223.83673169999383,223.83673169999383,224.3372692000121,224.40396090003196,224.45425090001663,224.45425090001663,224.45425090001663,224.45425090001663,224.5040835000109,224.5040835000109,224.5040835000109,224.5040835000109,224.5040835000109,224.5040835000109,224.5040835000109,224.5040835000109,224.5040835000109,224.5040835000109,num_1,0.7501985999988392,225.2717233999865,225.2717233999865,None,,13,001,2025-12-23_10h39.20.471,2025C_exp1_detect,2022.2.4,59.946467801396665,
22.7,315,1,1,-1,1,0,83,83,354,225.2717233999865,225.2717233999865,225.77205470000627,225.83889200002886,225.8891058000154,225.8891058000154,225.8891058000154,225.8891058000154,225.93896420003148,225.93896420003148,225.93896420003148,225.93896420003148,225.93896420003148,225.93896420003148,225.93896420003148,225.93896420003148,225.93896420003148,225.93896420003148,num_1,3.403055500006303,229.3588790000067,229.3588790000067,None,,13,001,2025-12-23_10h39.20.471,2025C_exp1_detect,2022.2.4,59.946467801396665,
15.7,315,1,1,1,0,0,84,84,136,229.3588790000067,229.3588790000067,229.859454200021,229.92627300001914,229.97651120001683,229.97651120001683,229.97651120001683,229.97651120001683,230.02630790002877,230.02630790002877,230.02630790002877,230.02630790002877,230.02630790002877,230.02630790002877,230.02630790002877,230.02630790002877,230.02630790002877,230.02630790002877,num_3,0.9555180000024848,231.0107381999842,231.0107381999842,None,,13,001,2025-12-23_10h39.20.471,2025C_exp1_detect,2022.2.4,59.946467801396665,
29.4,45,0,1,1,-1,0,85,85,257,231.0107381999842,231.0107381999842,231.51134450000245,231.57774670002982,231.62803750002058,231.62803750002058,231.62803750002058,231.62803750002058,231.67847550002625,231.67847550002625,231.67847550002625,231.67847550002625,231.67847550002625,231.67847550002625,231.67847550002625,231.67847550002625,231.67847550002625,231.67847550002625,num_1,0.68726420000894,232.3952984000207,232.3952984000207,None,,13,001,2025-12-23_10h39.20.471,2025C_exp1_detect,2022.2.4,59.946467801396665,
19.6,315,1,0,1,1,0,86,86,389,232.3952984000207,232.3952984000207,232.8958544000052,232.9627287000185,233.01286600000458,233.01286600000458,233.01286600000458,233.01286600000458,233.06266420002794,233.06266420002794,233.06266420002794,233.06266420002794,233.06266420002794,233.06266420002794,233.06266420002794,233.06266420002794,233.06266420002794,233.06266420002794,num_3,2.3113412000238895,235.3983247000142,235.3983247000142,None,,13,001,2025-12-23_10h39.20.471,2025C_exp1_detect,2022.2.4,59.946467801396665,
25.5,45,1,1,1,-1,0,87,87,274,235.3983247000142,235.3983247000142,235.89893180003855,235.96545890002744,236.01587940001627,236.01587940001627,236.01587940001627,236.01587940001627,236.06612600001972,236.06612600001972,236.06612600001972,236.06612600001972,236.06612600001972,236.06612600001972,236.06612600001972,236.06612600001972,236.06612600001972,236.06612600001972,num_3,1.4034955999813974,237.5004947000416,237.5004947000416,None,,13,001,2025-12-23_10h39.20.471,2025C_exp1_detect,2022.2.4,59.946467801396665,
35.3,315,0,0,-1,-1,0,88,88,159,237.5004947000416,237.5004947000416,238.00084870000137,238.06755199999316,238.117929,238.117929,238.117929,238.117929,238.1678310999996,238.1678310999996,238.1678310999996,238.1678310999996,238.1678310999996,238.1678310999996,238.1678310999996,238.1678310999996,238.1678310999996,238.1678310999996,num_3,1.9505710999947041,240.13643760001287,240.13643760001287,None,,13,001,2025-12-23_10h39.20.471,2025C_exp1_detect,2022.2.4,59.946467801396665,
15.7,45,1,1,1,1,0,89,89,415,240.13643760001287,240.13643760001287,240.6368908000295,240.70378260000143,240.75410220003687,240.75410220003687,240.75410220003687,240.75410220003687,240.8037258000113,240.8037258000113,240.8037258000113,240.8037258000113,240.8037258000113,240.8037258000113,240.8037258000113,240.8037258000113,240.8037258000113,240.8037258000113,num_1,0.7376375999883749,241.5717301000259,241.5717301000259,None,,13,001,2025-12-23_10h39.20.471,2025C_exp1_detect,2022.2.4,59.946467801396665,
25.5,315,1,0,-1,-1,0,90,90,175,241.5717301000259,241.5717301000259,242.0716752000153,242.13824440003373,242.18854410003405,242.18854410003405,242.18854410003405,242.18854410003405,242.238594800001,242.238594800001,242.238594800001,242.238594800001,242.238594800001,242.238594800001,242.238594800001,242.238594800001,242.238594800001,242.238594800001,num_1,1.1033724999870174,243.37324829999125,243.37324829999125,None,,13,001,2025-12-23_10h39.20.471,2025C_exp1_detect,2022.2.4,59.946467801396665,
19.6,45,1,0,1,-1,0,91,91,236,243.37324829999125,243.37324829999125,243.87350360001437,243.94015979999676,243.9905169000267,243.9905169000267,243.9905169000267,243.9905169000267,244.04025840002578,244.04025840002578,244.04025840002578,244.04025840002578,244.04025840002578,244.04025840002578,244.04025840002578,244.04025840002578,244.04025840002578,244.04025840002578,num_3,1.18154829996638,245.2414379999973,245.2414379999973,None,,13,001,2025-12-23_10h39.20.471,2025C_exp1_detect,2022.2.4,59.946467801396665,
22.7,45,1,1,1,-1,0,92,92,273,245.2414379999973,245.2414379999973,245.74187000002712,245.80903559998842,245.85893919999944,245.85893919999944,245.85893919999944,245.85893919999944,245.90887490002206,245.90887490002206,245.90887490002206,245.90887490002206,245.90887490002206,245.90887490002206,245.90887490002206,245.90887490002206,245.90887490002206,245.90887490002206,num_1,1.8888151999562979,247.82733800000278,247.82733800000278,None,,13,001,2025-12-23_10h39.20.471,2025C_exp1_detect,2022.2.4,59.946467801396665,
39.2,315,1,0,-1,0,0,93,93,34,247.82733800000278,247.82733800000278,248.32781460002298,248.39470450003864,248.44492899999022,248.44492899999022,248.44492899999022,248.44492899999022,248.4947189000086,248.4947189000086,248.4947189000086,248.4947189000086,248.4947189000086,248.4947189000086,248.4947189000086,248.4947189000086,248.4947189000086,248.4947189000086,num_1,0.7276051000226289,249.2454459000146,249.2454459000146,None,,13,001,2025-12-23_10h39.20.471,2025C_exp1_detect,2022.2.4,59.946467801396665,
25.5,315,0,0,1,0,0,94,94,85,249.2454459000146,249.2454459000146,249.74601190001704,249.81293980003102,249.86303459998453,249.86303459998453,249.86303459998453,249.86303459998453,249.9128509000293,249.9128509000293,249.9128509000293,249.9128509000293,249.9128509000293,249.9128509000293,249.9128509000293,249.9128509000293,249.9128509000293,249.9128509000293,num_3,1.437387400015723,251.380859100027,251.380859100027,None,,13,001,2025-12-23_10h39.20.471,2025C_exp1_detect,2022.2.4,59.946467801396665,
19.6,315,0,1,1,-1,0,95,95,263,251.380859100027,251.380859100027,251.88147210003808,251.94821090000914,251.99860809999518,251.99860809999518,251.99860809999518,251.99860809999518,252.04827229998773,252.04827229998773,252.04827229998773,252.04827229998773,252.04827229998773,252.04827229998773,252.04827229998773,252.04827229998773,252.04827229998773,252.04827229998773,num_1,1.1100149999838322,253.18278740003007,253.18278740003007,None,,13,001,2025-12-23_10h39.20.471,2025C_exp1_detect,2022.2.4,59.946467801396665,
25.5,45,1,0,-1,0,0,96,96,22,253.18278740003007,253.18278740003007,253.68321980000474,253.75000110000838,253.8003056999878,253.8003056999878,253.8003056999878,253.8003056999878,253.85010000003967,253.85010000003967,253.85010000003967,253.85010000003967,253.85010000003967,253.85010000003967,253.85010000003967,253.85010000003967,253.85010000003967,253.85010000003967,num_1,0.891731100040488,254.7675833000103,254.7675833000103,None,,13,001,2025-12-23_10h39.20.471,2025C_exp1_detect,2022.2.4,59.946467801396665,
42.7,45,1,0,1,0,0,97,97,98,254.7675833000103,254.7675833000103,255.26812279998558,255.33486410003388,255.38516860001255,255.38516860001255,255.38516860001255,255.38516860001255,255.4349792000139,255.4349792000139,255.4349792000139,255.4349792000139,255.4349792000139,255.4349792000139,255.4349792000139,255.4349792000139,255.4349792000139,255.4349792000139,num_3,1.650842399976682,257.1032232000143,257.1032232000143,None,,13,001,2025-12-23_10h39.20.471,2025C_exp1_detect,2022.2.4,59.946467801396665,
39.2,315,0,0,-1,0,0,98,98,16,257.1032232000143,257.1032232000143,257.60384769999655,257.67048040003283,257.7208147000056,257.7208147000056,257.7208147000056,257.7208147000056,257.7707851000014,257.7707851000014,257.7707851000014,257.7707851000014,257.7707851000014,257.7707851000014,257.7707851000014,257.7707851000014,257.7707851000014,257.7707851000014,num_3,1.6031389000127092,259.4055788000114,259.4055788000114,None,,13,001,2025-12-23_10h39.20.471,2025C_exp1_detect,2022.2.4,59.946467801396665,
29.4,45,0,1,-1,0,0,99,99,41,259.4055788000114,259.4055788000114,259.9061056000064,259.9728593000327,260.0230866000056,260.0230866000056,260.0230866000056,260.0230866000056,260.07294799998635,260.07294799998635,260.07294799998635,260.07294799998635,260.07294799998635,260.07294799998635,260.07294799998635,260.07294799998635,260.07294799998635,260.07294799998635,num_3,2.0046772000496276,262.1082307000179,262.1082307000179,None,,13,001,2025-12-23_10h39.20.471,2025C_exp1_detect,2022.2.4,59.946467801396665,
19.6,315,0,0,1,0,0,100,100,83,262.1082307000179,262.1082307000179,262.6090870000189,262.6755479000276,262.7261077000294,262.7261077000294,262.7261077000294,262.7261077000294,262.7757937000133,262.7757937000133,262.7757937000133,262.7757937000133,262.7757937000133,262.7757937000133,262.7757937000133,262.7757937000133,262.7757937000133,262.7757937000133,num_3,0.8781055000144988,263.67656580003677,263.67656580003677,None,,13,001,2025-12-23_10h39.20.471,2025C_exp1_detect,2022.2.4,59.946467801396665,
29.4,45,1,1,1,1,0,101,101,419,263.67656580003677,263.67656580003677,264.1771416999982,264.2436633000034,264.29396290000295,264.29396290000295,264.29396290000295,264.29396290000295,264.3440078999847,264.3440078999847,264.3440078999847,264.3440078999847,264.3440078999847,264.3440078999847,264.3440078999847,264.3440078999847,264.3440078999847,264.3440078999847,num_1,1.2132694000029005,265.5784610999981,265.5784610999981,None,,13,001,2025-12-23_10h39.20.471,2025C_exp1_detect,2022.2.4,59.946467801396665,
25.5,315,0,1,-1,0,0,102,102,49,265.5784610999981,265.5784610999981,266.07889790000627,266.1456192000187,266.19626060000155,266.19626060000155,266.19626060000155,266.19626060000155,266.2458084000391,266.2458084000391,266.2458084000391,266.2458084000391,266.2458084000391,266.2458084000391,266.2458084000391,266.2458084000391,266.2458084000391,266.2458084000391,num_3,2.1921727000153624,268.46471820003353,268.46471820003353,None,,13,001,2025-12-23_10h39.20.471,2025C_exp1_detect,2022.2.4,59.946467801396665,
22.7,45,1,1,1,0,0,103,103,129,268.46471820003353,268.46471820003353,268.9651104999939,269.0318273000303,269.08233770000516,269.08233770000516,269.08233770000516,269.08233770000516,269.13221499999054,269.13221499999054,269.13221499999054,269.13221499999054,269.13221499999054,269.13221499999054,269.13221499999054,269.13221499999054,269.13221499999054,269.13221499999054,num_1,2.9613483999855816,272.11833740002476,272.11833740002476,None,,13,001,2025-12-23_10h39.20.471,2025C_exp1_detect,2022.2.4,59.946467801396665,
42.7,45,0,1,1,0,0,104,104,116,272.11833740002476,272.11833740002476,272.61892239999725,272.6854486000375,272.7357788000372,272.7357788000372,272.7357788000372,272.7357788000372,272.78574140003184,272.78574140003184,272.78574140003184,272.78574140003184,272.78574140003184,272.78574140003184,272.78574140003184,272.78574140003184,272.78574140003184,272.78574140003184,num_1,0.5964886999572627,273.4028522000299,273.4028522000299,None,,13,001,2025-12-23_10h39.20.471,2025C_exp1_detect,2022.2.4,59.946467801396665,
19.6,45,1,1,1,0,0,105,105,128,273.4028522000299,273.4028522000299,273.9035341000417,273.97019980003824,274.0205418000114,274.0205418000114,274.0205418000114,274.0205418000114,274.07028029998764,274.07028029998764,274.07028029998764,274.07028029998764,274.07028029998764,274.07028029998764,274.07028029998764,274.07028029998764,274.07028029998764,274.07028029998764,num_1,0.7521215999731794,274.8543303000042,274.8543303000042,None,,13,001,2025-12-23_10h39.20.471,2025C_exp1_detect,2022.2.4,59.946467801396665,
22.7,315,0,1,-1,1,0,106,106,336,274.8543303000042,274.8543303000042,275.3548800999997,275.4215394000057,275.47187840001425,275.47187840001425,275.47187840001425,275.47187840001425,275.52175439998973,275.52175439998973,275.52175439998973,275.52175439998973,275.52175439998973,275.52175439998973,275.52175439998973,275.52175439998973,275.52175439998973,275.52175439998973,num_3,1.6843777999747545,277.22341440001037,277.22341440001037,None,,13,001,2025-12-23_10h39.20.471,2025C_exp1_detect,2022.2.4,59.946467801396665,
25.5,45,0,0,1,1,0,107,107,364,277.22341440001037,277.22341440001037,277.7239421000122,277.79072079999605,277.8410566000384,277.8410566000384,277.8410566000384,277.8410566000384,277.89085590001196,277.89085590001196,277.89085590001196,277.89085590001196,277.89085590001196,277.89085590001196,277.89085590001196,277.89085590001196,277.89085590001196,277.89085590001196,num_3,1.6830593000049703,279.592410799989,279.592410799989,space,46.6298668999807,13,001,2025-12-23_10h39.20.471,2025C_exp1_detect,2022.2.4,59.946467801396665,
15.7,315,1,0,-1,-1,0,108,108,172,326.23906380002154,326.23906380002154,326.7395727999974,326.80627210001694,326.85654850001447,326.85654850001447,326.85654850001447,326.85654850001447,326.9064083999838,326.9064083999838,326.9064083999838,326.9064083999838,326.9064083999838,326.9064083999838,326.9064083999838,326.9064083999838,326.9064083999838,326.9064083999838,num_3,1.7712183000403456,328.7081848999951,328.7081848999951,None,,13,001,2025-12-23_10h39.20.471,2025C_exp1_detect,2022.2.4,59.946467801396665,
22.7,45,0,0,-1,-1,0,109,109,147,328.7081848999951,328.7081848999951,329.2087432999979,329.2754004999879,329.32567990000825,329.32567990000825,329.32567990000825,329.32567990000825,329.375608500035,329.375608500035,329.375608500035,329.375608500035,329.375608500035,329.375608500035,329.375608500035,329.375608500035,329.375608500035,329.375608500035,num_3,1.1825242000049911,330.5766408999916,330.5766408999916,None,,13,001,2025-12-23_10h39.20.471,2025C_exp1_detect,2022.2.4,59.946467801396665,
12.1,315,1,1,-1,1,0,110,110,351,330.5766408999916,330.5766408999916,331.07733709999593,331.1439470000332,331.1941736000008,331.1941736000008,331.1941736000008,331.1941736000008,331.24408750003204,331.24408750003204,331.24408750003204,331.24408750003204,331.24408750003204,331.24408750003204,331.24408750003204,331.24408750003204,331.24408750003204,331.24408750003204,num_3,1.6098938999930397,332.87890250002965,332.87890250002965,None,,13,001,2025-12-23_10h39.20.471,2025C_exp1_detect,2022.2.4,59.946467801396665,
39.2,315,1,1,1,-1,0,111,111,286,332.87890250002965,332.87890250002965,333.379617300001,333.4474323000177,333.4967348999926,333.4967348999926,333.4967348999926,333.4967348999926,333.54633230000036,333.54633230000036,333.54633230000036,333.54633230000036,333.54633230000036,333.54633230000036,333.54633230000036,333.54633230000036,333.54633230000036,333.54633230000036,num_3,1.075364599993918,334.64755280001555,334.64755280001555,None,,13,001,2025-12-23_10h39.20.471,2025C_exp1_detect,2022.2.4,59.946467801396665,
12.1,315,1,0,1,-1,0,112,112,243,334.64755280001555,334.64755280001555,335.1479286000249,335.2147475000238,335.2650510999956,335.2650510999956,335.2650510999956,335.2650510999956,335.31494790001307,335.31494790001307,335.31494790001307,335.31494790001307,335.31494790001307,335.31494790001307,335.31494790001307,335.31494790001307,335.31494790001307,335.31494790001307,num_3,0.6191333000315353,335.9654344000155,335.9654344000155,None,,13,001,2025-12-23_10h39.20.471,2025C_exp1_detect,2022.2.4,59.946467801396665,
42.7,45,0,0,-1,-1,0,113,113,152,335.9654344000155,335.9654344000155,336.4659732999862,336.5326738000149,336.5828770000371,336.5828770000371,336.5828770000371,336.5828770000371,336.6327993000159,336.6327993000159,336.6327993000159,336.6327993000159,336.6327993000159,336.6327993000159,336.6327993000159,336.6327993000159,336.6327993000159,336.6327993000159,num_3,1.621075099974405,338.28447230003076,338.28447230003076,None,,13,001,2025-12-23_10h39.20.471,2025C_exp1_detect,2022.2.4,59.946467801396665,
22.7,45,0,0,1,1,0,114,114,363,338.28447230003076,338.28447230003076,338.7848776000319,338.85167050000746,338.90194830001565,338.90194830001565,338.90194830001565,338.90194830001565,338.9519665000262,338.9519665000262,338.9519665000262,338.9519665000262,338.9519665000262,338.9519665000262,338.9519665000262,338.9519665000262,338.9519665000262,338.9519665000262,num_3,1.046169200039003,340.01936570002,340.01936570002,None,,13,001,2025-12-23_10h39.20.471,2025C_exp1_detect,2022.2.4,59.946467801396665,
19.6,45,0,1,1,0,0,115,115,110,340.01936570002,340.01936570002,340.5199055999983,340.58701010001823,340.6371535999933,340.6371535999933,340.6371535999933,340.6371535999933,340.686873300001,340.686873300001,340.686873300001,340.686873300001,340.686873300001,340.686873300001,340.686873300001,340.686873300001,340.686873300001,340.686873300001,num_1,1.1746920999721624,341.8880158000393,341.8880158000393,None,,13,001,2025-12-23_10h39.20.471,2025C_exp1_detect,2022.2.4,59.946467801396665,
39.2,315,1,0,-1,-1,0,116,116,178,341.8880158000393,341.8880158000393,342.38841790001607,342.45519860001514,342.50560700002825,342.50560700002825,342.50560700002825,342.50560700002825,342.5553055999917,342.5553055999917,342.5553055999917,342.5553055999917,342.5553055999917,342.5553055999917,342.5553055999917,342.5553055999917,342.5553055999917,342.5553055999917,num_1,0.6744237000239082,343.25606290000724,343.25606290000724,None,,13,001,2025-12-23_10h39.20.471,2025C_exp1_detect,2022.2.4,59.946467801396665,
29.4,45,0,1,1,1,0,117,117,401,343.25606290000724,343.25606290000724,343.7565605000127,343.8232521000318,343.87356989999535,343.87356989999535,343.87356989999535,343.87356989999535,343.9234887000057,343.9234887000057,343.9234887000057,343.9234887000057,343.9234887000057,343.9234887000057,343.9234887000057,343.9234887000057,343.9234887000057,343.9234887000057,num_3,0.5868038999615237,344.54088330001105,344.54088330001105,None,,13,001,2025-12-23_10h39.20.471,2025C_exp1_detect,2022.2.4,59.946467801396665,
22.7,315,1,0,-1,-1,0,118,118,174,344.54088330001105,344.54088330001105,345.04114310001023,345.10784790001344,345.15818670002045,345.15818670002045,345.15818670002045,345.15818670002045,345.2080641000066,345.2080641000066,345.2080641000066,345.2080641000066,345.2080641000066,345.2080641000066,345.2080641000066,345.2080641000066,345.2080641000066,345.2080641000066,num_1,0.6302156000165269,345.858533599996,345.858533599996,None,,13,001,2025-12-23_10h39.20.471,2025C_exp1_detect,2022.2.4,59.946467801396665,
42.7,45,0,0,1,0,0,119,119,80,345.858533599996,345.858533599996,346.3592806000379,346.4257675000117,346.47607340000104,346.47607340000104,346.47607340000104,346.47607340000104,346.5259567000321,346.5259567000321,346.5259567000321,346.5259567000321,346.5259567000321,346.5259567000321,346.5259567000321,346.5259567000321,346.5259567000321,346.5259567000321,num_3,1.7193925000028685,348.27764119999483,348.27764119999483,None,,13,001,2025-12-23_10h39.20.471,2025C_exp1_detect,2022.2.4,59.946467801396665,
39.2,45,1,1,-1,1,0,120,120,349,348.27764119999483,348.27764119999483,348.7781326000113,348.844879100041,348.8951835000189,348.8951835000189,348.8951835000189,348.8951835000189,348.9450349000399,348.9450349000399,348.9450349000399,348.9450349000399,348.9450349000399,348.9450349000399,348.9450349000399,348.9450349000399,348.9450349000399,348.9450349000399,num_3,3.0044728000066243,351.9814346000203,351.9814346000203,None,,13,001,2025-12-23_10h39.20.471,2025C_exp1_detect,2022.2.4,59.946467801396665,
25.5,315,0,0,1,1,0,121,121,373,351.9814346000203,351.9814346000203,352.48183699999936,352.54863340000156,352.59901599999284,352.59901599999284,352.59901599999284,352.59901599999284,352.6488362000091,352.6488362000091,352.6488362000091,352.6488362000091,352.6488362000091,352.6488362000091,352.6488362000091,352.6488362000091,352.6488362000091,352.6488362000091,num_3,1.117089200008195,353.7832278999849,353.7832278999849,None,,13,001,2025-12-23_10h39.20.471,2025C_exp1_detect,2022.2.4,59.946467801396665,
25.5,315,1,0,1,1,0,122,122,391,353.7832278999849,353.7832278999849,354.2836560999858,354.35030829999596,354.40073510003276,354.40073510003276,354.40073510003276,354.40073510003276,354.4505737000145,354.4505737000145,354.4505737000145,354.4505737000145,354.4505737000145,354.4505737000145,354.4505737000145,354.4505737000145,354.4505737000145,354.4505737000145,num_3,0.7627070000162348,355.23461370001314,355.23461370001314,None,,13,001,2025-12-23_10h39.20.471,2025C_exp1_detect,2022.2.4,59.946467801396665,
29.4,45,0,0,-1,0,0,123,123,5,355.23461370001314,355.23461370001314,355.73511230002623,355.80209110002033,355.85215869999956,355.85215869999956,355.85215869999956,355.85215869999956,355.9020806000335,355.9020806000335,355.9020806000335,355.9020806000335,355.9020806000335,355.9020806000335,355.9020806000335,355.9020806000335,355.9020806000335,355.9020806000335,num_3,1.0718170000473037,357.00300600001356,357.00300600001356,None,,13,001,2025-12-23_10h39.20.471,2025C_exp1_detect,2022.2.4,59.946467801396665,
29.4,315,1,1,1,1,0,124,124,428,357.00300600001356,357.00300600001356,357.50352480000583,357.5702362000011,357.62053740001284,357.62053740001284,357.62053740001284,357.62053740001284,357.6704792000237,357.6704792000237,357.6704792000237,357.6704792000237,357.6704792000237,357.6704792000237,357.6704792000237,357.6704792000237,357.6704792000237,357.6704792000237,num_1,0.9753186000161804,358.6713826000341,358.6713826000341,None,,13,001,2025-12-23_10h39.20.471,2025C_exp1_detect,2022.2.4,59.946467801396665,
12.1,315,0,0,-1,-1,0,125,125,153,358.6713826000341,358.6713826000341,359.17193770001177,359.2386756000342,359.2890206000302,359.2890206000302,359.2890206000302,359.2890206000302,359.3388105999911,359.3388105999911,359.3388105999911,359.3388105999911,359.3388105999911,359.3388105999911,359.3388105999911,359.3388105999911,359.3388105999911,359.3388105999911,num_3,1.2426455999957398,360.6066706000129,360.6066706000129,None,,13,001,2025-12-23_10h39.20.471,2025C_exp1_detect,2022.2.4,59.946467801396665,
25.5,45,0,0,-1,1,0,126,126,292,360.6066706000129,360.6066706000129,361.1071205000044,361.17406500002835,361.22424780001165,361.22424780001165,361.22424780001165,361.22424780001165,361.27405489998637,361.27405489998637,361.27405489998637,361.27405489998637,361.27405489998637,361.27405489998637,361.27405489998637,361.27405489998637,361.27405489998637,361.27405489998637,num_3,0.7312451000325382,362.0247968999902,362.0247968999902,None,,13,001,2025-12-23_10h39.20.471,2025C_exp1_detect,2022.2.4,59.946467801396665,
29.4,315,1,0,1,-1,0,127,127,248,362.0247968999902,362.0247968999902,362.5255179000087,362.59192350000376,362.64230170001974,362.64230170001974,362.64230170001974,362.64230170001974,362.6922427000245,362.6922427000245,362.6922427000245,362.6922427000245,362.6922427000245,362.6922427000245,362.6922427000245,362.6922427000245,362.6922427000245,362.6922427000245,num_3,1.0092921999748796,363.72642520000227,363.72642520000227,None,,13,001,2025-12-23_10h39.20.471,2025C_exp1_detect,2022.2.4,59.946467801396665,
25.5,315,1,1,-1,-1,0,128,128,211,363.72642520000227,363.72642520000227,364.2270068000071,364.2936839000322,364.34404689999064,364.34404689999064,364.34404689999064,364.34404689999064,364.39376710000215,364.39376710000215,364.39376710000215,364.39376710000215,364.39376710000215,364.39376710000215,364.39376710000215,364.39376710000215,364.39376710000215,364.39376710000215,num_1,4.851471400004812,369.2653264999972,369.2653264999972,None,,13,001,2025-12-23_10h39.20.471,2025C_exp1_detect,2022.2.4,59.946467801396665,
35.3,45,1,1,1,1,0,129,129,420,369.2653264999972,369.2653264999972,369.76595939998515,369.832559500006,369.88281730003655,369.88281730003655,369.88281730003655,369.88281730003655,369.93273719999706,369.93273719999706,369.93273719999706,369.93273719999706,369.93273719999706,369.93273719999706,369.93273719999706,369.93273719999706,369.93273719999706,369.93273719999706,num_1,1.1928247999749146,371.15052450000076,371.15052450000076,None,,13,001,2025-12-23_10h39.20.471,2025C_exp1_detect,2022.2.4,59.946467801396665,
12.1,315,0,1,-1,0,0,130,130,45,371.15052450000076,371.15052450000076,371.651097199996,371.717773500015,371.7683108000201,371.7683108000201,371.7683108000201,371.7683108000201,371.81785210000817,371.81785210000817,371.81785210000817,371.81785210000817,371.81785210000817,371.81785210000817,371.81785210000817,371.81785210000817,371.81785210000817,371.81785210000817,num_3,1.8758304999792017,373.71996020001825,373.71996020001825,None,,13,001,2025-12-23_10h39.20.471,2025C_exp1_detect,2022.2.4,59.946467801396665,
19.6,315,1,1,1,1,0,131,131,425,373.71996020001825,373.71996020001825,374.220287300006,374.28723389998777,374.33732280001277,374.33732280001277,374.33732280001277,374.33732280001277,374.387201000005,374.387201000005,374.387201000005,374.387201000005,374.387201000005,374.387201000005,374.387201000005,374.387201000005,374.387201000005,374.387201000005,num_1,1.3708749000215903,375.7886792999925,375.7886792999925,None,,13,001,2025-12-23_10h39.20.471,2025C_exp1_detect,2022.2.4,59.946467801396665,
19.6,45,0,0,-1,0,0,132,132,2,375.7886792999925,375.7886792999925,376.28904450003756,376.35565330000827,376.4059418000397,376.4059418000397,376.4059418000397,376.4059418000397,376.4559664000408,376.4559664000408,376.4559664000408,376.4559664000408,376.4559664000408,376.4559664000408,376.4559664000408,376.4559664000408,376.4559664000408,376.4559664000408,num_3,1.0217658000183292,377.50687470001867,377.50687470001867,None,,13,001,2025-12-23_10h39.20.471,2025C_exp1_detect,2022.2.4,59.946467801396665,
42.7,315,0,1,1,-1,0,133,133,269,377.50687470001867,377.50687470001867,378.00771999999415,378.07408849999774,378.1253390000202,378.1253390000202,378.1253390000202,378.1253390000202,378.1743797000381,378.1743797000381,378.1743797000381,378.1743797000381,378.1743797000381,378.1743797000381,378.1743797000381,378.1743797000381,378.1743797000381,378.1743797000381,num_1,1.0150837000110187,379.2085389000131,379.2085389000131,None,,13,001,2025-12-23_10h39.20.471,2025C_exp1_detect,2022.2.4,59.946467801396665,
15.7,315,0,1,-1,1,0,134,134,334,379.2085389000131,379.2085389000131,379.70913870004006,379.77585730003193,379.82634279999183,379.82634279999183,379.82634279999183,379.82634279999183,379.87592429999495,379.87592429999495,379.87592429999495,379.87592429999495,379.87592429999495,379.87592429999495,379.87592429999495,379.87592429999495,379.87592429999495,379.87592429999495,num_3,1.162066200049594,381.0603487000335,381.0603487000335,None,,13,001,2025-12-23_10h39.20.471,2025C_exp1_detect,2022.2.4,59.946467801396665,
25.5,45,1,1,1,1,0,135,135,418,381.0603487000335,381.0603487000335,381.56090770004084,381.6276508999872,381.67806130001554,381.67806130001554,381.67806130001554,381.67806130001554,381.7278146999888,381.7278146999888,381.7278146999888,381.7278146999888,381.7278146999888,381.7278146999888,381.7278146999888,381.7278146999888,381.7278146999888,381.7278146999888,num_1,1.2779737999662757,383.02941220003413,383.02941220003413,None,,13,001,2025-12-23_10h39.20.471,2025C_exp1_detect,2022.2.4,59.946467801396665,
42.7,315,0,0,1,0,0,136,136,89,383.02941220003413,383.02941220003413,383.5296718000318,383.5963729000068,383.64660590002313,383.64660590002313,383.64660590002313,383.64660590002313,383.6964788000332,383.6964788000332,383.6964788000332,383.6964788000332,383.6964788000332,383.6964788000332,383.6964788000332,383.6964788000332,383.6964788000332,383.6964788000332,num_3,0.9734239000244997,384.6974333000253,384.6974333000253,None,,13,001,2025-12-23_10h39.20.471,2025C_exp1_detect,2022.2.4,59.946467801396665,
39.2,315,0,0,1,-1,0,137,137,232,384.6974333000253,384.6974333000253,385.19792160001816,385.2647378999973,385.31495880003786,385.31495880003786,385.31495880003786,385.31495880003786,385.3647690000362,385.3647690000362,385.3647690000362,385.3647690000362,385.3647690000362,385.3647690000362,385.3647690000362,385.3647690000362,385.3647690000362,385.3647690000362,num_3,0.8251693000202067,386.2157079000026,386.2157079000026,None,,13,001,2025-12-23_10h39.20.471,2025C_exp1_detect,2022.2.4,59.946467801396665,
15.7,315,0,1,-1,-1,0,138,138,190,386.2157079000026,386.2157079000026,386.71613990003243,386.7828808000195,386.83307590003824,386.83307590003824,386.83307590003824,386.83307590003824,386.88294460001634,386.88294460001634,386.88294460001634,386.88294460001634,386.88294460001634,386.88294460001634,386.88294460001634,386.88294460001634,386.88294460001634,386.88294460001634,num_3,1.2264513000263833,388.1341875999933,388.1341875999933,None,,13,001,2025-12-23_10h39.20.471,2025C_exp1_detect,2022.2.4,59.946467801396665,
35.3,315,1,1,1,-1,0,139,139,285,388.1341875999933,388.1341875999933,388.635253400018,388.7013602000079,388.7516145000118,388.7516145000118,388.7516145000118,388.7516145000118,388.80149879999226,388.80149879999226,388.80149879999226,388.80149879999226,388.80149879999226,388.80149879999226,388.80149879999226,388.80149879999226,388.80149879999226,388.80149879999226,num_1,1.2686546000186354,390.10274780000327,390.10274780000327,None,,13,001,2025-12-23_10h39.20.471,2025C_exp1_detect,2022.2.4,59.946467801396665,
15.7,315,1,1,-1,1,0,140,140,352,390.10274780000327,390.10274780000327,390.60337450000225,390.6702808000264,390.7203430000227,390.7203430000227,390.7203430000227,390.7203430000227,390.770207100024,390.770207100024,390.770207100024,390.770207100024,390.770207100024,390.770207100024,390.770207100024,390.770207100024,390.770207100024,390.770207100024,num_1,1.5239781999844126,392.3218299000291,392.3218299000291,None,,13,001,2025-12-23_10h39.20.471,2025C_exp1_detect,2022.2.4,59.946467801396665,
29.4,315,1,0,1,0,0,141,141,104,392.3218299000291,392.3218299000291,392.8221712000086,392.888844000001,392.9391337999841,392.9391337999841,392.9391337999841,392.9391337999841,392.9890942000202,392.9890942000202,392.9890942000202,392.9890942000202,392.9890942000202,392.9890942000202,392.9890942000202,392.9890942000202,392.9890942000202,392.9890942000202,num_3,1.0247661999892443,394.04001990001416,394.04001990001416,None,,13,001,2025-12-23_10h39.20.471,2025C_exp1_detect,2022.2.4,59.946467801396665,
25.5,315,1,1,1,0,0,142,142,139,394.04001990001416,394.04001990001416,394.54063910001423,394.6073205000139,394.6575554999872,394.6575554999872,394.6575554999872,394.6575554999872,394.7075006000232,394.7075006000232,394.7075006000232,394.7075006000232,394.7075006000232,394.7075006000232,394.7075006000232,394.7075006000232,394.7075006000232,394.7075006000232,num_3,0.6344094999949448,395.37474170001224,395.37474170001224,None,,13,001,2025-12-23_10h39.20.471,2025C_exp1_detect,2022.2.4,59.946467801396665,
42.7,315,0,1,-1,1,0,143,143,341,395.37474170001224,395.37474170001224,395.8752228000085,395.94200020004064,395.99221609998494,395.99221609998494,395.99221609998494,395.99221609998494,396.04205300001195,396.04205300001195,396.04205300001195,396.04205300001195,396.04205300001195,396.04205300001195,396.04205300001195,396.04205300001195,396.04205300001195,396.04205300001195,num_3,1.0597042000154033,397.1265042999876,397.1265042999876,None,,13,001,2025-12-23_10h39.20.471,2025C_exp1_detect,2022.2.4,59.946467801396665,
35.3,315,0,1,-1,-1,0,144,144,195,397.1265042999876,397.1265042999876,397.627026800008,397.6937065999955,397.7439905999927,397.7439905999927,397.7439905999927,397.7439905999927,397.79385529999854,397.79385529999854,397.79385529999854,397.79385529999854,397.79385529999854,397.79385529999854,397.79385529999854,397.79385529999854,397.79385529999854,397.79385529999854,num_3,0.827977099979762,398.6447308000061,398.6447308000061,None,,13,001,2025-12-23_10h39.20.471,2025C_exp1_detect,2022.2.4,59.946467801396665,
15.7,45,0,0,1,-1,0,145,145,217,398.6447308000061,398.6447308000061,399.14516350004124,399.21206079999683,399.2622743000393,399.2622743000393,399.2622743000393,399.2622743000393,399.31210869998904,399.31210869998904,399.31210869998904,399.31210869998904,399.31210869998904,399.31210869998904,399.31210869998904,399.31210869998904,399.31210869998904,399.31210869998904,num_3,0.7738038999959826,400.11284960003104,400.11284960003104,None,,13,001,2025-12-23_10h39.20.471,2025C_exp1_detect,2022.2.4,59.946467801396665,
35.3,315,0,1,1,0,0,146,146,123,400.11284960003104,400.11284960003104,400.61332770000445,400.68014040001435,400.730403500027,400.730403500027,400.730403500027,400.730403500027,400.78055910003604,400.78055910003604,400.78055910003604,400.78055910003604,400.78055910003604,400.78055910003604,400.78055910003604,400.78055910003604,400.78055910003604,400.78055910003604,num_1,0.9131050999858417,401.7145239000092,401.7145239000092,None,,13,001,2025-12-23_10h39.20.471,2025C_exp1_detect,2022.2.4,59.946467801396665,
29.4,45,1,0,1,-1,0,147,147,239,401.7145239000092,401.7145239000092,402.2149286000058,402.2817804000224,402.3319823000347,402.3319823000347,402.3319823000347,402.3319823000347,402.3817660000059,402.3817660000059,402.3817660000059,402.3817660000059,402.3817660000059,402.3817660000059,402.3817660000059,402.3817660000059,402.3817660000059,402.3817660000059,num_3,0.9115525000379421,403.3159863000037,403.3159863000037,None,,13,001,2025-12-23_10h39.20.471,2025C_exp1_detect,2022.2.4,59.946467801396665,
25.5,315,0,1,-1,1,0,148,148,337,403.3159863000037,403.3159863000037,403.81660399999237,403.8832484000013,403.93359570001485,403.93359570001485,403.93359570001485,403.93359570001485,403.9833137000096,403.9833137000096,403.9833137000096,403.9833137000096,403.9833137000096,403.9833137000096,403.9833137000096,403.9833137000096,403.9833137000096,403.9833137000096,num_3,0.8539825999760069,404.8675901000388,404.8675901000388,None,,13,001,2025-12-23_10h39.20.471,2025C_exp1_detect,2022.2.4,59.946467801396665,
25.5,45,0,1,1,-1,0,149,149,256,404.8675901000388,404.8675901000388,405.36817860003794,405.4348309999914,405.48524130001897,405.48524130001897,405.48524130001897,405.48524130001897,405.53501870000036,405.53501870000036,405.53501870000036,405.53501870000036,405.53501870000036,405.53501870000036,405.53501870000036,405.53501870000036,405.53501870000036,405.53501870000036,num_1,0.8468406000174582,406.4024870999856,406.4024870999856,None,,13,001,2025-12-23_10h39.20.471,2025C_exp1_detect,2022.2.4,59.946467801396665,
19.6,315,0,1,-1,0,0,150,150,47,406.4024870999856,406.4024870999856,406.9029637000058,406.9696208999958,407.01991850003833,407.01991850003833,407.01991850003833,407.01991850003833,407.06983240001136,407.06983240001136,407.06983240001136,407.06983240001136,407.06983240001136,407.06983240001136,407.06983240001136,407.06983240001136,407.06983240001136,407.06983240001136,num_3,1.0555912000127137,408.1543243000051,408.1543243000051,None,,13,001,2025-12-23_10h39.20.471,2025C_exp1_detect,2022.2.4,59.946467801396665,
22.7,45,0,1,1,0,0,151,151,111,408.1543243000051,408.1543243000051,408.65468969999347,408.7213836000301,408.7717182000051,408.7717182000051,408.7717182000051,408.7717182000051,408.8217011000379,408.8217011000379,408.8217011000379,408.8217011000379,408.8217011000379,408.8217011000379,408.8217011000379,408.8217011000379,408.8217011000379,408.8217011000379,num_1,2.2481477999826893,411.09041210002033,411.09041210002033,None,,13,001,2025-12-23_10h39.20.471,2025C_exp1_detect,2022.2.4,59.946467801396665,
12.1,315,0,1,1,1,0,152,152,405,411.09041210002033,411.09041210002033,411.59097170003224,411.65765010000905,411.7079741000198,411.7079741000198,411.7079741000198,411.7079741000198,411.7578011000296,411.7578011000296,411.7578011000296,411.7578011000296,411.7578011000296,411.7578011000296,411.7578011000296,411.7578011000296,411.7578011000296,411.7578011000296,num_1,0.664086899952963,412.4417650999967,412.4417650999967,None,,13,001,2025-12-23_10h39.20.471,2025C_exp1_detect,2022.2.4,59.946467801396665,
19.6,45,0,1,-1,-1,0,153,153,182,412.4417650999967,412.4417650999967,412.9424548000097,413.00928500003647,413.05932170001324,413.05932170001324,413.05932170001324,413.05932170001324,413.10915830003796,413.10915830003796,413.10915830003796,413.10915830003796,413.10915830003796,413.10915830003796,413.10915830003796,413.10915830003796,413.10915830003796,413.10915830003796,num_3,1.0722325000097044,414.2113059000112,414.2113059000112,None,,13,001,2025-12-23_10h39.20.471,2025C_exp1_detect,2022.2.4,59.946467801396665,
15.7,315,1,1,1,1,0,154,154,424,414.2113059000112,414.2113059000112,414.710905999993,414.7774400000344,414.82772390003083,414.82772390003083,414.82772390003083,414.82772390003083,414.87773260002723,414.87773260002723,414.87773260002723,414.87773260002723,414.87773260002723,414.87773260002723,414.87773260002723,414.87773260002723,414.87773260002723,414.87773260002723,num_1,1.3197840999928303,416.2289177000057,416.2289177000057,None,,13,001,2025-12-23_10h39.20.471,2025C_exp1_detect,2022.2.4,59.946467801396665,
22.7,45,1,0,1,-1,0,155,155,237,416.2289177000057,416.2289177000057,416.7296029999852,416.79612230003113,416.84647039999254,416.84647039999254,416.84647039999254,416.84647039999254,416.8962935000309,416.8962935000309,416.8962935000309,416.8962935000309,416.8962935000309,416.8962935000309,416.8962935000309,416.8962935000309,416.8962935000309,416.8962935000309,num_3,0.9335553999990225,417.8471648999839,417.8471648999839,None,,13,001,2025-12-23_10h39.20.471,2025C_exp1_detect,2022.2.4,59.946467801396665,
42.7,315,1,1,-1,-1,0,156,156,215,417.8471648999839,417.8471648999839,418.3477276000194,418.41469519998645,418.4646370999981,418.4646370999981,418.4646370999981,418.4646370999981,418.51457910001045,418.51457910001045,418.51457910001045,418.51457910001045,418.51457910001045,418.51457910001045,418.51457910001045,418.51457910001045,418.51457910001045,418.51457910001045,num_1,1.0193907000357285,419.56559529999504,419.56559529999504,None,,13,001,2025-12-23_10h39.20.471,2025C_exp1_detect,2022.2.4,59.946467801396665,
35.3,45,0,1,-1,-1,0,157,157,186,419.56559529999504,419.56559529999504,420.066026400018,420.1329693000298,420.18308630003594,420.18308630003594,420.18308630003594,420.18308630003594,420.232979500026,420.232979500026,420.232979500026,420.232979500026,420.232979500026,420.232979500026,420.232979500026,420.232979500026,420.232979500026,420.232979500026,num_3,0.9409868999500759,421.2004949999973,421.2004949999973,None,,13,001,2025-12-23_10h39.20.471,2025C_exp1_detect,2022.2.4,59.946467801396665,
22.7,45,1,0,1,0,0,158,158,93,421.2004949999973,421.2004949999973,421.7010462000035,421.76777899998706,421.81811029999517,421.81811029999517,421.81811029999517,421.81811029999517,421.86792400002014,421.86792400002014,421.86792400002014,421.86792400002014,421.86792400002014,421.86792400002014,421.86792400002014,421.86792400002014,421.86792400002014,421.86792400002014,num_3,3.8573349000071175,425.75527319998946,425.75527319998946,None,,13,001,2025-12-23_10h39.20.471,2025C_exp1_detect,2022.2.4,59.946467801396665,
25.5,315,1,0,-1,1,0,159,159,319,425.75527319998946,425.75527319998946,426.2556787999929,426.32234800001606,426.3726774000097,426.3726774000097,426.3726774000097,426.3726774000097,426.42252349999035,426.42252349999035,426.42252349999035,426.42252349999035,426.42252349999035,426.42252349999035,426.42252349999035,426.42252349999035,426.42252349999035,426.42252349999035,num_1,0.7992940000258386,427.2398664000211,427.2398664000211,None,,13,001,2025-12-23_10h39.20.471,2025C_exp1_detect,2022.2.4,59.946467801396665,
42.7,45,0,0,1,-1,0,160,160,224,427.2398664000211,427.2398664000211,427.7403405000223,427.8070948999957,427.8577202000306,427.8577202000306,427.8577202000306,427.8577202000306,427.90726180002093,427.90726180002093,427.90726180002093,427.90726180002093,427.90726180002093,427.90726180002093,427.90726180002093,427.90726180002093,427.90726180002093,427.90726180002093,num_3,3.658249599975534,431.5942436000332,431.5942436000332,None,,13,001,2025-12-23_10h39.20.471,2025C_exp1_detect,2022.2.4,59.946467801396665,
42.7,315,0,1,1,1,0,161,161,413,431.5942436000332,431.5942436000332,432.09499930002494,432.1615019000019,432.2118005999946,432.2118005999946,432.2118005999946,432.2118005999946,432.26163920003455,432.26163920003455,432.26163920003455,432.26163920003455,432.26163920003455,432.26163920003455,432.26163920003455,432.26163920003455,432.26163920003455,432.26163920003455,num_1,0.8885683999978937,433.1791061999975,433.1791061999975,None,,13,001,2025-12-23_10h39.20.471,2025C_exp1_detect,2022.2.4,59.946467801396665,
42.7,45,1,0,1,-1,0,162,162,242,433.1791061999975,433.1791061999975,433.67978980002226,433.7464223999996,433.7969565000385,433.7969565000385,433.7969565000385,433.7969565000385,433.84651930001564,433.84651930001564,433.84651930001564,433.84651930001564,433.84651930001564,433.84651930001564,433.84651930001564,433.84651930001564,433.84651930001564,433.84651930001564,num_3,1.2468074999633245,435.1143690000172,435.1143690000172,None,,13,001,2025-12-23_10h39.20.471,2025C_exp1_detect,2022.2.4,59.946467801396665,
12.1,45,1,0,-1,0,0,163,163,18,435.1143690000172,435.1143690000172,435.6150949000148,435.6816334000323,435.7319997000159,435.7319997000159,435.7319997000159,435.7319997000159,435.78195899998536,435.78195899998536,435.78195899998536,435.78195899998536,435.78195899998536,435.78195899998536,435.78195899998536,435.78195899998536,435.78195899998536,435.78195899998536,num_1,1.1597785000340082,436.96632770000724,436.96632770000724,None,,13,001,2025-12-23_10h39.20.471,2025C_exp1_detect,2022.2.4,59.946467801396665,
22.7,315,1,0,-1,0,0,164,164,30,436.96632770000724,436.96632770000724,437.466769199993,437.53353130002506,437.583810799988,437.583810799988,437.583810799988,437.583810799988,437.6336309000035,437.6336309000035,437.6336309000035,437.6336309000035,437.6336309000035,437.6336309000035,437.6336309000035,437.6336309000035,437.6336309000035,437.6336309000035,num_1,0.6122598000220023,438.26760980003746,438.26760980003746,None,,13,001,2025-12-23_10h39.20.471,2025C_exp1_detect,2022.2.4,59.946467801396665,
22.7,315,0,0,-1,1,0,165,165,300,438.26760980003746,438.26760980003746,438.76805250003235,438.83484830003,438.8852821000037,438.8852821000037,438.8852821000037,438.8852821000037,438.9350446999888,438.9350446999888,438.9350446999888,438.9350446999888,438.9350446999888,438.9350446999888,438.9350446999888,438.9350446999888,438.9350446999888,438.9350446999888,num_3,0.9662743000080809,439.919257200032,439.919257200032,None,,13,001,2025-12-23_10h39.20.471,2025C_exp1_detect,2022.2.4,59.946467801396665,
42.7,45,0,1,-1,0,0,166,166,44,439.919257200032,439.919257200032,440.41980470001,440.48648429999594,440.5367660000338,440.5367660000338,440.5367660000338,440.5367660000338,440.58657949999906,440.58657949999906,440.58657949999906,440.58657949999906,440.58657949999906,440.58657949999906,440.58657949999906,440.58657949999906,440.58657949999906,440.58657949999906,num_3,0.8427834000322036,441.4540453000227,441.4540453000227,None,,13,001,2025-12-23_10h39.20.471,2025C_exp1_detect,2022.2.4,59.946467801396665,
29.4,315,1,1,-1,1,0,167,167,356,441.4540453000227,441.4540453000227,441.9546341000241,442.0213555000373,442.0716462000273,442.0716462000273,442.0716462000273,442.0716462000273,442.12151999998605,442.12151999998605,442.12151999998605,442.12151999998605,442.12151999998605,442.12151999998605,442.12151999998605,442.12151999998605,442.12151999998605,442.12151999998605,num_1,0.9563160999678075,443.1058066000114,443.1058066000114,None,,13,001,2025-12-23_10h39.20.471,2025C_exp1_detect,2022.2.4,59.946467801396665,
39.2,45,1,1,1,0,0,168,168,133,443.1058066000114,443.1058066000114,443.6062648000079,443.6729664999875,443.7234011000255,443.7234011000255,443.7234011000255,443.7234011000255,443.7732960000285,443.7732960000285,443.7732960000285,443.7732960000285,443.7732960000285,443.7732960000285,443.7732960000285,443.7732960000285,443.7732960000285,443.7732960000285,num_1,2.08002310001757,445.87522600003285,445.87522600003285,None,,13,001,2025-12-23_10h39.20.471,2025C_exp1_detect,2022.2.4,59.946467801396665,
35.3,315,0,0,1,1,0,169,169,375,445.87522600003285,445.87522600003285,446.37570129998494,446.4424096000148,446.49270480003906,446.49270480003906,446.49270480003906,446.49270480003906,446.5426205000258,446.5426205000258,446.5426205000258,446.5426205000258,446.5426205000258,446.5426205000258,446.5426205000258,446.5426205000258,446.5426205000258,446.5426205000258,num_3,1.1910104000126012,447.76040349999676,447.76040349999676,None,,13,001,2025-12-23_10h39.20.471,2025C_exp1_detect,2022.2.4,59.946467801396665,
25.5,315,1,1,-1,1,0,170,170,355,447.76040349999676,447.76040349999676,448.2608874000143,448.32764520001365,448.378007500025,448.378007500025,448.378007500025,448.378007500025,448.4282399000367,448.4282399000367,448.4282399000367,448.4282399000367,448.4282399000367,448.4282399000367,448.4282399000367,448.4282399000367,448.4282399000367,448.4282399000367,num_1,1.0009786000009626,449.462041300023,449.462041300023,None,,13,001,2025-12-23_10h39.20.471,2025C_exp1_detect,2022.2.4,59.946467801396665,
39.2,315,1,0,1,0,0,171,171,106,449.462041300023,449.462041300023,449.962631100032,450.02951349999057,450.0796541000018,450.0796541000018,450.0796541000018,450.0796541000018,450.1295003000414,450.1295003000414,450.1295003000414,450.1295003000414,450.1295003000414,450.1295003000414,450.1295003000414,450.1295003000414,450.1295003000414,450.1295003000414,num_3,1.4278741999878548,451.5808593000402,451.5808593000402,None,,13,001,2025-12-23_10h39.20.471,2025C_exp1_detect,2022.2.4,59.946467801396665,
15.7,45,1,1,-1,0,0,172,172,55,451.5808593000402,451.5808593000402,452.0813028999837,452.1480693999911,452.1985088000074,452.1985088000074,452.1985088000074,452.1985088000074,452.2482507000095,452.2482507000095,452.2482507000095,452.2482507000095,452.2482507000095,452.2482507000095,452.2482507000095,452.2482507000095,452.2482507000095,452.2482507000095,num_1,0.8294442999758758,453.09913610003423,453.09913610003423,None,,13,001,2025-12-23_10h39.20.471,2025C_exp1_detect,2022.2.4,59.946467801396665,
35.3,45,1,0,1,0,0,173,173,96,453.09913610003423,453.09913610003423,453.5995031000348,453.6663077000412,453.716642400017,453.716642400017,453.716642400017,453.716642400017,453.7664555000374,453.7664555000374,453.7664555000374,453.7664555000374,453.7664555000374,453.7664555000374,453.7664555000374,453.7664555000374,453.7664555000374,453.7664555000374,num_3,1.1191765000112355,454.91747600003146,454.91747600003146,None,,13,001,2025-12-23_10h39.20.471,2025C_exp1_detect,2022.2.4,59.946467801396665,
19.6,315,0,1,-1,1,0,174,174,335,454.91747600003146,454.91747600003146,455.41805989999557,455.484993799997,455.5350996000343,455.5350996000343,455.5350996000343,455.5350996000343,455.58501839998644,455.58501839998644,455.58501839998644,455.58501839998644,455.58501839998644,455.58501839998644,455.58501839998644,455.58501839998644,455.58501839998644,455.58501839998644,num_3,0.9889125000336207,456.6024638999952,456.6024638999952,None,,13,001,2025-12-23_10h39.20.471,2025C_exp1_detect,2022.2.4,59.946467801396665,
22.7,315,1,1,-1,-1,0,175,175,210,456.6024638999952,456.6024638999952,457.103307900019,457.16986770002404,457.2202239999897,457.2202239999897,457.2202239999897,457.2202239999897,457.27018570003565,457.27018570003565,457.27018570003565,457.27018570003565,457.27018570003565,457.27018570003565,457.27018570003565,457.27018570003565,457.27018570003565,457.27018570003565,num_1,0.9114516000263393,458.204214700032,458.204214700032,None,,13,001,2025-12-23_10h39.20.471,2025C_exp1_detect,2022.2.4,59.946467801396665,
42.7,315,1,0,1,1,0,176,176,395,458.204214700032,458.204214700032,458.70486430003075,458.7713217000128,458.82161740004085,458.82161740004085,458.82161740004085,458.82161740004085,458.871624100022,458.871624100022,458.871624100022,458.871624100022,458.871624100022,458.871624100022,458.871624100022,458.871624100022,458.871624100022,458.871624100022,num_3,2.2302193000214174,461.12373059999663,461.12373059999663,None,,13,001,2025-12-23_10h39.20.471,2025C_exp1_detect,2022.2.4,59.946467801396665,
22.7,45,0,0,1,0,0,177,177,75,461.12373059999663,461.12373059999663,461.62416080001276,461.6912099000183,461.74120059999404,461.74120059999404,461.74120059999404,461.74120059999404,461.79110610001953,461.79110610001953,461.79110610001953,461.79110610001953,461.79110610001953,461.79110610001953,461.79110610001953,461.79110610001953,461.79110610001953,461.79110610001953,num_3,0.9901580999721773,462.8087372999871,462.8087372999871,None,,13,001,2025-12-23_10h39.20.471,2025C_exp1_detect,2022.2.4,59.946467801396665,
42.7,315,0,1,-1,0,0,178,178,53,462.8087372999871,462.8087372999871,463.30921430001035,463.3759674000321,463.42681060003815,463.42681060003815,463.42681060003815,463.42681060003815,463.47612230002414,463.47612230002414,463.47612230002414,463.47612230002414,463.47612230002414,463.47612230002414,463.47612230002414,463.47612230002414,463.47612230002414,463.47612230002414,num_3,1.0175443000043742,464.51070159999654,464.51070159999654,None,,13,001,2025-12-23_10h39.20.471,2025C_exp1_detect,2022.2.4,59.946467801396665,
15.7,45,1,0,1,-1,0,179,179,235,464.51070159999654,464.51070159999654,465.01131219998933,465.07780540001113,465.1282908000285,465.1282908000285,465.1282908000285,465.1282908000285,465.17787010001484,465.17787010001484,465.17787010001484,465.17787010001484,465.17787010001484,465.17787010001484,465.17787010001484,465.17787010001484,465.17787010001484,465.17787010001484,num_3,1.100352700043004,466.29571600002237,466.29571600002237,None,,13,001,2025-12-23_10h39.20.471,2025C_exp1_detect,2022.2.4,59.946467801396665,
15.7,45,1,1,1,-1,0,180,180,271,466.29571600002237,466.29571600002237,466.7963225999847,466.8628231000039,466.91308910003863,466.91308910003863,466.91308910003863,466.91308910003863,466.963078700006,466.963078700006,466.963078700006,466.963078700006,466.963078700006,466.963078700006,466.963078700006,466.963078700006,466.963078700006,466.963078700006,num_1,0.6507149999961257,467.6311709000147,467.6311709000147,None,,13,001,2025-12-23_10h39.20.471,2025C_exp1_detect,2022.2.4,59.946467801396665,
15.7,315,1,0,-1,0,0,181,181,28,467.6311709000147,467.6311709000147,468.13092830003006,468.19793640001444,468.247817400028,468.247817400028,468.247817400028,468.247817400028,468.2984560999903,468.2984560999903,468.2984560999903,468.2984560999903,468.2984560999903,468.2984560999903,468.2984560999903,468.2984560999903,468.2984560999903,468.2984560999903,num_1,0.7478406999725848,469.0650439999881,469.0650439999881,None,,13,001,2025-12-23_10h39.20.471,2025C_exp1_detect,2022.2.4,59.946467801396665,
39.2,45,0,1,1,-1,0,182,182,259,469.0650439999881,469.0650439999881,469.56580350000877,469.63245590002043,469.68248570000287,469.68248570000287,469.68248570000287,469.68248570000287,469.7325772999902,469.7325772999902,469.7325772999902,469.7325772999902,469.7325772999902,469.7325772999902,469.7325772999902,469.7325772999902,469.7325772999902,469.7325772999902,num_1,0.8728157000150532,470.6332891000202,470.6332891000202,None,,13,001,2025-12-23_10h39.20.471,2025C_exp1_detect,2022.2.4,59.946467801396665,
15.7,45,1,0,-1,0,0,183,183,19,470.6332891000202,470.6332891000202,471.13402990001487,471.20061270002043,471.25073750002775,471.25073750002775,471.25073750002775,471.25073750002775,471.3007474000333,471.3007474000333,471.3007474000333,471.3007474000333,471.3007474000333,471.3007474000333,471.3007474000333,471.3007474000333,471.3007474000333,471.3007474000333,num_3,1.2493191999965347,472.56852169998456,472.56852169998456,None,,13,001,2025-12-23_10h39.20.471,2025C_exp1_detect,2022.2.4,59.946467801396665,
39.2,315,0,0,1,0,0,184,184,88,472.56852169998456,472.56852169998456,473.06897190003656,473.13574430003064,473.1860959000187,473.1860959000187,473.1860959000187,473.1860959000187,473.23648790002335,473.23648790002335,473.23648790002335,473.23648790002335,473.23648790002335,473.23648790002335,473.23648790002335,473.23648790002335,473.23648790002335,473.23648790002335,num_3,0.9766774000017904,474.2369966999977,474.2369966999977,None,,13,001,2025-12-23_10h39.20.471,2025C_exp1_detect,2022.2.4,59.946467801396665,
19.6,315,1,1,-1,-1,0,185,185,209,474.2369966999977,474.2369966999977,474.7373479999951,474.80405380000593,474.85456459998386,474.85456459998386,474.85456459998386,474.85456459998386,474.9042731000227,474.9042731000227,474.9042731000227,474.9042731000227,474.9042731000227,474.9042731000227,474.9042731000227,474.9042731000227,474.9042731000227,474.9042731000227,num_1,1.045150299964007,475.9718721000245,475.9718721000245,None,,13,001,2025-12-23_10h39.20.471,2025C_exp1_detect,2022.2.4,59.946467801396665,
42.7,45,0,1,-1,-1,0,186,186,188,475.9718721000245,475.9718721000245,476.47241470002336,476.53910120000364,476.5893959000241,476.5893959000241,476.5893959000241,476.5893959000241,476.6394041000167,476.6394041000167,476.6394041000167,476.6394041000167,476.6394041000167,476.6394041000167,476.6394041000167,476.6394041000167,476.6394041000167,476.6394041000167,num_3,1.1338895999942906,477.79038730001776,477.79038730001776,None,,13,001,2025-12-23_10h39.20.471,2025C_exp1_detect,2022.2.4,59.946467801396665,
19.6,45,0,0,1,1,0,187,187,362,477.79038730001776,477.79038730001776,478.2908588999999,478.3577544,478.40815540001495,478.40815540001495,478.40815540001495,478.40815540001495,478.4577153000282,478.4577153000282,478.4577153000282,478.4577153000282,478.4577153000282,478.4577153000282,478.4577153000282,478.4577153000282,478.4577153000282,478.4577153000282,num_3,1.331877400050871,479.80903890001355,479.80903890001355,None,,13,001,2025-12-23_10h39.20.471,2025C_exp1_detect,2022.2.4,59.946467801396665,
15.7,315,0,1,-1,0,0,188,188,46,479.80903890001355,479.80903890001355,480.3095854999847,480.3762837999966,480.42664580000564,480.42664580000564,480.42664580000564,480.42664580000564,480.4765258000116,480.4765258000116,480.4765258000116,480.4765258000116,480.4765258000116,480.4765258000116,480.4765258000116,480.4765258000116,480.4765258000116,480.4765258000116,num_3,0.9135838000220247,481.41059159999713,481.41059159999713,None,,13,001,2025-12-23_10h39.20.471,2025C_exp1_detect,2022.2.4,59.946467801396665,
29.4,315,0,1,1,0,0,189,189,122,481.41059159999713,481.41059159999713,481.9112382000312,481.97805189999053,482.02822510001715,482.02822510001715,482.02822510001715,482.02822510001715,482.0780941999983,482.0780941999983,482.0780941999983,482.0780941999983,482.0780941999983,482.0780941999983,482.0780941999983,482.0780941999983,482.0780941999983,482.0780941999983,num_1,0.7910822000121698,482.89552020002156,482.89552020002156,None,,13,001,2025-12-23_10h39.20.471,2025C_exp1_detect,2022.2.4,59.946467801396665,
25.5,315,0,1,-1,-1,0,190,190,193,482.89552020002156,482.89552020002156,483.39611790003255,483.4626806000015,483.51298380002845,483.51298380002845,483.51298380002845,483.51298380002845,483.5630170000368,483.5630170000368,483.5630170000368,483.5630170000368,483.5630170000368,483.5630170000368,483.5630170000368,483.5630170000368,483.5630170000368,483.5630170000368,num_3,1.203474699985236,484.79796699999133,484.79796699999133,None,,13,001,2025-12-23_10h39.20.471,2025C_exp1_detect,2022.2.4,59.946467801396665,
15.7,45,1,0,1,0,0,191,191,91,484.79796699999133,484.79796699999133,485.29790100001264,485.36460480000824,485.41492469998775,485.41492469998775,485.41492469998775,485.41492469998775,485.4648549000267,485.4648549000267,485.4648549000267,485.4648549000267,485.4648549000267,485.4648549000267,485.4648549000267,485.4648549000267,485.4648549000267,485.4648549000267,num_3,1.2612966999877244,486.74933750001946,486.74933750001946,None,,13,001,2025-12-23_10h39.20.471,2025C_exp1_detect,2022.2.4,59.946467801396665,
39.2,45,0,0,-1,1,0,192,192,295,486.74933750001946,486.74933750001946,487.24983530002646,487.3167227000231,487.3668465000228,487.3668465000228,487.3668465000228,487.3668465000228,487.4167395000113,487.4167395000113,487.4167395000113,487.4167395000113,487.4167395000113,487.4167395000113,487.4167395000113,487.4167395000113,487.4167395000113,487.4167395000113,num_3,0.5885594999999739,488.03394659998594,488.03394659998594,None,,13,001,2025-12-23_10h39.20.471,2025C_exp1_detect,2022.2.4,59.946467801396665,
29.4,315,1,0,1,1,0,193,193,392,488.03394659998594,488.03394659998594,488.53439600003185,488.6013032000046,488.6514576000045,488.6514576000045,488.6514576000045,488.6514576000045,488.70132490003016,488.70132490003016,488.70132490003016,488.70132490003016,488.70132490003016,488.70132490003016,488.70132490003016,488.70132490003016,488.70132490003016,488.70132490003016,num_3,0.7447064000298269,489.46892220003065,489.46892220003065,None,,13,001,2025-12-23_10h39.20.471,2025C_exp1_detect,2022.2.4,59.946467801396665,
25.5,315,1,1,1,-1,0,194,194,283,489.46892220003065,489.46892220003065,489.96926909999456,490.0361309000291,490.08631039998727,490.08631039998727,490.08631039998727,490.08631039998727,490.1360936000128,490.1360936000128,490.1360936000128,490.1360936000128,490.1360936000128,490.1360936000128,490.1360936000128,490.1360936000128,490.1360936000128,490.1360936000128,num_1,0.8372607000055723,491.0036441999837,491.0036441999837,None,,13,001,2025-12-23_10h39.20.471,2025C_exp1_detect,2022.2.4,59.946467801396665,
39.2,315,1,1,-1,0,0,195,195,70,491.0036441999837,491.0036441999837,491.5042112999945,491.5708734000218,491.62135000003036,491.62135000003036,491.62135000003036,491.62135000003036,491.67112590000033,491.67112590000033,491.67112590000033,491.67112590000033,491.67112590000033,491.67112590000033,491.67112590000033,491.67112590000033,491.67112590000033,491.67112590000033,num_1,0.7428943000268191,492.4383483999991,492.4383483999991,None,,13,001,2025-12-23_10h39.20.471,2025C_exp1_detect,2022.2.4,59.946467801396665,
