contrast,ori,side,precue,trials.thisRepN,trials.thisTrialN,trials.thisN,trials.thisIndex,fix1.started,fix2.started,precue_2.started,precue_2.stopped,left_grating.started,right_grating.started,noise_left2.started,noise_right2.started,fix1.stopped,fix2.stopped,left_grating.stopped,right_grating.stopped,noise_left2.stopped,noise_right2.stopped,key_resp.started,fix1_2.started,fix2_2.started,key_resp.keys,key_resp.rt,key_resp_2.started,break_text_2.started,key_resp_2.keys,key_resp_2.rt,participant,session,date,expName,psychopyVersion,frameRate,
12.1,45,-1,0,0,0,0,0,24.647797200013883,24.647797200013883,25.12507910002023,25.191738400026225,25.261403699987568,25.261403699987568,25.261403699987568,25.261403699987568,25.291589200031012,25.291589200031012,25.291589200031012,25.291589200031012,25.291589200031012,25.291589200031012,25.30830050003715,25.30830050003715,25.30830050003715,right,0.9998625000007451,26.32632700004615,26.32632700004615,None,,14,001,2025-12-23_14h03.03.680,2025C_exp1_comp,2022.2.4,59.84279298403744,
29.4,315,1,-1,0,1,1,104,26.32632700004615,26.32632700004615,26.826966100023128,26.893681599991396,26.94363069999963,26.94363069999963,26.94363069999963,26.94363069999963,26.993380600004457,26.993380600004457,26.993380600004457,26.993380600004457,26.993380600004457,26.993380600004457,26.993380600004457,26.993380600004457,26.993380600004457,right,1.4031535000540316,28.42844030004926,28.42844030004926,None,,14,001,2025-12-23_14h03.03.680,2025C_exp1_comp,2022.2.4,59.84279298403744,
39.2,315,-1,1,0,2,2,52,28.42844030004926,28.42844030004926,28.92910910001956,28.995757800061256,29.045792300021276,29.045792300021276,29.045792300021276,29.045792300021276,29.095744500053115,29.095744500053115,29.095744500053115,29.095744500053115,29.095744500053115,29.095744500053115,29.095744500053115,29.095744500053115,29.095744500053115,right,1.8771105000050738,30.997701300075278,30.997701300075278,None,,14,001,2025-12-23_14h03.03.680,2025C_exp1_comp,2022.2.4,59.84279298403744,
35.3,45,-1,1,0,3,3,42,30.997701300075278,30.997701300075278,31.498080600053072,31.56489869998768,31.615074999979697,31.615074999979697,31.615074999979697,31.615074999979697,31.664681900059804,31.664681900059804,31.664681900059804,31.664681900059804,31.664681900059804,31.664681900059804,31.664681900059804,31.664681900059804,31.664681900059804,left,1.4671037000371143,33.14957750006579,33.14957750006579,None,,14,001,2025-12-23_14h03.03.680,2025C_exp1_comp,2022.2.4,59.84279298403744,
22.7,45,-1,0,0,4,4,3,33.14957750006579,33.14957750006579,33.650391899980605,33.71704530005809,33.767009400064126,33.767009400064126,33.767009400064126,33.767009400064126,33.81711990002077,33.81711990002077,33.81711990002077,33.81711990002077,33.81711990002077,33.81711990002077,33.81711990002077,33.81711990002077,33.81711990002077,right,1.451376200071536,35.285286400001496,35.285286400001496,None,,14,001,2025-12-23_14h03.03.680,2025C_exp1_comp,2022.2.4,59.84279298403744,
42.7,45,-1,-1,0,5,5,80,35.285286400001496,35.285286400001496,35.785522200050764,35.85227210004814,35.90278770006262,35.90278770006262,35.90278770006262,35.90278770006262,35.952822600025684,35.952822600025684,35.952822600025684,35.952822600025684,35.952822600025684,35.952822600025684,35.952822600025684,35.952822600025684,35.952822600025684,left,2.0517990000080317,38.02120980003383,38.02120980003383,None,,14,001,2025-12-23_14h03.03.680,2025C_exp1_comp,2022.2.4,59.84279298403744,
15.7,45,-1,0,0,6,6,1,38.02120980003383,38.02120980003383,38.52175489999354,38.58846150001045,38.63891610002611,38.63891610002611,38.63891610002611,38.63891610002611,38.688548500067554,38.688548500067554,38.688548500067554,38.688548500067554,38.688548500067554,38.688548500067554,38.688548500067554,38.688548500067554,38.688548500067554,right,15.244356799987145,53.95391909999307,53.95391909999307,None,,14,001,2025-12-23_14h03.03.680,2025C_exp1_comp,2022.2.4,59.84279298403744,
19.6,45,-1,1,0,7,7,38,53.95391909999307,53.95391909999307,54.454479700070806,54.5208725000266,54.57136860000901,54.57136860000901,54.57136860000901,54.57136860000901,54.62121020001359,54.62121020001359,54.62121020001359,54.62121020001359,54.62121020001359,54.62121020001359,54.62121020001359,54.62121020001359,54.62121020001359,right,1.9196313000284135,56.57306460000109,56.57306460000109,None,,14,001,2025-12-23_14h03.03.680,2025C_exp1_comp,2022.2.4,59.84279298403744,
15.7,315,1,1,0,8,8,64,56.57306460000109,56.57306460000109,57.07370660000015,57.14040849998128,57.19060700002592,57.19060700002592,57.19060700002592,57.19060700002592,57.240526400040835,57.240526400040835,57.240526400040835,57.240526400040835,57.240526400040835,57.240526400040835,57.240526400040835,57.240526400040835,57.240526400040835,left,0.6034392999717966,57.8743395000929,57.8743395000929,None,,14,001,2025-12-23_14h03.03.680,2025C_exp1_comp,2022.2.4,59.84279298403744,
25.5,45,1,1,0,9,9,58,57.8743395000929,57.8743395000929,58.37526410003193,58.44199020008091,58.492272500065155,58.492272500065155,58.492272500065155,58.492272500065155,58.541768399998546,58.541768399998546,58.541768399998546,58.541768399998546,58.541768399998546,58.541768399998546,58.541768399998546,58.541768399998546,58.541768399998546,left,1.0787422999273986,59.642750400002114,59.642750400002114,None,,14,001,2025-12-23_14h03.03.680,2025C_exp1_comp,2022.2.4,59.84279298403744,
12.1,315,-1,-1,0,10,10,81,59.642750400002114,59.642750400002114,60.143439700012095,60.210142500000075,60.26044670003466,60.26044670003466,60.26044670003466,60.26044670003466,60.31024260004051,60.31024260004051,60.31024260004051,60.31024260004051,60.31024260004051,60.31024260004051,60.31024260004051,60.31024260004051,60.31024260004051,right,0.8462643000530079,61.17780190007761,61.17780190007761,None,,14,001,2025-12-23_14h03.03.680,2025C_exp1_comp,2022.2.4,59.84279298403744,
42.7,45,-1,1,0,11,11,44,61.17780190007761,61.17780190007761,61.67817410000134,61.74500940006692,61.79530940006953,61.79530940006953,61.79530940006953,61.79530940006953,61.84497990005184,61.84497990005184,61.84497990005184,61.84497990005184,61.84497990005184,61.84497990005184,61.84497990005184,61.84497990005184,61.84497990005184,right,1.3751181999687105,63.246536200051196,63.246536200051196,None,,14,001,2025-12-23_14h03.03.680,2025C_exp1_comp,2022.2.4,59.84279298403744,
29.4,315,1,1,0,12,12,68,63.246536200051196,63.246536200051196,63.74701960000675,63.81387519999407,63.864154800074175,63.864154800074175,63.864154800074175,63.864154800074175,63.914057000074536,63.914057000074536,63.914057000074536,63.914057000074536,63.914057000074536,63.914057000074536,63.914057000074536,63.914057000074536,63.914057000074536,left,0.7620223000412807,64.6978532000212,64.6978532000212,None,,14,001,2025-12-23_14h03.03.680,2025C_exp1_comp,2022.2.4,59.84279298403744,
39.2,45,-1,1,0,13,13,43,64.6978532000212,64.6978532000212,65.19845610007178,65.2651831000112,65.31538410007488,65.31538410007488,65.31538410007488,65.31538410007488,65.36544790002517,65.36544790002517,65.36544790002517,65.36544790002517,65.36544790002517,65.36544790002517,65.36544790002517,65.36544790002517,65.36544790002517,right,1.575359300011769,66.96678450005129,66.96678450005129,None,,14,001,2025-12-23_14h03.03.680,2025C_exp1_comp,2022.2.4,59.84279298403744,
29.4,315,-1,1,0,14,14,50,66.96678450005129,66.96678450005129,67.46768310002517,67.5343959000893,67.58467460004613,67.58467460004613,67.58467460004613,67.58467460004613,67.63436070003081,67.63436070003081,67.63436070003081,67.63436070003081,67.63436070003081,67.63436070003081,67.63436070003081,67.63436070003081,67.63436070003081,right,1.3305510999634862,68.98554560006596,68.98554560006596,None,,14,001,2025-12-23_14h03.03.680,2025C_exp1_comp,2022.2.4,59.84279298403744,
29.4,45,-1,0,0,15,15,5,68.98554560006596,68.98554560006596,69.48605890001636,69.55291359999683,69.6032370000612,69.6032370000612,69.6032370000612,69.6032370000612,69.65302530000918,69.65302530000918,69.65302530000918,69.65302530000918,69.65302530000918,69.65302530000918,69.65302530000918,69.65302530000918,69.65302530000918,left,0.8639543000608683,70.53714010003023,70.53714010003023,None,,14,001,2025-12-23_14h03.03.680,2025C_exp1_comp,2022.2.4,59.84279298403744,
42.7,45,1,0,0,16,16,26,70.53714010003023,70.53714010003023,71.03755010000896,71.10433830006514,71.15468360006344,71.15468360006344,71.15468360006344,71.15468360006344,71.20417160005309,71.20417160005309,71.20417160005309,71.20417160005309,71.20417160005309,71.20417160005309,71.20417160005309,71.20417160005309,71.20417160005309,right,0.6645735000493005,71.88846590009052,71.88846590009052,None,,14,001,2025-12-23_14h03.03.680,2025C_exp1_comp,2022.2.4,59.84279298403744,
35.3,45,1,1,0,17,17,60,71.88846590009052,71.88846590009052,72.38908190000802,72.45566099998541,72.5059952000156,72.5059952000156,72.5059952000156,72.5059952000156,72.5558906000806,72.5558906000806,72.5558906000806,72.5558906000806,72.5558906000806,72.5558906000806,72.5558906000806,72.5558906000806,72.5558906000806,right,1.2405904000625014,73.82374070002697,73.82374070002697,None,,14,001,2025-12-23_14h03.03.680,2025C_exp1_comp,2022.2.4,59.84279298403744,
12.1,45,-1,-1,0,18,18,72,73.82374070002697,73.82374070002697,74.32423730008304,74.3909668000415,74.44128380005714,74.44128380005714,74.44128380005714,74.44128380005714,74.49105150008108,74.49105150008108,74.49105150008108,74.49105150008108,74.49105150008108,74.49105150008108,74.49105150008108,74.49105150008108,74.49105150008108,right,0.9299477000022307,75.44188549998216,75.44188549998216,None,,14,001,2025-12-23_14h03.03.680,2025C_exp1_comp,2022.2.4,59.84279298403744,
29.4,45,-1,1,0,19,19,41,75.44188549998216,75.44188549998216,75.94252680009231,76.00925660005305,76.05947630002629,76.05947630002629,76.05947630002629,76.05947630002629,76.10927320003975,76.10927320003975,76.10927320003975,76.10927320003975,76.10927320003975,76.10927320003975,76.10927320003975,76.10927320003975,76.10927320003975,right,1.111232600058429,77.24381390004419,77.24381390004419,None,,14,001,2025-12-23_14h03.03.680,2025C_exp1_comp,2022.2.4,59.84279298403744,
12.1,315,-1,1,0,20,20,45,77.24381390004419,77.24381390004419,77.74437470000703,77.81092600000557,77.86139089998323,77.86139089998323,77.86139089998323,77.86139089998323,77.91119180002715,77.91119180002715,77.91119180002715,77.91119180002715,77.91119180002715,77.91119180002715,77.91119180002715,77.91119180002715,77.91119180002715,right,2.4606080000521615,80.39674190001097,80.39674190001097,None,,14,001,2025-12-23_14h03.03.680,2025C_exp1_comp,2022.2.4,59.84279298403744,
35.3,315,1,0,0,21,21,33,80.39674190001097,80.39674190001097,80.8976916000247,80.96440789999906,81.01461660000496,81.01461660000496,81.01461660000496,81.01461660000496,81.0643432000652,81.0643432000652,81.0643432000652,81.0643432000652,81.0643432000652,81.0643432000652,81.0643432000652,81.0643432000652,81.0643432000652,left,0.547729599988088,81.63153890008107,81.63153890008107,None,,14,001,2025-12-23_14h03.03.680,2025C_exp1_comp,2022.2.4,59.84279298403744,
39.2,45,1,1,0,22,22,61,81.63153890008107,81.63153890008107,82.13198790000752,82.1987885000417,82.24925039999653,82.24925039999653,82.24925039999653,82.24925039999653,82.29895189998206,82.29895189998206,82.29895189998206,82.29895189998206,82.29895189998206,82.29895189998206,82.29895189998206,82.29895189998206,82.29895189998206,right,0.8892898999620229,83.21653249999508,83.21653249999508,None,,14,001,2025-12-23_14h03.03.680,2025C_exp1_comp,2022.2.4,59.84279298403744,
22.7,315,-1,1,0,23,23,48,83.21653249999508,83.21653249999508,83.7169855000684,83.7836325999815,83.83402200008277,83.83402200008277,83.83402200008277,83.83402200008277,83.88385230000131,83.88385230000131,83.88385230000131,83.88385230000131,83.88385230000131,83.88385230000131,83.88385230000131,83.88385230000131,83.88385230000131,right,0.8971488999668509,84.80137680005282,84.80137680005282,None,,14,001,2025-12-23_14h03.03.680,2025C_exp1_comp,2022.2.4,59.84279298403744,
25.5,315,1,0,0,24,24,31,84.80137680005282,84.80137680005282,85.30190940003376,85.36864360002801,85.4189258000115,85.4189258000115,85.4189258000115,85.4189258000115,85.46874660009053,85.46874660009053,85.46874660009053,85.46874660009053,85.46874660009053,85.46874660009053,85.46874660009053,85.46874660009053,85.46874660009053,left,1.7358394000912085,87.23719210003037,87.23719210003037,None,,14,001,2025-12-23_14h03.03.680,2025C_exp1_comp,2022.2.4,59.84279298403744,
25.5,45,-1,1,0,25,25,40,87.23719210003037,87.23719210003037,87.73769129998982,87.80413960001897,87.8543992000632,87.8543992000632,87.8543992000632,87.8543992000632,87.90463580004871,87.90463580004871,87.90463580004871,87.90463580004871,87.90463580004871,87.90463580004871,87.90463580004871,87.90463580004871,87.90463580004871,right,0.7802074999781325,88.70529479999095,88.70529479999095,None,,14,001,2025-12-23_14h03.03.680,2025C_exp1_comp,2022.2.4,59.84279298403744,
39.2,45,1,0,0,26,26,25,88.70529479999095,88.70529479999095,89.20567380008288,89.27258009999059,89.32270530005917,89.32270530005917,89.32270530005917,89.32270530005917,89.37264620000497,89.37264620000497,89.37264620000497,89.37264620000497,89.37264620000497,89.37264620000497,89.37264620000497,89.37264620000497,89.37264620000497,right,1.9352889000438154,91.32460789999459,91.32460789999459,None,,14,001,2025-12-23_14h03.03.680,2025C_exp1_comp,2022.2.4,59.84279298403744,
39.2,315,1,-1,0,27,27,106,91.32460789999459,91.32460789999459,91.82499790005386,91.89170150004793,91.94201950007118,91.94201950007118,91.94201950007118,91.94201950007118,91.99165009998251,91.99165009998251,91.99165009998251,91.99165009998251,91.99165009998251,91.99165009998251,91.99165009998251,91.99165009998251,91.99165009998251,left,0.7414735000347719,92.75918619998265,92.75918619998265,None,,14,001,2025-12-23_14h03.03.680,2025C_exp1_comp,2022.2.4,59.84279298403744,
19.6,315,1,0,0,28,28,29,92.75918619998265,92.75918619998265,93.26001080009155,93.32675720006227,93.37698940001428,93.37698940001428,93.37698940001428,93.37698940001428,93.42671869997866,93.42671869997866,93.42671869997866,93.42671869997866,93.42671869997866,93.42671869997866,93.42671869997866,93.42671869997866,93.42671869997866,left,1.1695601999526843,94.62769600003958,94.62769600003958,None,,14,001,2025-12-23_14h03.03.680,2025C_exp1_comp,2022.2.4,59.84279298403744,
15.7,45,1,-1,0,29,29,91,94.62769600003958,94.62769600003958,95.12847300001886,95.19513540004846,95.24552400002722,95.24552400002722,95.24552400002722,95.24552400002722,95.29537360009272,95.29537360009272,95.29537360009272,95.29537360009272,95.29537360009272,95.29537360009272,95.29537360009272,95.29537360009272,95.29537360009272,right,1.1493606000440195,96.46294400002807,96.46294400002807,None,,14,001,2025-12-23_14h03.03.680,2025C_exp1_comp,2022.2.4,59.84279298403744,
35.3,315,1,1,0,30,30,69,96.46294400002807,96.46294400002807,96.96356970001943,97.03029880009126,97.08056959998794,97.08056959998794,97.08056959998794,97.08056959998794,97.13038380001672,97.13038380001672,97.13038380001672,97.13038380001672,97.13038380001672,97.13038380001672,97.13038380001672,97.13038380001672,97.13038380001672,left,1.0741466999752447,98.23125419998541,98.23125419998541,None,,14,001,2025-12-23_14h03.03.680,2025C_exp1_comp,2022.2.4,59.84279298403744,
39.2,315,-1,-1,0,31,31,88,98.23125419998541,98.23125419998541,98.73194369999692,98.79868770006578,98.84898050001357,98.84898050001357,98.84898050001357,98.84898050001357,98.89876600005664,98.89876600005664,98.89876600005664,98.89876600005664,98.89876600005664,98.89876600005664,98.89876600005664,98.89876600005664,98.89876600005664,right,0.9052276000147685,99.8330724000698,99.8330724000698,None,,14,001,2025-12-23_14h03.03.680,2025C_exp1_comp,2022.2.4,59.84279298403744,
15.7,315,1,-1,0,32,32,100,99.8330724000698,99.8330724000698,100.33358860004228,100.40028930001426,100.45033300004434,100.45033300004434,100.45033300004434,100.45033300004434,100.50038920005318,100.50038920005318,100.50038920005318,100.50038920005318,100.50038920005318,100.50038920005318,100.50038920005318,100.50038920005318,100.50038920005318,left,0.8482967000454664,101.3680514000589,101.3680514000589,None,,14,001,2025-12-23_14h03.03.680,2025C_exp1_comp,2022.2.4,59.84279298403744,
15.7,45,1,1,0,33,33,55,101.3680514000589,101.3680514000589,101.86859870003536,101.93529769999441,101.98559290007688,101.98559290007688,101.98559290007688,101.98559290007688,102.03539249999449,102.03539249999449,102.03539249999449,102.03539249999449,102.03539249999449,102.03539249999449,102.03539249999449,102.03539249999449,102.03539249999449,right,0.9604970999062061,103.01941220008302,103.01941220008302,None,,14,001,2025-12-23_14h03.03.680,2025C_exp1_comp,2022.2.4,59.84279298403744,
35.3,45,-1,-1,0,34,34,78,103.01941220008302,103.01941220008302,103.5202658000635,103.58683779998682,103.6372899999842,103.6372899999842,103.6372899999842,103.6372899999842,103.68693690001965,103.68693690001965,103.68693690001965,103.68693690001965,103.68693690001965,103.68693690001965,103.68693690001965,103.68693690001965,103.68693690001965,left,1.3498221000190824,105.0551738999784,105.0551738999784,None,,14,001,2025-12-23_14h03.03.680,2025C_exp1_comp,2022.2.4,59.84279298403744,
42.7,315,-1,1,0,35,35,53,105.0551738999784,105.0551738999784,105.55547600006685,105.62232000008225,105.6724847999867,105.6724847999867,105.6724847999867,105.6724847999867,105.72228540002834,105.72228540002834,105.72228540002834,105.72228540002834,105.72228540002834,105.72228540002834,105.72228540002834,105.72228540002834,105.72228540002834,right,1.0182090000016615,106.77334429998882,106.77334429998882,None,,14,001,2025-12-23_14h03.03.680,2025C_exp1_comp,2022.2.4,59.84279298403744,
19.6,45,-1,0,0,36,36,2,106.77334429998882,106.77334429998882,107.27381919999607,107.34056020004209,107.39084920007735,107.39084920007735,107.39084920007735,107.39084920007735,107.4406931999838,107.4406931999838,107.4406931999838,107.4406931999838,107.4406931999838,107.4406931999838,107.4406931999838,107.4406931999838,107.4406931999838,right,0.883752099936828,108.34146710007917,108.34146710007917,None,,14,001,2025-12-23_14h03.03.680,2025C_exp1_comp,2022.2.4,59.84279298403744,
29.4,315,-1,0,0,37,37,14,108.34146710007917,108.34146710007917,108.84173430001829,108.90845470002387,108.95915200002491,108.95915200002491,108.95915200002491,108.95915200002491,109.00910570006818,109.00910570006818,109.00910570006818,109.00910570006818,109.00910570006818,109.00910570006818,109.00910570006818,109.00910570006818,109.00910570006818,left,1.0755044999532402,110.11000290000811,110.11000290000811,None,,14,001,2025-12-23_14h03.03.680,2025C_exp1_comp,2022.2.4,59.84279298403744,
29.4,45,1,0,0,38,38,23,110.11000290000811,110.11000290000811,110.61053070006892,110.6769163000863,110.72761509998236,110.72761509998236,110.72761509998236,110.72761509998236,110.77731869998388,110.77731869998388,110.77731869998388,110.77731869998388,110.77731869998388,110.77731869998388,110.77731869998388,110.77731869998388,110.77731869998388,left,0.9154440999263898,111.71151709998958,111.71151709998958,None,,14,001,2025-12-23_14h03.03.680,2025C_exp1_comp,2022.2.4,59.84279298403744,
19.6,315,1,-1,0,39,39,101,111.71151709998958,111.71151709998958,112.21212829998694,112.2787352000596,112.32915120001417,112.32915120001417,112.32915120001417,112.32915120001417,112.37893020000774,112.37893020000774,112.37893020000774,112.37893020000774,112.37893020000774,112.37893020000774,112.37893020000774,112.37893020000774,112.37893020000774,right,0.9768235000083223,113.38164090004284,113.38164090004284,None,,14,001,2025-12-23_14h03.03.680,2025C_exp1_comp,2022.2.4,59.84279298403744,
35.3,45,1,0,0,40,40,24,113.38164090004284,113.38164090004284,113.88042330008466,113.94697889999952,113.99740540003404,113.99740540003404,113.99740540003404,113.99740540003404,114.04712740005925,114.04712740005925,114.04712740005925,114.04712740005925,114.04712740005925,114.04712740005925,114.04712740005925,114.04712740005925,114.04712740005925,right,1.269948299974203,115.34860770008527,115.34860770008527,None,,14,001,2025-12-23_14h03.03.680,2025C_exp1_comp,2022.2.4,59.84279298403744,
15.7,315,-1,0,0,41,41,10,115.34860770008527,115.34860770008527,115.84918020002078,115.9159313000273,115.96619639999699,115.96619639999699,115.96619639999699,115.96619639999699,116.01596490002703,116.01596490002703,116.01596490002703,116.01596490002703,116.01596490002703,116.01596490002703,116.01596490002703,116.01596490002703,116.01596490002703,right,2.044624299975112,118.08466550009325,118.08466550009325,None,,14,001,2025-12-23_14h03.03.680,2025C_exp1_comp,2022.2.4,59.84279298403744,
19.6,45,1,-1,0,42,42,92,118.08466550009325,118.08466550009325,118.58508230000734,118.65178529999685,118.70219079998787,118.70219079998787,118.70219079998787,118.70219079998787,118.7518300000811,118.7518300000811,118.7518300000811,118.7518300000811,118.7518300000811,118.7518300000811,118.7518300000811,118.7518300000811,118.7518300000811,left,0.6450953999301419,119.41927860002033,119.41927860002033,None,,14,001,2025-12-23_14h03.03.680,2025C_exp1_comp,2022.2.4,59.84279298403744,
22.7,315,1,1,0,43,43,66,119.41927860002033,119.41927860002033,119.9198924000375,119.98660220007878,120.03678419999778,120.03678419999778,120.03678419999778,120.03678419999778,120.0865499000065,120.0865499000065,120.0865499000065,120.0865499000065,120.0865499000065,120.0865499000065,120.0865499000065,120.0865499000065,120.0865499000065,right,0.5420709999743849,120.6538757000817,120.6538757000817,None,,14,001,2025-12-23_14h03.03.680,2025C_exp1_comp,2022.2.4,59.84279298403744,
22.7,315,-1,0,0,44,44,12,120.6538757000817,120.6538757000817,121.15435990004335,121.22107060009148,121.2713757000165,121.2713757000165,121.2713757000165,121.2713757000165,121.32110210007522,121.32110210007522,121.32110210007522,121.32110210007522,121.32110210007522,121.32110210007522,121.32110210007522,121.32110210007522,121.32110210007522,right,0.6920392999891192,122.03857269999571,122.03857269999571,None,,14,001,2025-12-23_14h03.03.680,2025C_exp1_comp,2022.2.4,59.84279298403744,
15.7,45,1,0,0,45,45,19,122.03857269999571,122.03857269999571,122.53906019998249,122.60595040000044,122.6562296000775,122.6562296000775,122.6562296000775,122.6562296000775,122.7059296000516,122.7059296000516,122.7059296000516,122.7059296000516,122.7059296000516,122.7059296000516,122.7059296000516,122.7059296000516,122.7059296000516,left,0.5393025999655947,123.27340569999069,123.27340569999069,None,,14,001,2025-12-23_14h03.03.680,2025C_exp1_comp,2022.2.4,59.84279298403744,
22.7,45,-1,-1,0,46,46,75,123.27340569999069,123.27340569999069,123.77392429998145,123.84058459999505,123.890858400031,123.890858400031,123.890858400031,123.890858400031,123.94071770005394,123.94071770005394,123.94071770005394,123.94071770005394,123.94071770005394,123.94071770005394,123.94071770005394,123.94071770005394,123.94071770005394,right,0.535281699965708,124.50776740000583,124.50776740000583,None,,14,001,2025-12-23_14h03.03.680,2025C_exp1_comp,2022.2.4,59.84279298403744,
19.6,45,1,0,0,47,47,20,124.50776740000583,124.50776740000583,125.008224899997,125.07492370007094,125.12525220005773,125.12525220005773,125.12525220005773,125.12525220005773,125.17474679998122,125.17474679998122,125.17474679998122,125.17474679998122,125.17474679998122,125.17474679998122,125.17474679998122,125.17474679998122,125.17474679998122,left,1.0048566000768915,126.20948950003367,126.20948950003367,None,,14,001,2025-12-23_14h03.03.680,2025C_exp1_comp,2022.2.4,59.84279298403744,
39.2,315,1,0,0,48,48,34,126.20948950003367,126.20948950003367,126.70989890000783,126.77663099998608,126.82681610004511,126.82681610004511,126.82681610004511,126.82681610004511,126.87661999999546,126.87661999999546,126.87661999999546,126.87661999999546,126.87661999999546,126.87661999999546,126.87661999999546,126.87661999999546,126.87661999999546,right,0.5671734999632463,127.46068130002823,127.46068130002823,None,,14,001,2025-12-23_14h03.03.680,2025C_exp1_comp,2022.2.4,59.84279298403744,
15.7,45,-1,-1,0,49,49,73,127.46068130002823,127.46068130002823,127.96110010007396,128.02792290004436,128.07822909997776,128.07822909997776,128.07822909997776,128.07822909997776,128.12800050002988,128.12800050002988,128.12800050002988,128.12800050002988,128.12800050002988,128.12800050002988,128.12800050002988,128.12800050002988,128.12800050002988,right,0.5169746000319719,128.6618812000379,128.6618812000379,None,,14,001,2025-12-23_14h03.03.680,2025C_exp1_comp,2022.2.4,59.84279298403744,
35.3,315,1,-1,0,50,50,105,128.6618812000379,128.6618812000379,129.16229340003338,129.2291437999811,129.27939759998117,129.27939759998117,129.27939759998117,129.27939759998117,129.32893670001067,129.32893670001067,129.32893670001067,129.32893670001067,129.32893670001067,129.32893670001067,129.32893670001067,129.32893670001067,129.32893670001067,right,0.6274027000181377,129.97985180001706,129.97985180001706,None,,14,001,2025-12-23_14h03.03.680,2025C_exp1_comp,2022.2.4,59.84279298403744,
12.1,315,1,0,0,51,51,27,129.97985180001706,129.97985180001706,130.48033050005324,130.54709940007888,130.5973807000555,130.5973807000555,130.5973807000555,130.5973807000555,130.64720350003336,130.64720350003336,130.64720350003336,130.64720350003336,130.64720350003336,130.64720350003336,130.64720350003336,130.64720350003336,130.64720350003336,left,0.46877649996895343,131.14767229999416,131.14767229999416,None,,14,001,2025-12-23_14h03.03.680,2025C_exp1_comp,2022.2.4,59.84279298403744,
39.2,315,1,1,0,52,52,70,131.14767229999416,131.14767229999416,131.6481232000515,131.71477630001027,131.7652007000288,131.7652007000288,131.7652007000288,131.7652007000288,131.81501780007966,131.81501780007966,131.81501780007966,131.81501780007966,131.81501780007966,131.81501780007966,131.81501780007966,131.81501780007966,131.81501780007966,right,0.4612051999429241,132.29868810006883,132.29868810006883,None,,14,001,2025-12-23_14h03.03.680,2025C_exp1_comp,2022.2.4,59.84279298403744,
12.1,315,1,-1,0,53,53,99,132.29868810006883,132.29868810006883,132.79934710008092,132.8660557999974,132.91634690004867,132.91634690004867,132.91634690004867,132.91634690004867,132.96613160008565,132.96613160008565,132.96613160008565,132.96613160008565,132.96613160008565,132.96613160008565,132.96613160008565,132.96613160008565,132.96613160008565,left,0.4949287000345066,133.48302400007378,133.48302400007378,None,,14,001,2025-12-23_14h03.03.680,2025C_exp1_comp,2022.2.4,59.84279298403744,
25.5,45,-1,-1,0,54,54,76,133.48302400007378,133.48302400007378,133.98382610001136,134.05054339999333,134.10081099998206,134.10081099998206,134.10081099998206,134.10081099998206,134.15067400003318,134.15067400003318,134.15067400003318,134.15067400003318,134.15067400003318,134.15067400003318,134.15067400003318,134.15067400003318,134.15067400003318,right,0.38932620000559837,134.56778070004657,134.56778070004657,None,,14,001,2025-12-23_14h03.03.680,2025C_exp1_comp,2022.2.4,59.84279298403744,
19.6,45,1,1,0,55,55,56,134.56778070004657,134.56778070004657,135.06812080007512,135.13493840000592,135.1852232000092,135.1852232000092,135.1852232000092,135.1852232000092,135.23507920000702,135.23507920000702,135.23507920000702,135.23507920000702,135.23507920000702,135.23507920000702,135.23507920000702,135.23507920000702,135.23507920000702,left,0.9376466000685468,136.20242029998917,136.20242029998917,None,,14,001,2025-12-23_14h03.03.680,2025C_exp1_comp,2022.2.4,59.84279298403744,
12.1,45,1,0,0,56,56,18,136.20242029998917,136.20242029998917,136.70325060002506,136.76992950006388,136.82018979999702,136.82018979999702,136.82018979999702,136.82018979999702,136.86991230002604,136.86991230002604,136.86991230002604,136.86991230002604,136.86991230002604,136.86991230002604,136.86991230002604,136.86991230002604,136.86991230002604,left,0.4784255000995472,137.37039990001358,137.37039990001358,None,,14,001,2025-12-23_14h03.03.680,2025C_exp1_comp,2022.2.4,59.84279298403744,
42.7,315,1,1,0,57,57,71,137.37039990001358,137.37039990001358,137.87133470003027,137.9380547000328,137.98834610008635,137.98834610008635,137.98834610008635,137.98834610008635,138.03803579998203,138.03803579998203,138.03803579998203,138.03803579998203,138.03803579998203,138.03803579998203,138.03803579998203,138.03803579998203,138.03803579998203,right,0.44655740004964173,138.50501219998114,138.50501219998114,None,,14,001,2025-12-23_14h03.03.680,2025C_exp1_comp,2022.2.4,59.84279298403744,
12.1,45,-1,1,0,58,58,36,138.50501219998114,138.50501219998114,139.0055162999779,139.07224740006495,139.12255179998465,139.12255179998465,139.12255179998465,139.12255179998465,139.17221660003997,139.17221660003997,139.17221660003997,139.17221660003997,139.17221660003997,139.17221660003997,139.17221660003997,139.17221660003997,139.17221660003997,right,0.5521039000013843,139.75597290007863,139.75597290007863,None,,14,001,2025-12-23_14h03.03.680,2025C_exp1_comp,2022.2.4,59.84279298403744,
25.5,315,-1,-1,0,59,59,85,139.75597290007863,139.75597290007863,140.2566780000925,140.3233893000288,140.37383100006264,140.37383100006264,140.37383100006264,140.37383100006264,140.42338739999104,140.42338739999104,140.42338739999104,140.42338739999104,140.42338739999104,140.42338739999104,140.42338739999104,140.42338739999104,140.42338739999104,left,0.5731009000446647,141.024119000067,141.024119000067,None,,14,001,2025-12-23_14h03.03.680,2025C_exp1_comp,2022.2.4,59.84279298403744,
35.3,45,-1,0,0,60,60,6,141.024119000067,141.024119000067,141.52463190001436,141.59141730004922,141.64178569999058,141.64178569999058,141.64178569999058,141.64178569999058,141.69152560003567,141.69152560003567,141.69152560003567,141.69152560003567,141.69152560003567,141.69152560003567,141.69152560003567,141.69152560003567,141.69152560003567,right,0.44894130004104227,142.15848810004536,142.15848810004536,None,,14,001,2025-12-23_14h03.03.680,2025C_exp1_comp,2022.2.4,59.84279298403744,
12.1,45,1,-1,0,61,61,90,142.15848810004536,142.15848810004536,142.6592564000748,142.72587960003875,142.7761979000643,142.7761979000643,142.7761979000643,142.7761979000643,142.82589390000794,142.82589390000794,142.82589390000794,142.82589390000794,142.82589390000794,142.82589390000794,142.82589390000794,142.82589390000794,142.82589390000794,left,0.866137900040485,143.7100436000619,143.7100436000619,None,,14,001,2025-12-23_14h03.03.680,2025C_exp1_comp,2022.2.4,59.84279298403744,
29.4,315,1,0,0,62,62,32,143.7100436000619,143.7100436000619,144.2105937000597,144.27743140002713,144.3277417999925,144.3277417999925,144.3277417999925,144.3277417999925,144.3775565000251,144.3775565000251,144.3775565000251,144.3775565000251,144.3775565000251,144.3775565000251,144.3775565000251,144.3775565000251,144.3775565000251,left,0.7303924000589177,145.12834090006072,145.12834090006072,None,,14,001,2025-12-23_14h03.03.680,2025C_exp1_comp,2022.2.4,59.84279298403744,
29.4,315,-1,-1,0,63,63,86,145.12834090006072,145.12834090006072,145.6286791000748,145.69540730002336,145.74579890002497,145.74579890002497,145.74579890002497,145.74579890002497,145.79561280005146,145.79561280005146,145.79561280005146,145.79561280005146,145.79561280005146,145.79561280005146,145.79561280005146,145.79561280005146,145.79561280005146,right,0.9371825000271201,146.7632727000164,146.7632727000164,None,,14,001,2025-12-23_14h03.03.680,2025C_exp1_comp,2022.2.4,59.84279298403744,
19.6,315,1,1,0,64,64,65,146.7632727000164,146.7632727000164,147.2635557000758,147.33044510008767,147.3808252000017,147.3808252000017,147.3808252000017,147.3808252000017,147.43048300000373,147.43048300000373,147.43048300000373,147.43048300000373,147.43048300000373,147.43048300000373,147.43048300000373,147.43048300000373,147.43048300000373,right,0.6773392000468448,148.13117539999075,148.13117539999075,None,,14,001,2025-12-23_14h03.03.680,2025C_exp1_comp,2022.2.4,59.84279298403744,
22.7,315,1,0,0,65,65,30,148.13117539999075,148.13117539999075,148.63183860003483,148.69861140009016,148.7487232000567,148.7487232000567,148.7487232000567,148.7487232000567,148.79865390004124,148.79865390004124,148.79865390004124,148.79865390004124,148.79865390004124,148.79865390004124,148.79865390004124,148.79865390004124,148.79865390004124,left,0.41426280001178384,149.23241500009317,149.23241500009317,None,,14,001,2025-12-23_14h03.03.680,2025C_exp1_comp,2022.2.4,59.84279298403744,
15.7,45,-1,1,0,66,66,37,149.23241500009317,149.23241500009317,149.73295350000262,149.7996178000467,149.84992980002426,149.84992980002426,149.84992980002426,149.84992980002426,149.89977680006996,149.89977680006996,149.89977680006996,149.89977680006996,149.89977680006996,149.89977680006996,149.89977680006996,149.89977680006996,149.89977680006996,right,0.4569611999904737,150.38372440007515,150.38372440007515,None,,14,001,2025-12-23_14h03.03.680,2025C_exp1_comp,2022.2.4,59.84279298403744,
22.7,315,1,-1,0,67,67,102,150.38372440007515,150.38372440007515,150.88424799998756,150.95078930002637,151.00119980005547,151.00119980005547,151.00119980005547,151.00119980005547,151.05102170002647,151.05102170002647,151.05102170002647,151.05102170002647,151.05102170002647,151.05102170002647,151.05102170002647,151.05102170002647,151.05102170002647,left,0.497687500086613,151.5680699000368,151.5680699000368,None,,14,001,2025-12-23_14h03.03.680,2025C_exp1_comp,2022.2.4,59.84279298403744,
19.6,315,-1,1,0,68,68,47,151.5680699000368,151.5680699000368,152.06876749999356,152.13535019999836,152.18552370008547,152.18552370008547,152.18552370008547,152.18552370008547,152.23509570001625,152.23509570001625,152.23509570001625,152.23509570001625,152.23509570001625,152.23509570001625,152.23509570001625,152.23509570001625,152.23509570001625,right,0.4103795000119135,152.66942890000064,152.66942890000064,None,,14,001,2025-12-23_14h03.03.680,2025C_exp1_comp,2022.2.4,59.84279298403744,
15.7,315,-1,-1,0,69,69,82,152.66942890000064,152.66942890000064,153.16982489998918,153.2364205000922,153.28659120004158,153.28659120004158,153.28659120004158,153.28659120004158,153.3363828000147,153.3363828000147,153.3363828000147,153.3363828000147,153.3363828000147,153.3363828000147,153.3363828000147,153.3363828000147,153.3363828000147,right,0.7479895000578836,154.10399720002897,154.10399720002897,None,,14,001,2025-12-23_14h03.03.680,2025C_exp1_comp,2022.2.4,59.84279298403744,
42.7,315,1,0,0,70,70,35,154.10399720002897,154.10399720002897,154.6044675000012,154.67120860004798,154.72156590002123,154.72156590002123,154.72156590002123,154.72156590002123,154.77132870000787,154.77132870000787,154.77132870000787,154.77132870000787,154.77132870000787,154.77132870000787,154.77132870000787,154.77132870000787,154.77132870000787,right,0.625301199965179,155.42194600007497,155.42194600007497,None,,14,001,2025-12-23_14h03.03.680,2025C_exp1_comp,2022.2.4,59.84279298403744,
29.4,45,1,-1,0,71,71,95,155.42194600007497,155.42194600007497,155.92248170007952,155.98927930009086,156.03958219999913,156.03958219999913,156.03958219999913,156.03958219999913,156.08940430008806,156.08940430008806,156.08940430008806,156.08940430008806,156.08940430008806,156.08940430008806,156.08940430008806,156.08940430008806,156.08940430008806,left,0.4594609000487253,156.5729479000438,156.5729479000438,None,,14,001,2025-12-23_14h03.03.680,2025C_exp1_comp,2022.2.4,59.84279298403744,
42.7,315,-1,-1,0,72,72,89,156.5729479000438,156.5729479000438,157.07377120002639,157.14042529999278,157.19071660004556,157.19071660004556,157.19071660004556,157.19071660004556,157.24043420003727,157.24043420003727,157.24043420003727,157.24043420003727,157.24043420003727,157.24043420003727,157.24043420003727,157.24043420003727,157.24043420003727,left,1.036109400098212,158.3081495000515,158.3081495000515,None,,14,001,2025-12-23_14h03.03.680,2025C_exp1_comp,2022.2.4,59.84279298403744,
35.3,45,1,-1,0,73,73,96,158.3081495000515,158.3081495000515,158.80889059999026,158.8755058000097,158.9257044000551,158.9257044000551,158.9257044000551,158.9257044000551,158.97550579998642,158.97550579998642,158.97550579998642,158.97550579998642,158.97550579998642,158.97550579998642,158.97550579998642,158.97550579998642,158.97550579998642,right,0.8048042000737041,159.80970179999713,159.80970179999713,None,,14,001,2025-12-23_14h03.03.680,2025C_exp1_comp,2022.2.4,59.84279298403744,
22.7,45,1,1,0,74,74,57,159.80970179999713,159.80970179999713,160.31028229999356,160.3769578000065,160.42718210001476,160.42718210001476,160.42718210001476,160.42718210001476,160.47682480001822,160.47682480001822,160.47682480001822,160.47682480001822,160.47682480001822,160.47682480001822,160.47682480001822,160.47682480001822,160.47682480001822,left,1.2476800999138504,161.74490769999102,161.74490769999102,None,,14,001,2025-12-23_14h03.03.680,2025C_exp1_comp,2022.2.4,59.84279298403744,
39.2,45,1,-1,0,75,75,97,161.74490769999102,161.74490769999102,162.24542809999548,162.31204810005147,162.3624500000151,162.3624500000151,162.3624500000151,162.3624500000151,162.41226840007585,162.41226840007585,162.41226840007585,162.41226840007585,162.41226840007585,162.41226840007585,162.41226840007585,162.41226840007585,162.41226840007585,right,1.488039999967441,163.9305059000617,163.9305059000617,None,,14,001,2025-12-23_14h03.03.680,2025C_exp1_comp,2022.2.4,59.84279298403744,
22.7,315,-1,-1,0,76,76,84,163.9305059000617,163.9305059000617,164.43108010001015,164.49779530009255,164.548189299996,164.548189299996,164.548189299996,164.548189299996,164.59798760002013,164.59798760002013,164.59798760002013,164.59798760002013,164.59798760002013,164.59798760002013,164.59798760002013,164.59798760002013,164.59798760002013,left,0.8139141999417916,165.43194500007667,165.43194500007667,None,,14,001,2025-12-23_14h03.03.680,2025C_exp1_comp,2022.2.4,59.84279298403744,
25.5,315,1,-1,0,77,77,103,165.43194500007667,165.43194500007667,165.9324036000762,165.99913270003162,166.04947500000708,166.04947500000708,166.04947500000708,166.04947500000708,166.09912450006232,166.09912450006232,166.09912450006232,166.09912450006232,166.09912450006232,166.09912450006232,166.09912450006232,166.09912450006232,166.09912450006232,right,0.841743899974972,166.96683819999453,166.96683819999453,None,,14,001,2025-12-23_14h03.03.680,2025C_exp1_comp,2022.2.4,59.84279298403744,
35.3,315,-1,-1,0,78,78,87,166.96683819999453,166.96683819999453,167.46730810008012,167.53411220002454,167.5844646000769,167.5844646000769,167.5844646000769,167.5844646000769,167.634123200085,167.634123200085,167.634123200085,167.634123200085,167.634123200085,167.634123200085,167.634123200085,167.634123200085,167.634123200085,left,1.0575956999091431,168.71824439999182,168.71824439999182,None,,14,001,2025-12-23_14h03.03.680,2025C_exp1_comp,2022.2.4,59.84279298403744,
25.5,315,1,1,0,79,79,67,168.71824439999182,168.71824439999182,169.2190716000041,169.28575510007795,169.33609470003285,169.33609470003285,169.33609470003285,169.33609470003285,169.38588309998158,169.38588309998158,169.38588309998158,169.38588309998158,169.38588309998158,169.38588309998158,169.38588309998158,169.38588309998158,169.38588309998158,right,0.47444870008621365,169.88636020000558,169.88636020000558,None,,14,001,2025-12-23_14h03.03.680,2025C_exp1_comp,2022.2.4,59.84279298403744,
12.1,45,1,1,0,80,80,54,169.88636020000558,169.88636020000558,170.38687649997883,170.45358820003457,170.5037994000595,170.5037994000595,170.5037994000595,170.5037994000595,170.55358539998997,170.55358539998997,170.55358539998997,170.55358539998997,170.55358539998997,170.55358539998997,170.55358539998997,170.55358539998997,170.55358539998997,left,0.7554221999598667,171.3379936000565,171.3379936000565,None,,14,001,2025-12-23_14h03.03.680,2025C_exp1_comp,2022.2.4,59.84279298403744,
39.2,45,-1,-1,0,81,81,79,171.3379936000565,171.3379936000565,171.8383183000842,171.90501320001204,171.95534690003842,171.95534690003842,171.95534690003842,171.95534690003842,172.00507469999138,172.00507469999138,172.00507469999138,172.00507469999138,172.00507469999138,172.00507469999138,172.00507469999138,172.00507469999138,172.00507469999138,right,1.1109217000193894,173.13959700008854,173.13959700008854,None,,14,001,2025-12-23_14h03.03.680,2025C_exp1_comp,2022.2.4,59.84279298403744,
25.5,45,-1,0,0,82,82,4,173.13959700008854,173.13959700008854,173.64008580008522,173.70683590008412,173.75711070001125,173.75711070001125,173.75711070001125,173.75711070001125,173.80667930003256,173.80667930003256,173.80667930003256,173.80667930003256,173.80667930003256,173.80667930003256,173.80667930003256,173.80667930003256,173.80667930003256,right,1.725214899983257,175.5586907999823,175.5586907999823,None,,14,001,2025-12-23_14h03.03.680,2025C_exp1_comp,2022.2.4,59.84279298403744,
29.4,45,-1,-1,0,83,83,77,175.5586907999823,175.5586907999823,176.05911680008285,176.1258424000116,176.17617150000297,176.17617150000297,176.17617150000297,176.17617150000297,176.22601340000983,176.22601340000983,176.22601340000983,176.22601340000983,176.22601340000983,176.22601340000983,176.22601340000983,176.22601340000983,176.22601340000983,left,1.2184503000462428,177.47715100005735,177.47715100005735,None,,14,001,2025-12-23_14h03.03.680,2025C_exp1_comp,2022.2.4,59.84279298403744,
25.5,315,-1,0,0,84,84,13,177.47715100005735,177.47715100005735,177.97779140004423,178.04450800002087,178.09482300002128,178.09482300002128,178.09482300002128,178.09482300002128,178.14461050007958,178.14461050007958,178.14461050007958,178.14461050007958,178.14461050007958,178.14461050007958,178.14461050007958,178.14461050007958,178.14461050007958,right,1.6356288000242785,179.81300690001808,179.81300690001808,None,,14,001,2025-12-23_14h03.03.680,2025C_exp1_comp,2022.2.4,59.84279298403744,
19.6,315,-1,-1,0,85,85,83,179.81300690001808,179.81300690001808,180.3134640000062,180.38018500001635,180.43047530006152,180.43047530006152,180.43047530006152,180.43047530006152,180.48039370006882,180.48039370006882,180.48039370006882,180.48039370006882,180.48039370006882,180.48039370006882,180.48039370006882,180.48039370006882,180.48039370006882,right,0.9965890999883413,181.49794440006372,181.49794440006372,None,,14,001,2025-12-23_14h03.03.680,2025C_exp1_comp,2022.2.4,59.84279298403744,
35.3,315,-1,1,0,86,86,51,181.49794440006372,181.49794440006372,181.99848240008578,182.065199600067,182.11539589997847,182.11539589997847,182.11539589997847,182.11539589997847,182.16522189998068,182.16522189998068,182.16522189998068,182.16522189998068,182.16522189998068,182.16522189998068,182.16522189998068,182.16522189998068,182.16522189998068,right,0.7758199999807402,182.9660734999925,182.9660734999925,None,,14,001,2025-12-23_14h03.03.680,2025C_exp1_comp,2022.2.4,59.84279298403744,
19.6,315,-1,0,0,87,87,11,182.9660734999925,182.9660734999925,183.46661050000694,183.53332000004593,183.58362769999076,183.58362769999076,183.58362769999076,183.58362769999076,183.63330780004617,183.63330780004617,183.63330780004617,183.63330780004617,183.63330780004617,183.63330780004617,183.63330780004617,183.63330780004617,183.63330780004617,left,0.5955968999769539,184.25073770002928,184.25073770002928,None,,14,001,2025-12-23_14h03.03.680,2025C_exp1_comp,2022.2.4,59.84279298403744,
42.7,315,1,-1,0,88,88,107,184.25073770002928,184.25073770002928,184.75126410007942,184.81796710006893,184.86817810009234,184.86817810009234,184.86817810009234,184.86817810009234,184.91796420002356,184.91796420002356,184.91796420002356,184.91796420002356,184.91796420002356,184.91796420002356,184.91796420002356,184.91796420002356,184.91796420002356,right,0.9259007000364363,185.86898889997974,185.86898889997974,None,,14,001,2025-12-23_14h03.03.680,2025C_exp1_comp,2022.2.4,59.84279298403744,
42.7,45,-1,0,0,89,89,8,185.86898889997974,185.86898889997974,186.36948720004875,186.4362250000704,186.4863936000038,186.4863936000038,186.4863936000038,186.4863936000038,186.53632970002946,186.53632970002946,186.53632970002946,186.53632970002946,186.53632970002946,186.53632970002946,186.53632970002946,186.53632970002946,186.53632970002946,left,0.8359436000464484,187.4039855999872,187.4039855999872,None,,14,001,2025-12-23_14h03.03.680,2025C_exp1_comp,2022.2.4,59.84279298403744,
25.5,315,-1,1,0,90,90,49,187.4039855999872,187.4039855999872,187.90443730005063,187.97100600006524,188.0214531000238,188.0214531000238,188.0214531000238,188.0214531000238,188.07101920002606,188.07101920002606,188.07101920002606,188.07101920002606,188.07101920002606,188.07101920002606,188.07101920002606,188.07101920002606,188.07101920002606,right,0.8055896000005305,188.9053683000384,188.9053683000384,None,,14,001,2025-12-23_14h03.03.680,2025C_exp1_comp,2022.2.4,59.84279298403744,
12.1,315,1,1,0,91,91,63,188.9053683000384,188.9053683000384,189.40587050002068,189.4725970000727,189.52290510002058,189.52290510002058,189.52290510002058,189.52290510002058,189.57241640007123,189.57241640007123,189.57241640007123,189.57241640007123,189.57241640007123,189.57241640007123,189.57241640007123,189.57241640007123,189.57241640007123,left,1.111789100104943,190.7071619000053,190.7071619000053,None,,14,001,2025-12-23_14h03.03.680,2025C_exp1_comp,2022.2.4,59.84279298403744,
29.4,45,1,1,0,92,92,59,190.7071619000053,190.7071619000053,191.20766890002415,191.27439540007617,191.32457110006362,191.32457110006362,191.32457110006362,191.32457110006362,191.37441829999443,191.37441829999443,191.37441829999443,191.37441829999443,191.37441829999443,191.37441829999443,191.37441829999443,191.37441829999443,191.37441829999443,right,0.5661663000937551,191.95831080002245,191.95831080002245,None,,14,001,2025-12-23_14h03.03.680,2025C_exp1_comp,2022.2.4,59.84279298403744,
22.7,45,-1,1,0,93,93,39,191.95831080002245,191.95831080002245,192.45892700005788,192.52556410001125,192.57593689998612,192.57593689998612,192.57593689998612,192.57593689998612,192.62577839998994,192.62577839998994,192.62577839998994,192.62577839998994,192.62577839998994,192.62577839998994,192.62577839998994,192.62577839998994,192.62577839998994,right,0.5863923000870273,193.2430804000469,193.2430804000469,None,,14,001,2025-12-23_14h03.03.680,2025C_exp1_comp,2022.2.4,59.84279298403744,
39.2,315,-1,0,0,94,94,16,193.2430804000469,193.2430804000469,193.7432325000409,193.81015949998982,193.86053080006968,193.86053080006968,193.86053080006968,193.86053080006968,193.91036520001944,193.91036520001944,193.91036520001944,193.91036520001944,193.91036520001944,193.91036520001944,193.91036520001944,193.91036520001944,193.91036520001944,left,0.726089800009504,194.6611556999851,194.6611556999851,None,,14,001,2025-12-23_14h03.03.680,2025C_exp1_comp,2022.2.4,59.84279298403744,
42.7,45,1,1,0,95,95,62,194.6611556999851,194.6611556999851,195.16166520002298,195.22816930001136,195.2786775000859,195.2786775000859,195.2786775000859,195.2786775000859,195.32834740006365,195.32834740006365,195.32834740006365,195.32834740006365,195.32834740006365,195.32834740006365,195.32834740006365,195.32834740006365,195.32834740006365,right,0.7162263999925926,196.0623551000608,196.0623551000608,None,,14,001,2025-12-23_14h03.03.680,2025C_exp1_comp,2022.2.4,59.84279298403744,
35.3,315,-1,0,0,96,96,15,196.0623551000608,196.0623551000608,196.5630829000147,196.6298700000625,196.68016400001943,196.68016400001943,196.68016400001943,196.68016400001943,196.72972140007187,196.72972140007187,196.72972140007187,196.72972140007187,196.72972140007187,196.72972140007187,196.72972140007187,196.72972140007187,196.72972140007187,right,0.7072768999496475,197.46391839999706,197.46391839999706,None,,14,001,2025-12-23_14h03.03.680,2025C_exp1_comp,2022.2.4,59.84279298403744,
42.7,315,-1,0,0,97,97,17,197.46391839999706,197.46391839999706,197.96427700005006,198.03105220000725,198.08143770007882,198.08143770007882,198.08143770007882,198.08143770007882,198.13127920008264,198.13127920008264,198.13127920008264,198.13127920008264,198.13127920008264,198.13127920008264,198.13127920008264,198.13127920008264,198.13127920008264,left,0.7450498999096453,198.89858899998944,198.89858899998944,None,,14,001,2025-12-23_14h03.03.680,2025C_exp1_comp,2022.2.4,59.84279298403744,
42.7,45,1,-1,0,98,98,98,198.89858899998944,198.89858899998944,199.3993780000601,199.46610229997896,199.51641260006,199.51641260006,199.51641260006,199.51641260006,199.5660733000841,199.5660733000841,199.5660733000841,199.5660733000841,199.5660733000841,199.5660733000841,199.5660733000841,199.5660733000841,199.5660733000841,right,0.8296060999855399,200.41677650006022,200.41677650006022,None,,14,001,2025-12-23_14h03.03.680,2025C_exp1_comp,2022.2.4,59.84279298403744,
15.7,315,-1,1,0,99,99,46,200.41677650006022,200.41677650006022,200.91734230006114,200.98411560000386,201.03438409999944,201.03438409999944,201.03438409999944,201.03438409999944,201.0840664000716,201.0840664000716,201.0840664000716,201.0840664000716,201.0840664000716,201.0840664000716,201.0840664000716,201.0840664000716,201.0840664000716,right,1.1604185999603942,202.26857750001363,202.26857750001363,None,,14,001,2025-12-23_14h03.03.680,2025C_exp1_comp,2022.2.4,59.84279298403744,
39.2,45,-1,0,0,100,100,7,202.26857750001363,202.26857750001363,202.76937130000442,202.83586099999957,202.88616520003416,202.88616520003416,202.88616520003416,202.88616520003416,202.93609760003164,202.93609760003164,202.93609760003164,202.93609760003164,202.93609760003164,202.93609760003164,202.93609760003164,202.93609760003164,202.93609760003164,right,1.0036679999902844,203.9704532000469,203.9704532000469,None,,14,001,2025-12-23_14h03.03.680,2025C_exp1_comp,2022.2.4,59.84279298403744,
19.6,45,-1,-1,0,101,101,74,203.9704532000469,203.9704532000469,204.47103750007227,204.5377010999946,204.58804529998451,204.58804529998451,204.58804529998451,204.58804529998451,204.63780710007995,204.63780710007995,204.63780710007995,204.63780710007995,204.63780710007995,204.63780710007995,204.63780710007995,204.63780710007995,204.63780710007995,right,1.2701236000284553,205.93904750002548,205.93904750002548,None,,14,001,2025-12-23_14h03.03.680,2025C_exp1_comp,2022.2.4,59.84279298403744,
22.7,45,1,0,0,102,102,21,205.93904750002548,205.93904750002548,206.4394050000701,206.50626629998442,206.5563762000529,206.5563762000529,206.5563762000529,206.5563762000529,206.6062341000652,206.6062341000652,206.6062341000652,206.6062341000652,206.6062341000652,206.6062341000652,206.6062341000652,206.6062341000652,206.6062341000652,left,1.0621259999461472,207.6907081999816,207.6907081999816,None,,14,001,2025-12-23_14h03.03.680,2025C_exp1_comp,2022.2.4,59.84279298403744,
15.7,315,1,0,0,103,103,28,207.6907081999816,207.6907081999816,208.19126900006086,208.25809890008532,208.30839290004224,208.30839290004224,208.30839290004224,208.30839290004224,208.3579541000072,208.3579541000072,208.3579541000072,208.3579541000072,208.3579541000072,208.3579541000072,208.3579541000072,208.3579541000072,208.3579541000072,left,1.0066904000705108,209.3923740000464,209.3923740000464,None,,14,001,2025-12-23_14h03.03.680,2025C_exp1_comp,2022.2.4,59.84279298403744,
22.7,45,1,-1,0,104,104,93,209.3923740000464,209.3923740000464,209.8930278000189,209.95975809998345,210.01005510007963,210.01005510007963,210.01005510007963,210.01005510007963,210.0598561000079,210.0598561000079,210.0598561000079,210.0598561000079,210.0598561000079,210.0598561000079,210.0598561000079,210.0598561000079,210.0598561000079,left,0.936743300058879,211.027734400006,211.027734400006,None,,14,001,2025-12-23_14h03.03.680,2025C_exp1_comp,2022.2.4,59.84279298403744,
12.1,315,-1,0,0,105,105,9,211.027734400006,211.027734400006,211.52824600005988,211.5948126000585,211.6452561999904,211.6452561999904,211.6452561999904,211.6452561999904,211.69494650000706,211.69494650000706,211.69494650000706,211.69494650000706,211.69494650000706,211.69494650000706,211.69494650000706,211.69494650000706,211.69494650000706,right,0.7652710999827832,212.47874340007547,212.47874340007547,None,,14,001,2025-12-23_14h03.03.680,2025C_exp1_comp,2022.2.4,59.84279298403744,
25.5,45,1,-1,0,106,106,94,212.47874340007547,212.47874340007547,212.97933500004,213.04602240002714,213.0963793999981,213.0963793999981,213.0963793999981,213.0963793999981,213.1462935000891,213.1462935000891,213.1462935000891,213.1462935000891,213.1462935000891,213.1462935000891,213.1462935000891,213.1462935000891,213.1462935000891,left,0.8737472000066191,214.0471136000706,214.0471136000706,None,,14,001,2025-12-23_14h03.03.680,2025C_exp1_comp,2022.2.4,59.84279298403744,
25.5,45,1,0,0,107,107,22,214.0471136000706,214.0471136000706,214.54766010004096,214.61408010008745,214.6647025999846,214.6647025999846,214.6647025999846,214.6647025999846,214.71438650006894,214.71438650006894,214.71438650006894,214.71438650006894,214.71438650006894,214.71438650006894,214.71438650006894,214.71438650006894,214.71438650006894,right,1.26640890003182,215.99916230002418,215.99916230002418,space,19.557126199943013,14,001,2025-12-23_14h03.03.680,2025C_exp1_comp,2022.2.4,59.84279298403744,
15.7,315,1,-1,1,0,108,100,235.58550170005765,235.58550170005765,236.08594610006548,236.15274879999924,236.20285860006697,236.20285860006697,236.20285860006697,236.20285860006697,236.2525146000553,236.2525146000553,236.2525146000553,236.2525146000553,236.2525146000553,236.2525146000553,236.2525146000553,236.2525146000553,236.2525146000553,left,0.6322920999955386,236.9033225000603,236.9033225000603,None,,14,001,2025-12-23_14h03.03.680,2025C_exp1_comp,2022.2.4,59.84279298403744,
29.4,315,1,0,1,1,109,32,236.9033225000603,236.9033225000603,237.4038076000288,237.47025130002294,237.52072330005467,237.52072330005467,237.52072330005467,237.52072330005467,237.57089239999186,237.57089239999186,237.57089239999186,237.57089239999186,237.57089239999186,237.57089239999186,237.57089239999186,237.57089239999186,237.57089239999186,left,0.5294193000299856,238.12117260007653,238.12117260007653,None,,14,001,2025-12-23_14h03.03.680,2025C_exp1_comp,2022.2.4,59.84279298403744,
25.5,45,-1,0,1,2,110,4,238.12117260007653,238.12117260007653,238.62165250000544,238.68828570004553,238.73862930003088,238.73862930003088,238.73862930003088,238.73862930003088,238.78852250007913,238.78852250007913,238.78852250007913,238.78852250007913,238.78852250007913,238.78852250007913,238.78852250007913,238.78852250007913,238.78852250007913,right,0.5922276999335736,239.40579430002254,239.40579430002254,None,,14,001,2025-12-23_14h03.03.680,2025C_exp1_comp,2022.2.4,59.84279298403744,
22.7,45,1,0,1,3,111,21,239.40579430002254,239.40579430002254,239.90616260003299,239.97315390000585,240.0234524999978,240.0234524999978,240.0234524999978,240.0234524999978,240.07328590005636,240.07328590005636,240.07328590005636,240.07328590005636,240.07328590005636,240.07328590005636,240.07328590005636,240.07328590005636,240.07328590005636,left,0.4265229000011459,240.52359580004122,240.52359580004122,None,,14,001,2025-12-23_14h03.03.680,2025C_exp1_comp,2022.2.4,59.84279298403744,
42.7,315,1,0,1,4,112,35,240.52359580004122,240.52359580004122,241.02390720008407,241.0908215000527,241.14093920006417,241.14093920006417,241.14093920006417,241.14093920006417,241.19080350000877,241.19080350000877,241.19080350000877,241.19080350000877,241.19080350000877,241.19080350000877,241.19080350000877,241.19080350000877,241.19080350000877,right,0.5015188999241218,241.70822540007066,241.70822540007066,None,,14,001,2025-12-23_14h03.03.680,2025C_exp1_comp,2022.2.4,59.84279298403744,
15.7,45,1,0,1,5,113,19,241.70822540007066,241.70822540007066,242.2086307000136,242.27537050005049,242.32562140002847,242.32562140002847,242.32562140002847,242.32562140002847,242.37546090001706,242.37546090001706,242.37546090001706,242.37546090001706,242.37546090001706,242.37546090001706,242.37546090001706,242.37546090001706,242.37546090001706,left,0.3892813000129536,242.79253610002343,242.79253610002343,None,,14,001,2025-12-23_14h03.03.680,2025C_exp1_comp,2022.2.4,59.84279298403744,
42.7,315,-1,0,1,6,114,17,242.79253610002343,242.79253610002343,243.2930901000509,243.3596581000602,243.40998039999977,243.40998039999977,243.40998039999977,243.40998039999977,243.45976220001467,243.45976220001467,243.45976220001467,243.45976220001467,243.45976220001467,243.45976220001467,243.45976220001467,243.45976220001467,243.45976220001467,right,0.39219150005374104,243.87696290004533,243.87696290004533,None,,14,001,2025-12-23_14h03.03.680,2025C_exp1_comp,2022.2.4,59.84279298403744,
25.5,45,-1,1,1,7,115,40,243.87696290004533,243.87696290004533,244.3775059999898,244.4440952000441,244.49450230004732,244.49450230004732,244.49450230004732,244.49450230004732,244.54404130007606,244.54404130007606,244.54404130007606,244.54404130007606,244.54404130007606,244.54404130007606,244.54404130007606,244.54404130007606,244.54404130007606,right,0.4358570999465883,245.0113035000395,245.0113035000395,None,,14,001,2025-12-23_14h03.03.680,2025C_exp1_comp,2022.2.4,59.84279298403744,
42.7,315,-1,-1,1,8,116,89,245.0113035000395,245.0113035000395,245.51182350004092,245.57854230003431,245.6288222000003,245.6288222000003,245.6288222000003,245.6288222000003,245.6787507000845,245.6787507000845,245.6787507000845,245.6787507000845,245.6787507000845,245.6787507000845,245.6787507000845,245.6787507000845,245.6787507000845,left,0.3650409000692889,246.06222429999616,246.06222429999616,None,,14,001,2025-12-23_14h03.03.680,2025C_exp1_comp,2022.2.4,59.84279298403744,
12.1,45,1,0,1,9,117,18,246.06222429999616,246.06222429999616,246.56295970000792,246.62967709999066,246.6801545000635,246.6801545000635,246.6801545000635,246.6801545000635,246.7296445000684,246.7296445000684,246.7296445000684,246.7296445000684,246.7296445000684,246.7296445000684,246.7296445000684,246.7296445000684,246.7296445000684,left,0.5311695000855252,247.2801843000343,247.2801843000343,None,,14,001,2025-12-23_14h03.03.680,2025C_exp1_comp,2022.2.4,59.84279298403744,
29.4,45,-1,-1,1,10,118,77,247.2801843000343,247.2801843000343,247.78089589998126,247.84740950004198,247.8978510000743,247.8978510000743,247.8978510000743,247.8978510000743,247.94773740007076,247.94773740007076,247.94773740007076,247.94773740007076,247.94773740007076,247.94773740007076,247.94773740007076,247.94773740007076,247.94773740007076,right,0.4648477000882849,248.43168939999305,248.43168939999305,None,,14,001,2025-12-23_14h03.03.680,2025C_exp1_comp,2022.2.4,59.84279298403744,
29.4,315,-1,-1,1,11,119,86,248.43168939999305,248.43168939999305,248.93195050000213,248.99871600000188,249.049134699977,249.049134699977,249.049134699977,249.049134699977,249.09888890001457,249.09888890001457,249.09888890001457,249.09888890001457,249.09888890001457,249.09888890001457,249.09888890001457,249.09888890001457,249.09888890001457,right,0.6499691000208259,249.76614389999304,249.76614389999304,None,,14,001,2025-12-23_14h03.03.680,2025C_exp1_comp,2022.2.4,59.84279298403744,
35.3,45,1,-1,1,12,120,96,249.76614389999304,249.76614389999304,250.26665410003625,250.33337030000985,250.38386639999226,250.38386639999226,250.38386639999226,250.38386639999226,250.43347669998184,250.43347669998184,250.43347669998184,250.43347669998184,250.43347669998184,250.43347669998184,250.43347669998184,250.43347669998184,250.43347669998184,left,0.6183228000300005,251.08412390004378,251.08412390004378,None,,14,001,2025-12-23_14h03.03.680,2025C_exp1_comp,2022.2.4,59.84279298403744,
22.7,315,1,0,1,13,121,30,251.08412390004378,251.08412390004378,251.58466719998978,251.65144010004587,251.70162120007444,251.70162120007444,251.70162120007444,251.70162120007444,251.75149759999476,251.75149759999476,251.75149759999476,251.75149759999476,251.75149759999476,251.75149759999476,251.75149759999476,251.75149759999476,251.75149759999476,left,0.5641983000095934,252.3351000000257,252.3351000000257,None,,14,001,2025-12-23_14h03.03.680,2025C_exp1_comp,2022.2.4,59.84279298403744,
39.2,45,1,0,1,14,122,25,252.3351000000257,252.3351000000257,252.83597180002835,252.90259020007215,252.95293040003162,252.95293040003162,252.95293040003162,252.95293040003162,253.00283210002817,253.00283210002817,253.00283210002817,253.00283210002817,253.00283210002817,253.00283210002817,253.00283210002817,253.00283210002817,253.00283210002817,right,0.4088808000087738,253.43638640001882,253.43638640001882,None,,14,001,2025-12-23_14h03.03.680,2025C_exp1_comp,2022.2.4,59.84279298403744,
19.6,315,1,-1,1,15,123,101,253.43638640001882,253.43638640001882,253.9367183999857,254.00407250004355,254.05428510007914,254.05428510007914,254.05428510007914,254.05428510007914,254.10355040000286,254.10355040000286,254.10355040000286,254.10355040000286,254.10355040000286,254.10355040000286,254.10355040000286,254.10355040000286,254.10355040000286,left,1.2681716000661254,255.38816259999294,255.38816259999294,None,,14,001,2025-12-23_14h03.03.680,2025C_exp1_comp,2022.2.4,59.84279298403744,
42.7,45,-1,-1,1,16,124,80,255.38816259999294,255.38816259999294,255.88863479997963,255.9554330999963,256.0057851000456,256.0057851000456,256.0057851000456,256.0057851000456,256.05545159999747,256.05545159999747,256.05545159999747,256.05545159999747,256.05545159999747,256.05545159999747,256.05545159999747,256.05545159999747,256.05545159999747,right,0.6684755000751466,256.7572239000583,256.7572239000583,None,,14,001,2025-12-23_14h03.03.680,2025C_exp1_comp,2022.2.4,59.84279298403744,
39.2,315,1,1,1,17,125,70,256.7572239000583,256.7572239000583,257.2567468000343,257.32404420000967,257.3736911000451,257.3736911000451,257.3736911000451,257.3736911000451,257.42355890001636,257.42355890001636,257.42355890001636,257.42355890001636,257.42355890001636,257.42355890001636,257.42355890001636,257.42355890001636,257.42355890001636,right,0.39608119998592883,257.84059240005445,257.84059240005445,None,,14,001,2025-12-23_14h03.03.680,2025C_exp1_comp,2022.2.4,59.84279298403744,
39.2,45,1,-1,1,18,126,97,257.84059240005445,257.84059240005445,258.34138640004676,258.4081118000904,258.45830509997904,258.45830509997904,258.45830509997904,258.45830509997904,258.5082203000784,258.5082203000784,258.5082203000784,258.5082203000784,258.5082203000784,258.5082203000784,258.5082203000784,258.5082203000784,258.5082203000784,right,1.880067899939604,260.4101832000306,260.4101832000306,None,,14,001,2025-12-23_14h03.03.680,2025C_exp1_comp,2022.2.4,59.84279298403744,
25.5,315,1,1,1,19,127,67,260.4101832000306,260.4101832000306,260.91062750003766,260.9773364000721,261.0275274000596,261.0275274000596,261.0275274000596,261.0275274000596,261.0773430999834,261.0773430999834,261.0773430999834,261.0773430999834,261.0773430999834,261.0773430999834,261.0773430999834,261.0773430999834,261.0773430999834,right,0.5669568999437615,261.6614279000787,261.6614279000787,None,,14,001,2025-12-23_14h03.03.680,2025C_exp1_comp,2022.2.4,59.84279298403744,
15.7,45,1,-1,1,20,128,91,261.6614279000787,261.6614279000787,262.1618757999968,262.22858850006014,262.27906910004094,262.27906910004094,262.27906910004094,262.27906910004094,262.32873320009094,262.32873320009094,262.32873320009094,262.32873320009094,262.32873320009094,262.32873320009094,262.32873320009094,262.32873320009094,262.32873320009094,right,0.8348960999865085,263.19615219999105,263.19615219999105,None,,14,001,2025-12-23_14h03.03.680,2025C_exp1_comp,2022.2.4,59.84279298403744,
12.1,315,1,-1,1,21,129,99,263.19615219999105,263.19615219999105,263.6969417000655,263.76373980008066,263.81405120005365,263.81405120005365,263.81405120005365,263.81405120005365,263.86369150003884,263.86369150003884,263.86369150003884,263.86369150003884,263.86369150003884,263.86369150003884,263.86369150003884,263.86369150003884,263.86369150003884,left,0.5330049999756739,264.4143720000284,264.4143720000284,None,,14,001,2025-12-23_14h03.03.680,2025C_exp1_comp,2022.2.4,59.84279298403744,
25.5,315,-1,-1,1,22,130,85,264.4143720000284,264.4143720000284,264.9146397000877,264.98134240007494,265.0316710000625,265.0316710000625,265.0316710000625,265.0316710000625,265.08137810009066,265.08137810009066,265.08137810009066,265.08137810009066,265.08137810009066,265.08137810009066,265.08137810009066,265.08137810009066,265.08137810009066,right,0.45035749999806285,265.5484558000462,265.5484558000462,None,,14,001,2025-12-23_14h03.03.680,2025C_exp1_comp,2022.2.4,59.84279298403744,
22.7,45,1,-1,1,23,131,93,265.5484558000462,265.5484558000462,266.04912300000433,266.11595900007524,266.16605930007063,266.16605930007063,266.16605930007063,266.16605930007063,266.21594610007014,266.21594610007014,266.21594610007014,266.21594610007014,266.21594610007014,266.21594610007014,266.21594610007014,266.21594610007014,266.21594610007014,right,0.5327462999848649,266.7664597000694,266.7664597000694,None,,14,001,2025-12-23_14h03.03.680,2025C_exp1_comp,2022.2.4,59.84279298403744,
35.3,315,1,-1,1,24,132,105,266.7664597000694,266.7664597000694,267.26698700001,267.3335683000041,267.3839809000492,267.3839809000492,267.3839809000492,267.3839809000492,267.4336742000887,267.4336742000887,267.4336742000887,267.4336742000887,267.4336742000887,267.4336742000887,267.4336742000887,267.4336742000887,267.4336742000887,left,3.3306347000179812,270.7870568999788,270.7870568999788,None,,14,001,2025-12-23_14h03.03.680,2025C_exp1_comp,2022.2.4,59.84279298403744,
15.7,45,-1,-1,1,25,133,73,270.7870568999788,270.7870568999788,271.2876584000187,271.3543609000044,271.4046852000756,271.4046852000756,271.4046852000756,271.4046852000756,271.4543527000351,271.4543527000351,271.4543527000351,271.4543527000351,271.4543527000351,271.4543527000351,271.4543527000351,271.4543527000351,271.4543527000351,right,0.4144219000590965,271.8882466000505,271.8882466000505,None,,14,001,2025-12-23_14h03.03.680,2025C_exp1_comp,2022.2.4,59.84279298403744,
42.7,45,-1,1,1,26,134,44,271.8882466000505,271.8882466000505,272.38876850006636,272.45548810006585,272.5057523000287,272.5057523000287,272.5057523000287,272.5057523000287,272.5555825000629,272.5555825000629,272.5555825000629,272.5555825000629,272.5555825000629,272.5555825000629,272.5555825000629,272.5555825000629,272.5555825000629,right,0.4967692999634892,273.072874500067,273.072874500067,None,,14,001,2025-12-23_14h03.03.680,2025C_exp1_comp,2022.2.4,59.84279298403744,
29.4,45,1,1,1,27,135,59,273.072874500067,273.072874500067,273.5730827000225,273.6397361999843,273.69028950005304,273.69028950005304,273.69028950005304,273.69028950005304,273.7399788000621,273.7399788000621,273.7399788000621,273.7399788000621,273.7399788000621,273.7399788000621,273.7399788000621,273.7399788000621,273.7399788000621,right,0.75208190002013,274.5242312999908,274.5242312999908,None,,14,001,2025-12-23_14h03.03.680,2025C_exp1_comp,2022.2.4,59.84279298403744,
42.7,45,1,1,1,28,136,62,274.5242312999908,274.5242312999908,275.02468520007096,275.09158020000905,275.14187990000937,275.14187990000937,275.14187990000937,275.14187990000937,275.191572300042,275.191572300042,275.191572300042,275.191572300042,275.191572300042,275.191572300042,275.191572300042,275.191572300042,275.191572300042,right,0.516689500072971,275.7253959000809,275.7253959000809,None,,14,001,2025-12-23_14h03.03.680,2025C_exp1_comp,2022.2.4,59.84279298403744,
29.4,315,1,-1,1,29,137,104,275.7253959000809,275.7253959000809,276.22594999999274,276.29266869998537,276.34299550007563,276.34299550007563,276.34299550007563,276.34299550007563,276.3927783999825,276.3927783999825,276.3927783999825,276.3927783999825,276.3927783999825,276.3927783999825,276.3927783999825,276.3927783999825,276.3927783999825,left,0.2833270000992343,276.6930438000709,276.6930438000709,None,,14,001,2025-12-23_14h03.03.680,2025C_exp1_comp,2022.2.4,59.84279298403744,
12.1,315,-1,1,1,30,138,45,276.6930438000709,276.6930438000709,277.19364050007425,277.26037220004946,277.3106679000193,277.3106679000193,277.3106679000193,277.3106679000193,277.3604479000205,277.3604479000205,277.3604479000205,277.3604479000205,277.3604479000205,277.3604479000205,277.3604479000205,277.3604479000205,277.3604479000205,right,0.8762276999186724,278.2611928000115,278.2611928000115,None,,14,001,2025-12-23_14h03.03.680,2025C_exp1_comp,2022.2.4,59.84279298403744,
35.3,315,1,1,1,31,139,69,278.2611928000115,278.2611928000115,278.76180450001266,278.82852380000986,278.8788426000392,278.8788426000392,278.8788426000392,278.8788426000392,278.9284845000366,278.9284845000366,278.9284845000366,278.9284845000366,278.9284845000366,278.9284845000366,278.9284845000366,278.9284845000366,278.9284845000366,right,0.48341810004785657,279.4290161000099,279.4290161000099,None,,14,001,2025-12-23_14h03.03.680,2025C_exp1_comp,2022.2.4,59.84279298403744,
12.1,315,1,1,1,32,140,63,279.4290161000099,279.4290161000099,279.9296242999844,279.9963501000311,280.0466494000284,280.0466494000284,280.0466494000284,280.0466494000284,280.09635080001317,280.09635080001317,280.09635080001317,280.09635080001317,280.09635080001317,280.09635080001317,280.09635080001317,280.09635080001317,280.09635080001317,left,0.8514004999306053,280.9640561999986,280.9640561999986,None,,14,001,2025-12-23_14h03.03.680,2025C_exp1_comp,2022.2.4,59.84279298403744,
39.2,315,-1,-1,1,33,141,88,280.9640561999986,280.9640561999986,281.46452540007886,281.5313383000903,281.58159409998916,281.58159409998916,281.58159409998916,281.58159409998916,281.6313936000224,281.6313936000224,281.6313936000224,281.6313936000224,281.6313936000224,281.6313936000224,281.6313936000224,281.6313936000224,281.6313936000224,left,0.5331207000417635,282.1818487000419,282.1818487000419,None,,14,001,2025-12-23_14h03.03.680,2025C_exp1_comp,2022.2.4,59.84279298403744,
19.6,45,-1,0,1,34,142,2,282.1818487000419,282.1818487000419,282.6822376999771,282.74909789999947,282.7994267999893,282.7994267999893,282.7994267999893,282.7994267999893,282.849194600014,282.849194600014,282.849194600014,282.849194600014,282.849194600014,282.849194600014,282.849194600014,282.849194600014,282.849194600014,right,0.674443700001575,283.5499127000803,283.5499127000803,None,,14,001,2025-12-23_14h03.03.680,2025C_exp1_comp,2022.2.4,59.84279298403744,
22.7,315,-1,1,1,35,143,48,283.5499127000803,283.5499127000803,284.0504625000758,284.11728390003555,284.1675680000335,284.1675680000335,284.1675680000335,284.1675680000335,284.21720220008865,284.21720220008865,284.21720220008865,284.21720220008865,284.21720220008865,284.21720220008865,284.21720220008865,284.21720220008865,284.21720220008865,left,0.7392624999629334,284.98466160008684,284.98466160008684,None,,14,001,2025-12-23_14h03.03.680,2025C_exp1_comp,2022.2.4,59.84279298403744,
22.7,315,1,-1,1,36,144,102,284.98466160008684,284.98466160008684,285.48526650003623,285.5520832000766,285.60247699997853,285.60247699997853,285.60247699997853,285.60247699997853,285.6522067000624,285.6522067000624,285.6522067000624,285.6522067000624,285.6522067000624,285.6522067000624,285.6522067000624,285.6522067000624,285.6522067000624,left,0.8001291999826208,286.4694925000658,286.4694925000658,None,,14,001,2025-12-23_14h03.03.680,2025C_exp1_comp,2022.2.4,59.84279298403744,
39.2,315,1,0,1,37,145,34,286.4694925000658,286.4694925000658,286.9699639000464,287.0367436000379,287.08700619998854,287.08700619998854,287.08700619998854,287.08700619998854,287.13680249999743,287.13680249999743,287.13680249999743,287.13680249999743,287.13680249999743,287.13680249999743,287.13680249999743,287.13680249999743,287.13680249999743,right,1.1961406999034807,288.3546155000804,288.3546155000804,None,,14,001,2025-12-23_14h03.03.680,2025C_exp1_comp,2022.2.4,59.84279298403744,
25.5,45,-1,-1,1,38,146,76,288.3546155000804,288.3546155000804,288.85501410008874,288.92161850002594,288.97190510004293,288.97190510004293,288.97190510004293,288.97190510004293,289.0220771000022,289.0220771000022,289.0220771000022,289.0220771000022,289.0220771000022,289.0220771000022,289.0220771000022,289.0220771000022,289.0220771000022,right,0.6702589000342414,289.72257250000257,289.72257250000257,None,,14,001,2025-12-23_14h03.03.680,2025C_exp1_comp,2022.2.4,59.84279298403744,
15.7,45,-1,0,1,39,147,1,289.72257250000257,289.72257250000257,290.2231039000908,290.28995760006364,290.34022420004476,290.34022420004476,290.34022420004476,290.34022420004476,290.3899191999808,290.3899191999808,290.3899191999808,290.3899191999808,290.3899191999808,290.3899191999808,290.3899191999808,290.3899191999808,290.3899191999808,right,0.4464560999767855,290.85706960002426,290.85706960002426,None,,14,001,2025-12-23_14h03.03.680,2025C_exp1_comp,2022.2.4,59.84279298403744,
39.2,315,-1,1,1,40,148,52,290.85706960002426,290.85706960002426,291.35779839998577,291.4244859000901,291.47480930003803,291.47480930003803,291.47480930003803,291.47480930003803,291.52459100005217,291.52459100005217,291.52459100005217,291.52459100005217,291.52459100005217,291.52459100005217,291.52459100005217,291.52459100005217,291.52459100005217,right,0.631910500000231,292.1752695000032,292.1752695000032,None,,14,001,2025-12-23_14h03.03.680,2025C_exp1_comp,2022.2.4,59.84279298403744,
12.1,45,-1,-1,1,41,149,72,292.1752695000032,292.1752695000032,292.67586309998296,292.74233769997954,292.7926230999874,292.7926230999874,292.7926230999874,292.7926230999874,292.8425280000083,292.8425280000083,292.8425280000083,292.8425280000083,292.8425280000083,292.8425280000083,292.8425280000083,292.8425280000083,292.8425280000083,right,0.46588330005761236,293.3263546000235,293.3263546000235,None,,14,001,2025-12-23_14h03.03.680,2025C_exp1_comp,2022.2.4,59.84279298403744,
19.6,315,-1,-1,1,42,150,83,293.3263546000235,293.3263546000235,293.8271414000774,293.89386160008144,293.9440404000925,293.9440404000925,293.9440404000925,293.9440404000925,293.99387090001255,293.99387090001255,293.99387090001255,293.99387090001255,293.99387090001255,293.99387090001255,293.99387090001255,293.99387090001255,293.99387090001255,right,0.5464419999625534,294.5611653000815,294.5611653000815,None,,14,001,2025-12-23_14h03.03.680,2025C_exp1_comp,2022.2.4,59.84279298403744,
39.2,315,-1,0,1,43,151,16,294.5611653000815,294.5611653000815,295.0612714000745,295.12840550008696,295.1786790000042,295.1786790000042,295.1786790000042,295.1786790000042,295.2282130999956,295.2282130999956,295.2282130999956,295.2282130999956,295.2282130999956,295.2282130999956,295.2282130999956,295.2282130999956,295.2282130999956,left,0.5594101999886334,295.812094300054,295.812094300054,None,,14,001,2025-12-23_14h03.03.680,2025C_exp1_comp,2022.2.4,59.84279298403744,
42.7,315,-1,1,1,44,152,53,295.812094300054,295.812094300054,296.3126550000161,296.3791934000328,296.42969200003427,296.42969200003427,296.42969200003427,296.42969200003427,296.47945650003385,296.47945650003385,296.47945650003385,296.47945650003385,296.47945650003385,296.47945650003385,296.47945650003385,296.47945650003385,296.47945650003385,right,0.7727552000433207,297.28034800000023,297.28034800000023,None,,14,001,2025-12-23_14h03.03.680,2025C_exp1_comp,2022.2.4,59.84279298403744,
12.1,45,1,-1,1,45,153,90,297.28034800000023,297.28034800000023,297.7807954000309,297.8471820000559,297.8977294000797,297.8977294000797,297.8977294000797,297.8977294000797,297.94763890001923,297.94763890001923,297.94763890001923,297.94763890001923,297.94763890001923,297.94763890001923,297.94763890001923,297.94763890001923,297.94763890001923,left,0.4810093000996858,298.44812549999915,298.44812549999915,None,,14,001,2025-12-23_14h03.03.680,2025C_exp1_comp,2022.2.4,59.84279298403744,
12.1,45,1,1,1,46,154,54,298.44812549999915,298.44812549999915,298.9486156000057,299.01532160001807,299.06562950008083,299.06562950008083,299.06562950008083,299.06562950008083,299.11543480004184,299.11543480004184,299.11543480004184,299.11543480004184,299.11543480004184,299.11543480004184,299.11543480004184,299.11543480004184,299.11543480004184,right,0.6170832000207156,299.7494314999785,299.7494314999785,None,,14,001,2025-12-23_14h03.03.680,2025C_exp1_comp,2022.2.4,59.84279298403744,
22.7,45,-1,1,1,47,155,39,299.7494314999785,299.7494314999785,300.24994740006514,300.31663930008654,300.36678390007,300.36678390007,300.36678390007,300.36678390007,300.416612500092,300.416612500092,300.416612500092,300.416612500092,300.416612500092,300.416612500092,300.416612500092,300.416612500092,300.416612500092,right,0.8430588999763131,301.2841986999847,301.2841986999847,None,,14,001,2025-12-23_14h03.03.680,2025C_exp1_comp,2022.2.4,59.84279298403744,
42.7,45,1,-1,1,48,156,98,301.2841986999847,301.2841986999847,301.7847041999921,301.8515201000264,301.9017014000565,301.9017014000565,301.9017014000565,301.9017014000565,301.95158260001335,301.95158260001335,301.95158260001335,301.95158260001335,301.95158260001335,301.95158260001335,301.95158260001335,301.95158260001335,301.95158260001335,left,0.5009591000853106,302.4852503000293,302.4852503000293,None,,14,001,2025-12-23_14h03.03.680,2025C_exp1_comp,2022.2.4,59.84279298403744,
25.5,45,1,-1,1,49,157,94,302.4852503000293,302.4852503000293,302.9859801999992,303.0527036000276,303.1030166000128,303.1030166000128,303.1030166000128,303.1030166000128,303.1528162000468,303.1528162000468,303.1528162000468,303.1528162000468,303.1528162000468,303.1528162000468,303.1528162000468,303.1528162000468,303.1528162000468,right,0.4829578000353649,303.65339200000744,303.65339200000744,None,,14,001,2025-12-23_14h03.03.680,2025C_exp1_comp,2022.2.4,59.84279298403744,
39.2,45,-1,0,1,50,158,7,303.65339200000744,303.65339200000744,304.1538752000779,304.2205756000476,304.27063769998495,304.27063769998495,304.27063769998495,304.27063769998495,304.3205693999771,304.3205693999771,304.3205693999771,304.3205693999771,304.3205693999771,304.3205693999771,304.3205693999771,304.3205693999771,304.3205693999771,right,0.6681407999712974,305.0213525000727,305.0213525000727,None,,14,001,2025-12-23_14h03.03.680,2025C_exp1_comp,2022.2.4,59.84279298403744,
12.1,315,-1,0,1,51,159,9,305.0213525000727,305.0213525000727,305.52206460002344,305.5886901000049,305.6389858000912,305.6389858000912,305.6389858000912,305.6389858000912,305.6888767000055,305.6888767000055,305.6888767000055,305.6888767000055,305.6888767000055,305.6888767000055,305.6888767000055,305.6888767000055,305.6888767000055,left,0.6036604000255466,306.32235909998417,306.32235909998417,None,,14,001,2025-12-23_14h03.03.680,2025C_exp1_comp,2022.2.4,59.84279298403744,
35.3,45,1,0,1,52,160,24,306.32235909998417,306.32235909998417,306.8231666000793,306.8898736999836,306.94009639997967,306.94009639997967,306.94009639997967,306.94009639997967,306.9897325000493,306.9897325000493,306.9897325000493,306.9897325000493,306.9897325000493,306.9897325000493,306.9897325000493,306.9897325000493,306.9897325000493,left,0.5504373000003397,307.5572277000174,307.5572277000174,None,,14,001,2025-12-23_14h03.03.680,2025C_exp1_comp,2022.2.4,59.84279298403744,
19.6,45,-1,1,1,53,161,38,307.5572277000174,307.5572277000174,308.0577149000019,308.12443450000137,308.1747422000626,308.1747422000626,308.1747422000626,308.1747422000626,308.2245591999963,308.2245591999963,308.2245591999963,308.2245591999963,308.2245591999963,308.2245591999963,308.2245591999963,308.2245591999963,308.2245591999963,right,0.3881809999002144,308.64151540002786,308.64151540002786,None,,14,001,2025-12-23_14h03.03.680,2025C_exp1_comp,2022.2.4,59.84279298403744,
19.6,45,1,-1,1,54,162,92,308.64151540002786,308.64151540002786,309.1421843999997,309.2088554999791,309.25912130007055,309.25912130007055,309.25912130007055,309.25912130007055,309.30905180005357,309.30905180005357,309.30905180005357,309.30905180005357,309.30905180005357,309.30905180005357,309.30905180005357,309.30905180005357,309.30905180005357,left,0.4719588999869302,309.80935890006367,309.80935890006367,None,,14,001,2025-12-23_14h03.03.680,2025C_exp1_comp,2022.2.4,59.84279298403744,
35.3,315,-1,-1,1,55,163,87,309.80935890006367,309.80935890006367,310.3097534000408,310.3766148000723,310.42681159998756,310.42681159998756,310.42681159998756,310.42681159998756,310.4768075000029,310.4768075000029,310.4768075000029,310.4768075000029,310.4768075000029,310.4768075000029,310.4768075000029,310.4768075000029,310.4768075000029,left,0.4157981000607833,310.91058720008004,310.91058720008004,None,,14,001,2025-12-23_14h03.03.680,2025C_exp1_comp,2022.2.4,59.84279298403744,
29.4,45,1,-1,1,56,164,95,310.91058720008004,310.91058720008004,311.4110948999878,311.4778099000687,311.52802690002136,311.52802690002136,311.52802690002136,311.52802690002136,311.57794190000277,311.57794190000277,311.57794190000277,311.57794190000277,311.57794190000277,311.57794190000277,311.57794190000277,311.57794190000277,311.57794190000277,right,0.8504556999541819,312.44511259999126,312.44511259999126,None,,14,001,2025-12-23_14h03.03.680,2025C_exp1_comp,2022.2.4,59.84279298403744,
19.6,45,-1,-1,1,57,165,74,312.44511259999126,312.44511259999126,312.9460462999996,313.01275660004467,313.0631110999966,313.0631110999966,313.0631110999966,313.0631110999966,313.1128988000564,313.1128988000564,313.1128988000564,313.1128988000564,313.1128988000564,313.1128988000564,313.1128988000564,313.1128988000564,313.1128988000564,right,0.6911922000581399,313.8301651000511,313.8301651000511,None,,14,001,2025-12-23_14h03.03.680,2025C_exp1_comp,2022.2.4,59.84279298403744,
19.6,315,1,0,1,58,166,29,313.8301651000511,313.8301651000511,314.3306499000173,314.3973826000001,314.4475419999799,314.4475419999799,314.4475419999799,314.4475419999799,314.4971557999961,314.4971557999961,314.4971557999961,314.4971557999961,314.4971557999961,314.4971557999961,314.4971557999961,314.4971557999961,314.4971557999961,left,0.6111407999414951,315.1312151000602,315.1312151000602,None,,14,001,2025-12-23_14h03.03.680,2025C_exp1_comp,2022.2.4,59.84279298403744,
29.4,315,-1,1,1,59,167,50,315.1312151000602,315.1312151000602,315.6320104000624,315.69861090008635,315.7490151000675,315.7490151000675,315.7490151000675,315.7490151000675,315.7986779999919,315.7986779999919,315.7986779999919,315.7986779999919,315.7986779999919,315.7986779999919,315.7986779999919,315.7986779999919,315.7986779999919,right,0.5012757000513375,316.3326729000546,316.3326729000546,None,,14,001,2025-12-23_14h03.03.680,2025C_exp1_comp,2022.2.4,59.84279298403744,
25.5,45,1,0,1,60,168,22,316.3326729000546,316.3326729000546,316.83319460006896,316.8998517000582,316.9501985000679,316.9501985000679,316.9501985000679,316.9501985000679,316.99997090001125,316.99997090001125,316.99997090001125,316.99997090001125,316.99997090001125,316.99997090001125,316.99997090001125,316.99997090001125,316.99997090001125,left,0.5406785000814125,317.56708810001146,317.56708810001146,None,,14,001,2025-12-23_14h03.03.680,2025C_exp1_comp,2022.2.4,59.84279298403744,
42.7,315,1,-1,1,61,169,107,317.56708810001146,317.56708810001146,318.0677122999914,318.134441500064,318.1847332000034,318.1847332000034,318.1847332000034,318.1847332000034,318.2345510000596,318.2345510000596,318.2345510000596,318.2345510000596,318.2345510000596,318.2345510000596,318.2345510000596,318.2345510000596,318.2345510000596,right,0.48925510002300143,318.7518807000015,318.7518807000015,None,,14,001,2025-12-23_14h03.03.680,2025C_exp1_comp,2022.2.4,59.84279298403744,
39.2,315,1,-1,1,62,170,106,318.7518807000015,318.7518807000015,319.25239949999377,319.3191036999924,319.3694182999898,319.3694182999898,319.3694182999898,319.3694182999898,319.41905660007615,319.41905660007615,319.41905660007615,319.41905660007615,319.41905660007615,319.41905660007615,319.41905660007615,319.41905660007615,319.41905660007615,left,0.4334175999974832,319.86954510002397,319.86954510002397,None,,14,001,2025-12-23_14h03.03.680,2025C_exp1_comp,2022.2.4,59.84279298403744,
12.1,315,1,0,1,63,171,27,319.86954510002397,319.86954510002397,320.3699521999806,320.43672320002224,320.48692639998626,320.48692639998626,320.48692639998626,320.48692639998626,320.53668130002916,320.53668130002916,320.53668130002916,320.53668130002916,320.53668130002916,320.53668130002916,320.53668130002916,320.53668130002916,320.53668130002916,left,0.45977120008319616,321.0206758000422,321.0206758000422,None,,14,001,2025-12-23_14h03.03.680,2025C_exp1_comp,2022.2.4,59.84279298403744,
29.4,315,-1,0,1,64,172,14,321.0206758000422,321.0206758000422,321.5211687000701,321.58789100009017,321.63809190003667,321.63809190003667,321.63809190003667,321.63809190003667,321.6879901000066,321.6879901000066,321.6879901000066,321.6879901000066,321.6879901000066,321.6879901000066,321.6879901000066,321.6879901000066,321.6879901000066,right,1.1967130999546498,322.905729399994,322.905729399994,None,,14,001,2025-12-23_14h03.03.680,2025C_exp1_comp,2022.2.4,59.84279298403744,
35.3,45,1,1,1,65,173,60,322.905729399994,322.905729399994,323.40656110004056,323.4732427999843,323.5235537000699,323.5235537000699,323.5235537000699,323.5235537000699,323.5733593000332,323.5733593000332,323.5733593000332,323.5733593000332,323.5733593000332,323.5733593000332,323.5733593000332,323.5733593000332,323.5733593000332,right,0.8393297999864444,324.44076240004506,324.44076240004506,None,,14,001,2025-12-23_14h03.03.680,2025C_exp1_comp,2022.2.4,59.84279298403744,
25.5,315,1,-1,1,66,174,103,324.44076240004506,324.44076240004506,324.94105989998206,325.00798520003445,325.05812689999584,325.05812689999584,325.05812689999584,325.05812689999584,325.1077822999796,325.1077822999796,325.1077822999796,325.1077822999796,325.1077822999796,325.1077822999796,325.1077822999796,325.1077822999796,325.1077822999796,left,0.6488709000404924,325.7753298000898,325.7753298000898,None,,14,001,2025-12-23_14h03.03.680,2025C_exp1_comp,2022.2.4,59.84279298403744,
15.7,45,1,1,1,67,175,55,325.7753298000898,325.7753298000898,326.2759091000771,326.342638000031,326.39280780008994,326.39280780008994,326.39280780008994,326.39280780008994,326.44259780005086,326.44259780005086,326.44259780005086,326.44259780005086,326.44259780005086,326.44259780005086,326.44259780005086,326.44259780005086,326.44259780005086,right,0.9940538000082597,327.46055710001383,327.46055710001383,None,,14,001,2025-12-23_14h03.03.680,2025C_exp1_comp,2022.2.4,59.84279298403744,
15.7,315,-1,0,1,68,176,10,327.46055710001383,327.46055710001383,327.96096250007395,328.0276666000718,328.07797250000294,328.07797250000294,328.07797250000294,328.07797250000294,328.1277857000241,328.1277857000241,328.1277857000241,328.1277857000241,328.1277857000241,328.1277857000241,328.1277857000241,328.1277857000241,328.1277857000241,right,0.9800895999651402,329.12881430005655,329.12881430005655,None,,14,001,2025-12-23_14h03.03.680,2025C_exp1_comp,2022.2.4,59.84279298403744,
39.2,45,-1,1,1,69,177,43,329.12881430005655,329.12881430005655,329.6292547000339,329.6961042000912,329.7463433999801,329.7463433999801,329.7463433999801,329.7463433999801,329.796156299999,329.796156299999,329.796156299999,329.796156299999,329.796156299999,329.796156299999,329.796156299999,329.796156299999,329.796156299999,left,0.8484954000450671,330.66350410005543,330.66350410005543,None,,14,001,2025-12-23_14h03.03.680,2025C_exp1_comp,2022.2.4,59.84279298403744,
35.3,315,1,0,1,70,178,33,330.66350410005543,330.66350410005543,331.1638242000481,331.2309125000611,331.2812678000191,331.2812678000191,331.2812678000191,331.2812678000191,331.33111889997963,331.33111889997963,331.33111889997963,331.33111889997963,331.33111889997963,331.33111889997963,331.33111889997963,331.33111889997963,331.33111889997963,left,0.5683984999777749,331.9315434000455,331.9315434000455,None,,14,001,2025-12-23_14h03.03.680,2025C_exp1_comp,2022.2.4,59.84279298403744,
22.7,315,-1,-1,1,71,179,84,331.9315434000455,331.9315434000455,332.4320608000271,332.49879650003277,332.54902620008215,332.54902620008215,332.54902620008215,332.54902620008215,332.5988457000349,332.5988457000349,332.5988457000349,332.5988457000349,332.5988457000349,332.5988457000349,332.5988457000349,332.5988457000349,332.5988457000349,left,0.6613532999763265,333.2830554000102,333.2830554000102,None,,14,001,2025-12-23_14h03.03.680,2025C_exp1_comp,2022.2.4,59.84279298403744,
42.7,45,1,0,1,72,180,26,333.2830554000102,333.2830554000102,333.78348790004384,333.8502157999901,333.900484999991,333.900484999991,333.900484999991,333.900484999991,333.95017510000616,333.95017510000616,333.95017510000616,333.95017510000616,333.95017510000616,333.95017510000616,333.95017510000616,333.95017510000616,333.95017510000616,right,0.6467172000557184,334.61761940002907,334.61761940002907,None,,14,001,2025-12-23_14h03.03.680,2025C_exp1_comp,2022.2.4,59.84279298403744,
25.5,315,1,0,1,73,181,31,334.61761940002907,334.61761940002907,335.1181391000282,335.1846876000054,335.2349817000795,335.2349817000795,335.2349817000795,335.2349817000795,335.2845897000516,335.2845897000516,335.2845897000516,335.2845897000516,335.2845897000516,335.2845897000516,335.2845897000516,335.2845897000516,335.2845897000516,left,0.5355442999862134,335.85213700006716,335.85213700006716,None,,14,001,2025-12-23_14h03.03.680,2025C_exp1_comp,2022.2.4,59.84279298403744,
35.3,315,-1,0,1,74,182,15,335.85213700006716,335.85213700006716,336.35235800000373,336.4194156000158,336.4696816999931,336.4696816999931,336.4696816999931,336.4696816999931,336.51944699999876,336.51944699999876,336.51944699999876,336.51944699999876,336.51944699999876,336.51944699999876,336.51944699999876,336.51944699999876,336.51944699999876,right,0.900998399942182,337.4369088000385,337.4369088000385,None,,14,001,2025-12-23_14h03.03.680,2025C_exp1_comp,2022.2.4,59.84279298403744,
39.2,45,-1,-1,1,75,183,79,337.4369088000385,337.4369088000385,337.9375717000803,338.00430740008596,338.05460300005507,338.05460300005507,338.05460300005507,338.05460300005507,338.10426170006394,338.10426170006394,338.10426170006394,338.10426170006394,338.10426170006394,338.10426170006394,338.10426170006394,338.10426170006394,338.10426170006394,left,0.4037824999541044,338.5381444999948,338.5381444999948,None,,14,001,2025-12-23_14h03.03.680,2025C_exp1_comp,2022.2.4,59.84279298403744,
19.6,45,1,1,1,76,184,56,338.5381444999948,338.5381444999948,339.038668800029,339.10541170008946,339.15560080006253,339.15560080006253,339.15560080006253,339.15560080006253,339.20548970007803,339.20548970007803,339.20548970007803,339.20548970007803,339.20548970007803,339.20548970007803,339.20548970007803,339.20548970007803,339.20548970007803,right,0.751023399992846,339.97292109997943,339.97292109997943,None,,14,001,2025-12-23_14h03.03.680,2025C_exp1_comp,2022.2.4,59.84279298403744,
15.7,315,-1,-1,1,77,185,82,339.97292109997943,339.97292109997943,340.47337820008397,340.5401575000724,340.59048940008506,340.59048940008506,340.59048940008506,340.59048940008506,340.6401283000596,340.6401283000596,340.6401283000596,340.6401283000596,340.6401283000596,340.6401283000596,340.6401283000596,340.6401283000596,340.6401283000596,left,0.3966024999972433,341.0573323999997,341.0573323999997,None,,14,001,2025-12-23_14h03.03.680,2025C_exp1_comp,2022.2.4,59.84279298403744,
29.4,315,1,1,1,78,186,68,341.0573323999997,341.0573323999997,341.5575627000071,341.62458260008134,341.6750449000392,341.6750449000392,341.6750449000392,341.6750449000392,341.7246539000189,341.7246539000189,341.7246539000189,341.7246539000189,341.7246539000189,341.7246539000189,341.7246539000189,341.7246539000189,341.7246539000189,right,0.5508842000272125,342.29185280005913,342.29185280005913,None,,14,001,2025-12-23_14h03.03.680,2025C_exp1_comp,2022.2.4,59.84279298403744,
12.1,45,-1,1,1,79,187,36,342.29185280005913,342.29185280005913,342.7924068000866,342.8591240000678,342.90930390008725,342.90930390008725,342.90930390008725,342.90930390008725,342.95924320002086,342.95924320002086,342.95924320002086,342.95924320002086,342.95924320002086,342.95924320002086,342.95924320002086,342.95924320002086,342.95924320002086,right,0.629383800085634,343.60959480004385,343.60959480004385,None,,14,001,2025-12-23_14h03.03.680,2025C_exp1_comp,2022.2.4,59.84279298403744,
22.7,315,-1,0,1,80,188,12,343.60959480004385,343.60959480004385,344.11042040004395,344.1771225000266,344.22735719999764,344.22735719999764,344.22735719999764,344.22735719999764,344.27710120007396,344.27710120007396,344.27710120007396,344.27710120007396,344.27710120007396,344.27710120007396,344.27710120007396,344.27710120007396,344.27710120007396,left,0.33456180000212044,344.6441308000358,344.6441308000358,None,,14,001,2025-12-23_14h03.03.680,2025C_exp1_comp,2022.2.4,59.84279298403744,
22.7,45,-1,0,1,81,189,3,344.6441308000358,344.6441308000358,345.1447483000811,345.21132570004556,345.261797400075,345.261797400075,345.261797400075,345.261797400075,345.3114338000305,345.3114338000305,345.3114338000305,345.3114338000305,345.3114338000305,345.3114338000305,345.3114338000305,345.3114338000305,345.3114338000305,right,0.5882948000216857,345.92877670004964,345.92877670004964,None,,14,001,2025-12-23_14h03.03.680,2025C_exp1_comp,2022.2.4,59.84279298403744,
19.6,45,1,0,1,82,190,20,345.92877670004964,345.92877670004964,346.4293763000751,346.49596740002744,346.5465431000339,346.5465431000339,346.5465431000339,346.5465431000339,346.5960873999866,346.5960873999866,346.5960873999866,346.5960873999866,346.5960873999866,346.5960873999866,346.5960873999866,346.5960873999866,346.5960873999866,left,0.45651980000548065,347.0797948000254,347.0797948000254,None,,14,001,2025-12-23_14h03.03.680,2025C_exp1_comp,2022.2.4,59.84279298403744,
15.7,315,1,1,1,83,191,64,347.0797948000254,347.0797948000254,347.58048110001255,347.64732930005994,347.69759690004867,347.69759690004867,347.69759690004867,347.69759690004867,347.7473900000332,347.7473900000332,347.7473900000332,347.7473900000332,347.7473900000332,347.7473900000332,347.7473900000332,347.7473900000332,347.7473900000332,left,0.6000935999909416,348.364569800091,348.364569800091,None,,14,001,2025-12-23_14h03.03.680,2025C_exp1_comp,2022.2.4,59.84279298403744,
19.6,315,1,1,1,84,192,65,348.364569800091,348.364569800091,348.8648480999982,348.9315591000486,348.98184969997965,348.98184969997965,348.98184969997965,348.98184969997965,349.03182240005117,349.03182240005117,349.03182240005117,349.03182240005117,349.03182240005117,349.03182240005117,349.03182240005117,349.03182240005117,349.03182240005117,left,0.5078138000098988,349.5658487000037,349.5658487000037,None,,14,001,2025-12-23_14h03.03.680,2025C_exp1_comp,2022.2.4,59.84279298403744,
22.7,45,1,1,1,85,193,57,349.5658487000037,349.5658487000037,350.0662552000722,350.1329727000557,350.18332509999163,350.18332509999163,350.18332509999163,350.18332509999163,350.23304760002065,350.23304760002065,350.23304760002065,350.23304760002065,350.23304760002065,350.23304760002065,350.23304760002065,350.23304760002065,350.23304760002065,right,0.802484100102447,351.0673711000709,351.0673711000709,None,,14,001,2025-12-23_14h03.03.680,2025C_exp1_comp,2022.2.4,59.84279298403744,
35.3,45,-1,-1,1,86,194,78,351.0673711000709,351.0673711000709,351.56789280008525,351.6345815000823,351.68487380002625,351.68487380002625,351.68487380002625,351.68487380002625,351.73468790005427,351.73468790005427,351.73468790005427,351.73468790005427,351.73468790005427,351.73468790005427,351.73468790005427,351.73468790005427,351.73468790005427,left,0.4850685999263078,352.2518422000576,352.2518422000576,None,,14,001,2025-12-23_14h03.03.680,2025C_exp1_comp,2022.2.4,59.84279298403744,
19.6,315,-1,1,1,87,195,47,352.2518422000576,352.2518422000576,352.752387000015,352.81912560004275,352.86939540004823,352.86939540004823,352.86939540004823,352.86939540004823,352.9190971000353,352.9190971000353,352.9190971000353,352.9190971000353,352.9190971000353,352.9190971000353,352.9190971000353,352.9190971000353,352.9190971000353,right,0.7332112999865785,353.66993600002024,353.66993600002024,None,,14,001,2025-12-23_14h03.03.680,2025C_exp1_comp,2022.2.4,59.84279298403744,
25.5,45,1,1,1,88,196,58,353.66993600002024,353.66993600002024,354.1704519999912,354.2370438000653,354.28746190003585,354.28746190003585,354.28746190003585,354.28746190003585,354.33713840006385,354.33713840006385,354.33713840006385,354.33713840006385,354.33713840006385,354.33713840006385,354.33713840006385,354.33713840006385,354.33713840006385,right,0.963565899990499,355.3214370000642,355.3214370000642,None,,14,001,2025-12-23_14h03.03.680,2025C_exp1_comp,2022.2.4,59.84279298403744,
25.5,315,-1,0,1,89,197,13,355.3214370000642,355.3214370000642,355.8221112000756,355.8888168000849,355.9391072000144,355.9391072000144,355.9391072000144,355.9391072000144,355.98892280005384,355.98892280005384,355.98892280005384,355.98892280005384,355.98892280005384,355.98892280005384,355.98892280005384,355.98892280005384,355.98892280005384,left,0.38308010005857795,356.38956879999023,356.38956879999023,None,,14,001,2025-12-23_14h03.03.680,2025C_exp1_comp,2022.2.4,59.84279298403744,
22.7,315,1,1,1,90,198,66,356.38956879999023,356.38956879999023,356.88998820004053,356.9567281000782,357.0071289000334,357.0071289000334,357.0071289000334,357.0071289000334,357.0569026999874,357.0569026999874,357.0569026999874,357.0569026999874,357.0569026999874,357.0569026999874,357.0569026999874,357.0569026999874,357.0569026999874,right,0.6437742999987677,357.7239035000093,357.7239035000093,None,,14,001,2025-12-23_14h03.03.680,2025C_exp1_comp,2022.2.4,59.84279298403744,
39.2,45,1,1,1,91,199,61,357.7239035000093,357.7239035000093,358.22451089997776,358.2913752000313,358.3417553000618,358.3417553000618,358.3417553000618,358.3417553000618,358.39153360005,358.39153360005,358.39153360005,358.39153360005,358.39153360005,358.39153360005,358.39153360005,358.39153360005,358.39153360005,right,0.6849850999424234,359.10875470004976,359.10875470004976,None,,14,001,2025-12-23_14h03.03.680,2025C_exp1_comp,2022.2.4,59.84279298403744,
29.4,45,-1,1,1,92,200,41,359.10875470004976,359.10875470004976,359.60921630007215,359.67592579999473,359.7262116000056,359.7262116000056,359.7262116000056,359.7262116000056,359.77603310009,359.77603310009,359.77603310009,359.77603310009,359.77603310009,359.77603310009,359.77603310009,359.77603310009,359.77603310009,right,0.6837471999460831,360.47676130000036,360.47676130000036,None,,14,001,2025-12-23_14h03.03.680,2025C_exp1_comp,2022.2.4,59.84279298403744,
19.6,315,-1,0,1,93,201,11,360.47676130000036,360.47676130000036,360.9771597000072,361.04398230009247,361.0943094000686,361.0943094000686,361.0943094000686,361.0943094000686,361.14400560001377,361.14400560001377,361.14400560001377,361.14400560001377,361.14400560001377,361.14400560001377,361.14400560001377,361.14400560001377,361.14400560001377,left,0.4115517999744043,361.5777188000502,361.5777188000502,None,,14,001,2025-12-23_14h03.03.680,2025C_exp1_comp,2022.2.4,59.84279298403744,
35.3,45,-1,1,1,94,202,42,361.5777188000502,361.5777188000502,362.0784577000886,362.1451382000232,362.1954227000242,362.1954227000242,362.1954227000242,362.1954227000242,362.2452361000469,362.2452361000469,362.2452361000469,362.2452361000469,362.2452361000469,362.2452361000469,362.2452361000469,362.2452361000469,362.2452361000469,left,0.566812599892728,362.82912020001095,362.82912020001095,None,,14,001,2025-12-23_14h03.03.680,2025C_exp1_comp,2022.2.4,59.84279298403744,
35.3,315,-1,1,1,95,203,51,362.82912020001095,362.82912020001095,363.329662400065,363.3960749000544,363.44666160002816,363.44666160002816,363.44666160002816,363.44666160002816,363.4964345000917,363.4964345000917,363.4964345000917,363.4964345000917,363.4964345000917,363.4964345000917,363.4964345000917,363.4964345000917,363.4964345000917,right,1.0195595999248326,364.5474605000345,364.5474605000345,None,,14,001,2025-12-23_14h03.03.680,2025C_exp1_comp,2022.2.4,59.84279298403744,
29.4,45,-1,0,1,96,204,5,364.5474605000345,364.5474605000345,365.0481180000352,365.11484880000353,365.1650530000916,365.1650530000916,365.1650530000916,365.1650530000916,365.21471219998784,365.21471219998784,365.21471219998784,365.21471219998784,365.21471219998784,365.21471219998784,365.21471219998784,365.21471219998784,365.21471219998784,right,0.9580545000499114,366.1990857999772,366.1990857999772,None,,14,001,2025-12-23_14h03.03.680,2025C_exp1_comp,2022.2.4,59.84279298403744,
42.7,315,1,1,1,97,205,71,366.1990857999772,366.1990857999772,366.69966719998047,366.7662472000811,366.8166591000045,366.8166591000045,366.8166591000045,366.8166591000045,366.86636770004407,366.86636770004407,366.86636770004407,366.86636770004407,366.86636770004407,366.86636770004407,366.86636770004407,366.86636770004407,366.86636770004407,right,0.5936612000223249,367.4835060000187,367.4835060000187,None,,14,001,2025-12-23_14h03.03.680,2025C_exp1_comp,2022.2.4,59.84279298403744,
