contrast,ori,lefttarget,righttarget,postcue,precue,trials.thisRepN,trials.thisTrialN,trials.thisN,trials.thisIndex,fix1.started,fix2.started,precue_2.started,precue_2.stopped,left_grating.started,right_grating.started,noise_left.started,noise_right.started,fix1.stopped,fix2.stopped,left_grating.stopped,right_grating.stopped,noise_left.stopped,noise_right.stopped,key_resp.started,postcue_2.started,fix1_2.started,fix2_2.started,key_resp.keys,key_resp.rt,key_resp_2.started,break_text_2.started,key_resp_2.keys,key_resp_2.rt,participant,session,date,expName,psychopyVersion,frameRate,
22.7,45,0,1,-1,1,0,0,0,327,26.597036999999546,26.597036999999546,27.0811419999809,27.147865500010084,27.222675299970433,27.222675299970433,27.222675299970433,27.222675299970433,27.248193399980664,27.248193399980664,27.248193399980664,27.248193399980664,27.248193399980664,27.248193399980664,27.248193399980664,27.248193399980664,27.248193399980664,27.248193399980664,num_1,5.3836994000012055,32.65317359997425,32.65317359997425,None,,14,001,2025-12-23_13h01.22.048,2025C_exp1_detect,2022.2.4,59.96659860853848,
42.7,45,1,1,1,1,0,1,1,422,32.65317359997425,32.65317359997425,33.15397959999973,33.220677500008605,33.27083430002676,33.27083430002676,33.27083430002676,33.27083430002676,33.32082199997967,33.32082199997967,33.32082199997967,33.32082199997967,33.32082199997967,33.32082199997967,33.32082199997967,33.32082199997967,33.32082199997967,33.32082199997967,num_3,11.23072009999305,44.581956000009086,44.581956000009086,None,,14,001,2025-12-23_13h01.22.048,2025C_exp1_detect,2022.2.4,59.96659860853848,
29.4,45,1,1,1,1,0,2,2,419,44.581956000009086,44.581956000009086,45.08244049997302,45.1488895000075,45.19949229998747,45.19949229998747,45.19949229998747,45.19949229998747,45.249343600007705,45.249343600007705,45.249343600007705,45.249343600007705,45.249343600007705,45.249343600007705,45.249343600007705,45.249343600007705,45.249343600007705,45.249343600007705,num_3,1.1821245000464842,46.45048150001094,46.45048150001094,None,,14,001,2025-12-23_13h01.22.048,2025C_exp1_detect,2022.2.4,59.96659860853848,
29.4,45,1,1,1,0,0,3,3,131,46.45048150001094,46.45048150001094,46.95099859999027,47.01760159997502,47.06816510000499,47.06816510000499,47.06816510000499,47.06816510000499,47.11794899997767,47.11794899997767,47.11794899997767,47.11794899997767,47.11794899997767,47.11794899997767,47.11794899997767,47.11794899997767,47.11794899997767,47.11794899997767,num_3,4.810286800027825,51.95585149998078,51.95585149998078,None,,14,001,2025-12-23_13h01.22.048,2025C_exp1_detect,2022.2.4,59.96659860853848,
35.3,45,0,0,1,0,0,4,4,78,51.95585149998078,51.95585149998078,52.45660729997326,52.52325159998145,52.57355610001832,52.57355610001832,52.57355610001832,52.57355610001832,52.62333670002408,52.62333670002408,52.62333670002408,52.62333670002408,52.62333670002408,52.62333670002408,52.62333670002408,52.62333670002408,52.62333670002408,52.62333670002408,num_1,9.088294700020924,61.73236329999054,61.73236329999054,None,,14,001,2025-12-23_13h01.22.048,2025C_exp1_detect,2022.2.4,59.96659860853848,
29.4,45,0,0,1,1,0,5,5,365,61.73236329999054,61.73236329999054,62.23286079999525,62.29968659998849,62.3499570999993,62.3499570999993,62.3499570999993,62.3499570999993,62.39983740000753,62.39983740000753,62.39983740000753,62.39983740000753,62.39983740000753,62.39983740000753,62.39983740000753,62.39983740000753,62.39983740000753,62.39983740000753,num_3,6.535510500019882,68.95610229996964,68.95610229996964,None,,14,001,2025-12-23_13h01.22.048,2025C_exp1_detect,2022.2.4,59.96659860853848,
39.2,315,0,0,1,-1,0,6,6,232,68.95610229996964,68.95610229996964,69.45681589999003,69.5234524999978,69.57370100001572,69.57370100001572,69.57370100001572,69.57370100001572,69.62368770001922,69.62368770001922,69.62368770001922,69.62368770001922,69.62368770001922,69.62368770001922,69.62368770001922,69.62368770001922,69.62368770001922,69.62368770001922,num_3,3.0644804000039585,72.70981819997542,72.70981819997542,None,,14,001,2025-12-23_13h01.22.048,2025C_exp1_detect,2022.2.4,59.96659860853848,
29.4,315,1,0,-1,-1,0,7,7,176,72.70981819997542,72.70981819997542,73.21053119999124,73.27728300000308,73.3275902000023,73.3275902000023,73.3275902000023,73.3275902000023,73.37746250000782,73.37746250000782,73.37746250000782,73.37746250000782,73.37746250000782,73.37746250000782,73.37746250000782,73.37746250000782,73.37746250000782,73.37746250000782,num_1,9.806648699974176,83.20359889999963,83.20359889999963,None,,14,001,2025-12-23_13h01.22.048,2025C_exp1_detect,2022.2.4,59.96659860853848,
19.6,45,0,1,-1,0,0,8,8,38,83.20359889999963,83.20359889999963,83.70522850000998,83.77118979999796,83.8225672999979,83.8225672999979,83.8225672999979,83.8225672999979,83.87184450001223,83.87184450001223,83.87184450001223,83.87184450001223,83.87184450001223,83.87184450001223,83.87184450001223,83.87184450001223,83.87184450001223,83.87184450001223,num_3,2.832764799997676,86.7238438000204,86.7238438000204,None,,14,001,2025-12-23_13h01.22.048,2025C_exp1_detect,2022.2.4,59.96659860853848,
42.7,315,1,1,1,1,0,9,9,431,86.7238438000204,86.7238438000204,87.22445550002158,87.29126730002463,87.3415833999752,87.3415833999752,87.3415833999752,87.3415833999752,87.39135360001819,87.39135360001819,87.39135360001819,87.39135360001819,87.39135360001819,87.39135360001819,87.39135360001819,87.39135360001819,87.39135360001819,87.39135360001819,num_3,2.0089262000401504,89.42653689999133,89.42653689999133,None,,14,001,2025-12-23_13h01.22.048,2025C_exp1_detect,2022.2.4,59.96659860853848,
39.2,315,1,1,1,0,0,10,10,142,89.42653689999133,89.42653689999133,89.92731790000107,89.9938317000051,90.04428610001924,90.04428610001924,90.04428610001924,90.04428610001924,90.09414960001595,90.09414960001595,90.09414960001595,90.09414960001595,90.09414960001595,90.09414960001595,90.09414960001595,90.09414960001595,90.09414960001595,90.09414960001595,num_3,29.041314999980386,119.15633620001609,119.15633620001609,None,,14,001,2025-12-23_13h01.22.048,2025C_exp1_detect,2022.2.4,59.96659860853848,
22.7,315,0,1,-1,-1,0,11,11,192,119.15633620001609,119.15633620001609,119.65695360000245,119.72349760000361,119.77388719998999,119.77388719998999,119.77388719998999,119.77388719998999,119.82385200000135,119.82385200000135,119.82385200000135,119.82385200000135,119.82385200000135,119.82385200000135,119.82385200000135,119.82385200000135,119.82385200000135,119.82385200000135,num_3,1.359270699962508,121.2082170000067,121.2082170000067,None,,14,001,2025-12-23_13h01.22.048,2025C_exp1_detect,2022.2.4,59.96659860853848,
25.5,45,1,0,-1,0,0,12,12,22,121.2082170000067,121.2082170000067,121.70915750000859,121.77570850000484,121.8259291999857,121.8259291999857,121.8259291999857,121.8259291999857,121.87576680001803,121.87576680001803,121.87576680001803,121.87576680001803,121.87576680001803,121.87576680001803,121.87576680001803,121.87576680001803,121.87576680001803,121.87576680001803,num_1,1.1484695000108331,123.04344679997303,123.04344679997303,None,,14,001,2025-12-23_13h01.22.048,2025C_exp1_detect,2022.2.4,59.96659860853848,
35.3,45,1,0,1,-1,0,13,13,240,123.04344679997303,123.04344679997303,123.5443074000068,123.61103009997169,123.66131529997801,123.66131529997801,123.66131529997801,123.66131529997801,123.71113690000493,123.71113690000493,123.71113690000493,123.71113690000493,123.71113690000493,123.71113690000493,123.71113690000493,123.71113690000493,123.71113690000493,123.71113690000493,num_3,0.8010683999746107,124.52821319998475,124.52821319998475,None,,14,001,2025-12-23_13h01.22.048,2025C_exp1_detect,2022.2.4,59.96659860853848,
12.1,45,0,0,1,0,0,14,14,72,124.52821319998475,124.52821319998475,125.02903440000955,125.09561730001587,125.1457389999996,125.1457389999996,125.1457389999996,125.1457389999996,125.19572770001832,125.19572770001832,125.19572770001832,125.19572770001832,125.19572770001832,125.19572770001832,125.19572770001832,125.19572770001832,125.19572770001832,125.19572770001832,num_3,1.8441055000294,127.06406439997954,127.06406439997954,None,,14,001,2025-12-23_13h01.22.048,2025C_exp1_detect,2022.2.4,59.96659860853848,
42.7,315,0,1,-1,-1,0,15,15,197,127.06406439997954,127.06406439997954,127.56472829997074,127.63153559999773,127.68181979999645,127.68181979999645,127.68181979999645,127.68181979999645,127.73177409998607,127.73177409998607,127.73177409998607,127.73177409998607,127.73177409998607,127.73177409998607,127.73177409998607,127.73177409998607,127.73177409998607,127.73177409998607,num_1,0.7967477000202052,128.54889209999237,128.54889209999237,None,,14,001,2025-12-23_13h01.22.048,2025C_exp1_detect,2022.2.4,59.96659860853848,
19.6,45,0,1,1,-1,0,16,16,254,128.54889209999237,128.54889209999237,129.04962150001666,129.11638050002512,129.16668510000454,129.16668510000454,129.16668510000454,129.16668510000454,129.2165889000171,129.2165889000171,129.2165889000171,129.2165889000171,129.2165889000171,129.2165889000171,129.2165889000171,129.2165889000171,129.2165889000171,129.2165889000171,num_1,1.5030322999809869,130.75115309999092,130.75115309999092,None,,14,001,2025-12-23_13h01.22.048,2025C_exp1_detect,2022.2.4,59.96659860853848,
35.3,45,0,1,-1,1,0,17,17,330,130.75115309999092,130.75115309999092,131.2519331999938,131.31862440000987,131.3686400000006,131.3686400000006,131.3686400000006,131.3686400000006,131.41852780000772,131.41852780000772,131.41852780000772,131.41852780000772,131.41852780000772,131.41852780000772,131.41852780000772,131.41852780000772,131.41852780000772,131.41852780000772,num_3,4.845761300006416,136.29012530000182,136.29012530000182,None,,14,001,2025-12-23_13h01.22.048,2025C_exp1_detect,2022.2.4,59.96659860853848,
22.7,315,1,0,1,-1,0,18,18,246,136.29012530000182,136.29012530000182,136.79058839997742,136.85748030000832,136.90779169998132,136.90779169998132,136.90779169998132,136.90779169998132,136.9576662000036,136.9576662000036,136.9576662000036,136.9576662000036,136.9576662000036,136.9576662000036,136.9576662000036,136.9576662000036,136.9576662000036,136.9576662000036,num_3,1.4736102999886498,138.45884969999315,138.45884969999315,None,,14,001,2025-12-23_13h01.22.048,2025C_exp1_detect,2022.2.4,59.96659860853848,
29.4,315,1,1,-1,-1,0,19,19,212,138.45884969999315,138.45884969999315,138.95956819999265,139.026292799972,139.07657799997833,139.07657799997833,139.07657799997833,139.07657799997833,139.126274499984,139.126274499984,139.126274499984,139.126274499984,139.126274499984,139.126274499984,139.126274499984,139.126274499984,139.126274499984,139.126274499984,num_3,2.3449986000196077,141.4951578999753,141.4951578999753,None,,14,001,2025-12-23_13h01.22.048,2025C_exp1_detect,2022.2.4,59.96659860853848,
42.7,45,1,0,1,-1,0,20,20,242,141.4951578999753,141.4951578999753,141.9960511000245,142.0627225000062,142.11298159998842,142.11298159998842,142.11298159998842,142.11298159998842,142.1629990999936,142.1629990999936,142.1629990999936,142.1629990999936,142.1629990999936,142.1629990999936,142.1629990999936,142.1629990999936,142.1629990999936,142.1629990999936,num_3,1.2841792000108398,143.46388659998775,143.46388659998775,None,,14,001,2025-12-23_13h01.22.048,2025C_exp1_detect,2022.2.4,59.96659860853848,
12.1,45,0,0,-1,-1,0,21,21,144,143.46388659998775,143.46388659998775,143.9645620000083,144.03127699997276,144.08159730001353,144.08159730001353,144.08159730001353,144.08159730001353,144.13130950002233,144.13130950002233,144.13130950002233,144.13130950002233,144.13130950002233,144.13130950002233,144.13130950002233,144.13130950002233,144.13130950002233,144.13130950002233,num_1,1.12459060002584,145.28254659997765,145.28254659997765,None,,14,001,2025-12-23_13h01.22.048,2025C_exp1_detect,2022.2.4,59.96659860853848,
42.7,45,1,0,-1,-1,0,22,22,170,145.28254659997765,145.28254659997765,145.7831189999706,145.8496539000189,145.8998405999737,145.8998405999737,145.8998405999737,145.8998405999737,145.94969229999697,145.94969229999697,145.94969229999697,145.94969229999697,145.94969229999697,145.94969229999697,145.94969229999697,145.94969229999697,145.94969229999697,145.94969229999697,num_1,0.914888700004667,146.8838949999772,146.8838949999772,None,,14,001,2025-12-23_13h01.22.048,2025C_exp1_detect,2022.2.4,59.96659860853848,
15.7,315,1,1,1,1,0,23,23,424,146.8838949999772,146.8838949999772,147.38470350002171,147.45132160000503,147.50172379997093,147.50172379997093,147.50172379997093,147.50172379997093,147.55159250000725,147.55159250000725,147.55159250000725,147.55159250000725,147.55159250000725,147.55159250000725,147.55159250000725,147.55159250000725,147.55159250000725,147.55159250000725,num_3,1.0001673000515439,148.56916060001822,148.56916060001822,None,,14,001,2025-12-23_13h01.22.048,2025C_exp1_detect,2022.2.4,59.96659860853848,
35.3,45,0,0,-1,-1,0,24,24,150,148.56916060001822,148.56916060001822,149.0696066999808,149.13622290000785,149.18662829999812,149.18662829999812,149.18662829999812,149.18662829999812,149.23660609999206,149.23660609999206,149.23660609999206,149.23660609999206,149.23660609999206,149.23660609999206,149.23660609999206,149.23660609999206,149.23660609999206,149.23660609999206,num_3,1.6599635000457056,150.92121070000576,150.92121070000576,None,,14,001,2025-12-23_13h01.22.048,2025C_exp1_detect,2022.2.4,59.96659860853848,
42.7,315,0,1,1,1,0,25,25,413,150.92121070000576,150.92121070000576,151.42202009999892,151.48900220001815,151.53919899999164,151.53919899999164,151.53919899999164,151.53919899999164,151.58906249998836,151.58906249998836,151.58906249998836,151.58906249998836,151.58906249998836,151.58906249998836,151.58906249998836,151.58906249998836,151.58906249998836,151.58906249998836,num_3,2.5539067000499927,154.17451510002138,154.17451510002138,None,,14,001,2025-12-23_13h01.22.048,2025C_exp1_detect,2022.2.4,59.96659860853848,
29.4,315,0,0,1,0,0,26,26,86,154.17451510002138,154.17451510002138,154.67527529998915,154.74196920002578,154.7922904000152,154.7922904000152,154.7922904000152,154.7922904000152,154.84216689999448,154.84216689999448,154.84216689999448,154.84216689999448,154.84216689999448,154.84216689999448,154.84216689999448,154.84216689999448,154.84216689999448,154.84216689999448,num_3,34.158496999996714,189.0260637999745,189.0260637999745,None,,14,001,2025-12-23_13h01.22.048,2025C_exp1_detect,2022.2.4,59.96659860853848,
22.7,45,1,0,-1,0,0,27,27,21,189.0260637999745,189.0260637999745,189.52658030000748,189.59371159999864,189.6438987000147,189.6438987000147,189.6438987000147,189.6438987000147,189.69384219998028,189.69384219998028,189.69384219998028,189.69384219998028,189.69384219998028,189.69384219998028,189.69384219998028,189.69384219998028,189.69384219998028,189.69384219998028,num_1,1.250121199991554,190.96152239997173,190.96152239997173,None,,14,001,2025-12-23_13h01.22.048,2025C_exp1_detect,2022.2.4,59.96659860853848,
12.1,315,0,1,-1,1,0,28,28,333,190.96152239997173,190.96152239997173,191.46191670000553,191.528754799976,191.578787299979,191.578787299979,191.578787299979,191.578787299979,191.62883699999657,191.62883699999657,191.62883699999657,191.62883699999657,191.62883699999657,191.62883699999657,191.62883699999657,191.62883699999657,191.62883699999657,191.62883699999657,num_3,1.1156427999958396,192.7780911999871,192.7780911999871,None,,14,001,2025-12-23_13h01.22.048,2025C_exp1_detect,2022.2.4,59.96659860853848,
19.6,45,0,1,1,0,0,29,29,110,192.7780911999871,192.7780911999871,193.263810799981,193.33052369998768,193.3808250000002,193.3808250000002,193.3808250000002,193.3808250000002,193.43057640001643,193.43057640001643,193.43057640001643,193.43057640001643,193.43057640001643,193.43057640001643,193.4473902999889,193.4473902999889,193.4473902999889,193.4473902999889,num_1,0.8885047999792732,194.36462080001365,194.36462080001365,None,,14,001,2025-12-23_13h01.22.048,2025C_exp1_detect,2022.2.4,59.96659860853848,
29.4,315,0,0,-1,1,0,30,30,302,194.36462080001365,194.36462080001365,194.86556030000793,194.93219500000123,194.98243400000501,194.98243400000501,194.98243400000501,194.98243400000501,195.0324320999789,195.0324320999789,195.0324320999789,195.0324320999789,195.0324320999789,195.0324320999789,195.0324320999789,195.0324320999789,195.0324320999789,195.0324320999789,num_3,1.2877442999742925,196.34996169997612,196.34996169997612,None,,14,001,2025-12-23_13h01.22.048,2025C_exp1_detect,2022.2.4,59.96659860853848,
12.1,45,0,1,-1,-1,0,31,31,180,196.34996169997612,196.34996169997612,196.85069150000345,196.91728549997788,196.9678904999746,196.9678904999746,196.9678904999746,196.9678904999746,197.01755420002155,197.01755420002155,197.01755420002155,197.01755420002155,197.01755420002155,197.01755420002155,197.01755420002155,197.01755420002155,197.01755420002155,197.01755420002155,num_3,1.5268311999971047,198.568989899999,198.568989899999,None,,14,001,2025-12-23_13h01.22.048,2025C_exp1_detect,2022.2.4,59.96659860853848,
25.5,45,1,0,-1,-1,0,32,32,166,198.568989899999,198.568989899999,199.06963039998664,199.13622340001166,199.18656409997493,199.18656409997493,199.18656409997493,199.18656409997493,199.2365283999825,199.2365283999825,199.2365283999825,199.2365283999825,199.2365283999825,199.2365283999825,199.2365283999825,199.2365283999825,199.2365283999825,199.2365283999825,num_1,0.9554873000015505,200.22064580000006,200.22064580000006,None,,14,001,2025-12-23_13h01.22.048,2025C_exp1_detect,2022.2.4,59.96659860853848,
35.3,45,1,0,-1,1,0,33,33,312,200.22064580000006,200.22064580000006,200.7213390999823,200.78781100001652,200.83827760000713,200.83827760000713,200.83827760000713,200.83827760000713,200.88800610002363,200.88800610002363,200.88800610002363,200.88800610002363,200.88800610002363,200.88800610002363,200.88800610002363,200.88800610002363,200.88800610002363,200.88800610002363,num_1,0.9518031000043266,201.87241589999758,201.87241589999758,None,,14,001,2025-12-23_13h01.22.048,2025C_exp1_detect,2022.2.4,59.96659860853848,
25.5,315,1,0,1,0,0,34,34,103,201.87241589999758,201.87241589999758,202.3729284000001,202.43965189997107,202.48991529998602,202.48991529998602,202.48991529998602,202.48991529998602,202.53981599997496,202.53981599997496,202.53981599997496,202.53981599997496,202.53981599997496,202.53981599997496,202.53981599997496,202.53981599997496,202.53981599997496,202.53981599997496,num_3,1.307565099967178,203.8741382000153,203.8741382000153,None,,14,001,2025-12-23_13h01.22.048,2025C_exp1_detect,2022.2.4,59.96659860853848,
25.5,45,0,1,-1,1,0,35,35,328,203.8741382000153,203.8741382000153,204.37509970000247,204.44167440000456,204.49207410000963,204.49207410000963,204.49207410000963,204.49207410000963,204.54187890002504,204.54187890002504,204.54187890002504,204.54187890002504,204.54187890002504,204.54187890002504,204.54187890002504,204.54187890002504,204.54187890002504,204.54187890002504,num_3,1.3625185000128113,205.92625870002666,205.92625870002666,None,,14,001,2025-12-23_13h01.22.048,2025C_exp1_detect,2022.2.4,59.96659860853848,
12.1,315,1,1,-1,1,0,36,36,351,205.92625870002666,205.92625870002666,206.42702980001923,206.49390120001044,206.54416190000484,206.54416190000484,206.54416190000484,206.54416190000484,206.59395730000688,206.59395730000688,206.59395730000688,206.59395730000688,206.59395730000688,206.59395730000688,206.59395730000688,206.59395730000688,206.59395730000688,206.59395730000688,num_3,1.1491693000425585,207.7614170999732,207.7614170999732,None,,14,001,2025-12-23_13h01.22.048,2025C_exp1_detect,2022.2.4,59.96659860853848,
29.4,45,1,1,-1,-1,0,37,37,203,207.7614170999732,207.7614170999732,208.2624105999712,208.3289814000018,208.37934189999942,208.37934189999942,208.37934189999942,208.37934189999942,208.42916629998945,208.42916629998945,208.42916629998945,208.42916629998945,208.42916629998945,208.42916629998945,208.42916629998945,208.42916629998945,208.42916629998945,208.42916629998945,num_3,1.0430885999812745,209.49644040002022,209.49644040002022,None,,14,001,2025-12-23_13h01.22.048,2025C_exp1_detect,2022.2.4,59.96659860853848,
25.5,315,0,0,-1,0,0,38,38,13,209.49644040002022,209.49644040002022,209.99715190002462,210.0640451000072,210.11435819999315,210.11435819999315,210.11435819999315,210.11435819999315,210.16394980001496,210.16394980001496,210.16394980001496,210.16394980001496,210.16394980001496,210.16394980001496,210.16394980001496,210.16394980001496,210.16394980001496,210.16394980001496,num_1,0.803919100027997,210.99793910002336,210.99793910002336,None,,14,001,2025-12-23_13h01.22.048,2025C_exp1_detect,2022.2.4,59.96659860853848,
29.4,315,0,0,-1,0,0,39,39,14,210.99793910002336,210.99793910002336,211.4989550000173,211.56553429999622,211.61595770000713,211.61595770000713,211.61595770000713,211.61595770000713,211.66585460002534,211.66585460002534,211.66585460002534,211.66585460002534,211.66585460002534,211.66585460002534,211.66585460002534,211.66585460002534,211.66585460002534,211.66585460002534,num_1,2.8783479999983683,214.5682189000072,214.5682189000072,None,,14,001,2025-12-23_13h01.22.048,2025C_exp1_detect,2022.2.4,59.96659860853848,
29.4,45,0,0,-1,-1,0,40,40,149,214.5682189000072,214.5682189000072,215.06893279997166,215.1356245999923,215.18592419999186,215.18592419999186,215.18592419999186,215.18592419999186,215.23581260000356,215.23581260000356,215.23581260000356,215.23581260000356,215.23581260000356,215.23581260000356,215.23581260000356,215.23581260000356,215.23581260000356,215.23581260000356,num_1,1.2114116000011563,216.47002100001555,216.47002100001555,None,,14,001,2025-12-23_13h01.22.048,2025C_exp1_detect,2022.2.4,59.96659860853848,
39.2,45,1,1,-1,0,0,41,41,61,216.47002100001555,216.47002100001555,216.97100449999562,217.03769079997437,217.08789030002663,217.08789030002663,217.08789030002663,217.08789030002663,217.13763950002613,217.13763950002613,217.13763950002613,217.13763950002613,217.13763950002613,217.13763950002613,217.13763950002613,217.13763950002613,217.13763950002613,217.13763950002613,num_3,0.7174099999829195,217.87147309997818,217.87147309997818,None,,14,001,2025-12-23_13h01.22.048,2025C_exp1_detect,2022.2.4,59.96659860853848,
19.6,315,1,1,-1,0,0,42,42,65,217.87147309997818,217.87147309997818,218.3719922999735,218.43903110001702,218.4893965999945,218.4893965999945,218.4893965999945,218.4893965999945,218.5388744000229,218.5388744000229,218.5388744000229,218.5388744000229,218.5388744000229,218.5388744000229,218.5388744000229,218.5388744000229,218.5388744000229,218.5388744000229,num_3,2.2681999999913387,220.82441699999617,220.82441699999617,None,,14,001,2025-12-23_13h01.22.048,2025C_exp1_detect,2022.2.4,59.96659860853848,
19.6,45,1,0,1,-1,0,43,43,236,220.82441699999617,220.82441699999617,221.3252053000033,221.39184370002476,221.44214649999049,221.44214649999049,221.44214649999049,221.44214649999049,221.4920948999934,221.4920948999934,221.4920948999934,221.4920948999934,221.4920948999934,221.4920948999934,221.4920948999934,221.4920948999934,221.4920948999934,221.4920948999934,num_3,1.859666100004688,223.3769538999768,223.3769538999768,None,,14,001,2025-12-23_13h01.22.048,2025C_exp1_detect,2022.2.4,59.96659860853848,
15.7,45,0,1,1,1,0,44,44,397,223.3769538999768,223.3769538999768,223.8775645000278,223.94433510000817,223.99477930000285,223.99477930000285,223.99477930000285,223.99477930000285,224.04464879998704,224.04464879998704,224.04464879998704,224.04464879998704,224.04464879998704,224.04464879998704,224.04464879998704,224.04464879998704,224.04464879998704,224.04464879998704,num_1,0.6670033000409603,224.72827740001958,224.72827740001958,None,,14,001,2025-12-23_13h01.22.048,2025C_exp1_detect,2022.2.4,59.96659860853848,
42.7,45,0,0,1,-1,0,45,45,224,224.72827740001958,224.72827740001958,225.22926940000616,225.29595579998568,225.3462774999789,225.3462774999789,225.3462774999789,225.3462774999789,225.39601020002738,225.39601020002738,225.39601020002738,225.39601020002738,225.39601020002738,225.39601020002738,225.39601020002738,225.39601020002738,225.39601020002738,225.39601020002738,num_1,1.394947000022512,226.81376460002502,226.81376460002502,None,,14,001,2025-12-23_13h01.22.048,2025C_exp1_detect,2022.2.4,59.96659860853848,
29.4,315,0,1,-1,1,0,46,46,338,226.81376460002502,226.81376460002502,227.31455670000287,227.38126829999965,227.43153150001308,227.43153150001308,227.43153150001308,227.43153150001308,227.48131000000285,227.48131000000285,227.48131000000285,227.48131000000285,227.48131000000285,227.48131000000285,227.48131000000285,227.48131000000285,227.48131000000285,227.48131000000285,num_3,0.6868476999807172,228.19840639998438,228.19840639998438,None,,14,001,2025-12-23_13h01.22.048,2025C_exp1_detect,2022.2.4,59.96659860853848,
35.3,45,1,0,1,0,0,47,47,96,228.19840639998438,228.19840639998438,228.699409199995,228.7661889999872,228.81650339998305,228.81650339998305,228.81650339998305,228.81650339998305,228.86611010000343,228.86611010000343,228.86611010000343,228.86611010000343,228.86611010000343,228.86611010000343,228.86611010000343,228.86611010000343,228.86611010000343,228.86611010000343,num_3,1.030344500031788,229.91687349998392,229.91687349998392,None,,14,001,2025-12-23_13h01.22.048,2025C_exp1_detect,2022.2.4,59.96659860853848,
19.6,45,1,0,-1,1,0,48,48,308,229.91687349998392,229.91687349998392,230.41758329997538,230.4843182999757,230.53460559999803,230.53460559999803,230.53460559999803,230.53460559999803,230.5843548999983,230.5843548999983,230.5843548999983,230.5843548999983,230.5843548999983,230.5843548999983,230.5843548999983,230.5843548999983,230.5843548999983,230.5843548999983,num_1,0.759377799986396,231.36833069997374,231.36833069997374,None,,14,001,2025-12-23_13h01.22.048,2025C_exp1_detect,2022.2.4,59.96659860853848,
39.2,315,0,0,1,1,0,49,49,376,231.36833069997374,231.36833069997374,231.8689276999794,231.93575469998177,231.9860583000118,231.9860583000118,231.9860583000118,231.9860583000118,232.0359341999865,232.0359341999865,232.0359341999865,232.0359341999865,232.0359341999865,232.0359341999865,232.0359341999865,232.0359341999865,232.0359341999865,232.0359341999865,num_1,0.8913919000187889,232.95360589999473,232.95360589999473,None,,14,001,2025-12-23_13h01.22.048,2025C_exp1_detect,2022.2.4,59.96659860853848,
22.7,45,1,1,1,1,0,50,50,417,232.95360589999473,232.95360589999473,233.4540467999759,233.520621499978,233.5709926999989,233.5709926999989,233.5709926999989,233.5709926999989,233.62091439997312,233.62091439997312,233.62091439997312,233.62091439997312,233.62091439997312,233.62091439997312,233.62091439997312,233.62091439997312,233.62091439997312,233.62091439997312,num_3,0.7222918000188656,234.37130729999626,234.37130729999626,None,,14,001,2025-12-23_13h01.22.048,2025C_exp1_detect,2022.2.4,59.96659860853848,
25.5,315,1,0,1,-1,0,51,51,247,234.37130729999626,234.37130729999626,234.8720681000268,234.93869099998847,234.98892849998083,234.98892849998083,234.98892849998083,234.98892849998083,235.03896199999144,235.03896199999144,235.03896199999144,235.03896199999144,235.03896199999144,235.03896199999144,235.03896199999144,235.03896199999144,235.03896199999144,235.03896199999144,num_3,1.7686820999952033,236.82412419997854,236.82412419997854,None,,14,001,2025-12-23_13h01.22.048,2025C_exp1_detect,2022.2.4,59.96659860853848,
29.4,315,0,1,-1,-1,0,52,52,194,236.82412419997854,236.82412419997854,237.32450019998942,237.39128689997597,237.44163000001572,237.44163000001572,237.44163000001572,237.44163000001572,237.49144359998172,237.49144359998172,237.49144359998172,237.49144359998172,237.49144359998172,237.49144359998172,237.49144359998172,237.49144359998172,237.49144359998172,237.49144359998172,num_3,1.0281469999463297,238.54215469997143,238.54215469997143,None,,14,001,2025-12-23_13h01.22.048,2025C_exp1_detect,2022.2.4,59.96659860853848,
12.1,45,1,0,1,0,0,53,53,90,238.54215469997143,238.54215469997143,239.04290449997643,239.10977430001367,239.16000859998167,239.16000859998167,239.16000859998167,239.16000859998167,239.20966290001525,239.20966290001525,239.20966290001525,239.20966290001525,239.20966290001525,239.20966290001525,239.20966290001525,239.20966290001525,239.20966290001525,239.20966290001525,num_3,1.0945558999665082,240.3272530999966,240.3272530999966,None,,14,001,2025-12-23_13h01.22.048,2025C_exp1_detect,2022.2.4,59.96659860853848,
15.7,45,0,0,-1,1,0,54,54,289,240.3272530999966,240.3272530999966,240.82778130000224,240.8946207999834,240.9450465000118,240.9450465000118,240.9450465000118,240.9450465000118,240.99488820001716,240.99488820001716,240.99488820001716,240.99488820001716,240.99488820001716,240.99488820001716,240.99488820001716,240.99488820001716,240.99488820001716,240.99488820001716,num_1,0.8124960999703035,241.82898049999494,241.82898049999494,None,,14,001,2025-12-23_13h01.22.048,2025C_exp1_detect,2022.2.4,59.96659860853848,
35.3,315,1,0,1,1,0,55,55,393,241.82898049999494,241.82898049999494,242.32944559998577,242.39622130000498,242.4464963999926,242.4464963999926,242.4464963999926,242.4464963999926,242.4964577999781,242.4964577999781,242.4964577999781,242.4964577999781,242.4964577999781,242.4964577999781,242.4964577999781,242.4964577999781,242.4964577999781,242.4964577999781,num_3,2.031370999990031,244.54814979998628,244.54814979998628,None,,14,001,2025-12-23_13h01.22.048,2025C_exp1_detect,2022.2.4,59.96659860853848,
42.7,45,0,0,1,1,0,56,56,368,244.54814979998628,244.54814979998628,245.04886839998653,245.11558350000996,245.1657993000117,245.1657993000117,245.1657993000117,245.1657993000117,245.21576599997934,245.21576599997934,245.21576599997934,245.21576599997934,245.21576599997934,245.21576599997934,245.21576599997934,245.21576599997934,245.21576599997934,245.21576599997934,num_1,0.9606480000074953,246.19984000001568,246.19984000001568,None,,14,001,2025-12-23_13h01.22.048,2025C_exp1_detect,2022.2.4,59.96659860853848,
12.1,315,0,1,1,0,0,57,57,117,246.19984000001568,246.19984000001568,246.70055750000756,246.7672735999804,246.8175585999852,246.8175585999852,246.8175585999852,246.8175585999852,246.86742219998268,246.86742219998268,246.86742219998268,246.86742219998268,246.86742219998268,246.86742219998268,246.86742219998268,246.86742219998268,246.86742219998268,246.86742219998268,num_1,1.3963781000347808,248.28531629999634,248.28531629999634,None,,14,001,2025-12-23_13h01.22.048,2025C_exp1_detect,2022.2.4,59.96659860853848,
39.2,45,0,0,-1,1,0,58,58,295,248.28531629999634,248.28531629999634,248.7860035999911,248.85279729997274,248.9030619999976,248.9030619999976,248.9030619999976,248.9030619999976,248.95286800002214,248.95286800002214,248.95286800002214,248.95286800002214,248.95286800002214,248.95286800002214,248.95286800002214,248.95286800002214,248.95286800002214,248.95286800002214,num_3,1.8622054000152275,250.837776499975,250.837776499975,None,,14,001,2025-12-23_13h01.22.048,2025C_exp1_detect,2022.2.4,59.96659860853848,
19.6,45,0,1,1,1,0,59,59,398,250.837776499975,250.837776499975,251.33848590002162,251.40522189997137,251.4554858999909,251.4554858999909,251.4554858999909,251.4554858999909,251.50510070001474,251.50510070001474,251.50510070001474,251.50510070001474,251.50510070001474,251.50510070001474,251.50510070001474,251.50510070001474,251.50510070001474,251.50510070001474,num_3,1.3033273000037298,252.8398346999893,252.8398346999893,None,,14,001,2025-12-23_13h01.22.048,2025C_exp1_detect,2022.2.4,59.96659860853848,
19.6,315,1,0,1,1,0,60,60,389,252.8398346999893,252.8398346999893,253.34050599997863,253.40726439998252,253.45763219997752,253.45763219997752,253.45763219997752,253.45763219997752,253.50743599998532,253.50743599998532,253.50743599998532,253.50743599998532,253.50743599998532,253.50743599998532,253.50743599998532,253.50743599998532,253.50743599998532,253.50743599998532,num_3,0.7730589999700896,254.30792170000495,254.30792170000495,None,,14,001,2025-12-23_13h01.22.048,2025C_exp1_detect,2022.2.4,59.96659860853848,
35.3,45,1,0,1,1,0,61,61,384,254.30792170000495,254.30792170000495,254.8088063999894,254.87531079998007,254.925830400025,254.925830400025,254.925830400025,254.925830400025,254.97566789999837,254.97566789999837,254.97566789999837,254.97566789999837,254.97566789999837,254.97566789999837,254.97566789999837,254.97566789999837,254.97566789999837,254.97566789999837,num_3,3.3686948000104167,258.361914100009,258.361914100009,None,,14,001,2025-12-23_13h01.22.048,2025C_exp1_detect,2022.2.4,59.96659860853848,
22.7,315,1,1,-1,0,0,62,62,66,258.361914100009,258.361914100009,258.86265630001435,258.9293867999804,258.97966190002626,258.97966190002626,258.97966190002626,258.97966190002626,259.0295286999899,259.0295286999899,259.0295286999899,259.0295286999899,259.0295286999899,259.0295286999899,259.0295286999899,259.0295286999899,259.0295286999899,259.0295286999899,num_3,0.9856372000067495,260.0470158000244,260.0470158000244,None,,14,001,2025-12-23_13h01.22.048,2025C_exp1_detect,2022.2.4,59.96659860853848,
25.5,45,1,1,-1,0,0,63,63,58,260.0470158000244,260.0470158000244,260.5476810000255,260.6144127000007,260.66472699999576,260.66472699999576,260.66472699999576,260.66472699999576,260.7144454999943,260.7144454999943,260.7144454999943,260.7144454999943,260.7144454999943,260.7144454999943,260.7144454999943,260.7144454999943,260.7144454999943,260.7144454999943,num_3,1.9731629999587312,262.7162493999931,262.7162493999931,None,,14,001,2025-12-23_13h01.22.048,2025C_exp1_detect,2022.2.4,59.96659860853848,
25.5,315,0,0,-1,-1,0,64,64,157,262.7162493999931,262.7162493999931,263.2169427999761,263.283553700021,263.33402690000366,263.33402690000366,263.33402690000366,263.33402690000366,263.38390630000504,263.38390630000504,263.38390630000504,263.38390630000504,263.38390630000504,263.38390630000504,263.38390630000504,263.38390630000504,263.38390630000504,263.38390630000504,num_1,0.7202553999959491,264.13438459997997,264.13438459997997,None,,14,001,2025-12-23_13h01.22.048,2025C_exp1_detect,2022.2.4,59.96659860853848,
39.2,315,0,1,-1,0,0,65,65,52,264.13438459997997,264.13438459997997,264.63513030001195,264.701964900014,264.7521567000076,264.7521567000076,264.7521567000076,264.7521567000076,264.802031899977,264.802031899977,264.802031899977,264.802031899977,264.802031899977,264.802031899977,264.802031899977,264.802031899977,264.802031899977,264.802031899977,num_3,1.1582714999676682,265.9862417000113,265.9862417000113,None,,14,001,2025-12-23_13h01.22.048,2025C_exp1_detect,2022.2.4,59.96659860853848,
22.7,45,1,1,-1,1,0,66,66,345,265.9862417000113,265.9862417000113,266.4871005999739,266.55370470002526,266.6041158000007,266.6041158000007,266.6041158000007,266.6041158000007,266.65395060001174,266.65395060001174,266.65395060001174,266.65395060001174,266.65395060001174,266.65395060001174,266.65395060001174,266.65395060001174,266.65395060001174,266.65395060001174,num_3,2.5623435999732465,269.2394948999863,269.2394948999863,None,,14,001,2025-12-23_13h01.22.048,2025C_exp1_detect,2022.2.4,59.96659860853848,
39.2,315,1,0,-1,-1,0,67,67,178,269.2394948999863,269.2394948999863,269.74021100002574,269.8068675000104,269.8570366000058,269.8570366000058,269.8570366000058,269.8570366000058,269.90699629997835,269.90699629997835,269.90699629997835,269.90699629997835,269.90699629997835,269.90699629997835,269.90699629997835,269.90699629997835,269.90699629997835,269.90699629997835,num_1,0.8200555999646895,270.7576484999736,270.7576484999736,None,,14,001,2025-12-23_13h01.22.048,2025C_exp1_detect,2022.2.4,59.96659860853848,
22.7,315,1,1,1,-1,0,68,68,282,270.7576484999736,270.7576484999736,271.25806640001247,271.3247921000002,271.3750838999986,271.3750838999986,271.3750838999986,271.3750838999986,271.42499540001154,271.42499540001154,271.42499540001154,271.42499540001154,271.42499540001154,271.42499540001154,271.42499540001154,271.42499540001154,271.42499540001154,271.42499540001154,num_3,0.606010600051377,272.05891389999306,272.05891389999306,None,,14,001,2025-12-23_13h01.22.048,2025C_exp1_detect,2022.2.4,59.96659860853848,
25.5,315,1,1,1,-1,0,69,69,283,272.05891389999306,272.05891389999306,272.5594835000229,272.62638149998384,272.6768111999845,272.6768111999845,272.6768111999845,272.6768111999845,272.72674760001246,272.72674760001246,272.72674760001246,272.72674760001246,272.72674760001246,272.72674760001246,272.72674760001246,272.72674760001246,272.72674760001246,272.72674760001246,num_3,0.8164255000301637,273.560427599994,273.560427599994,None,,14,001,2025-12-23_13h01.22.048,2025C_exp1_detect,2022.2.4,59.96659860853848,
19.6,45,0,1,-1,1,0,70,70,326,273.560427599994,273.560427599994,274.06110509997234,274.1277724999818,274.1782346999971,274.1782346999971,274.1782346999971,274.1782346999971,274.22810780000873,274.22810780000873,274.22810780000873,274.22810780000873,274.22810780000873,274.22810780000873,274.22810780000873,274.22810780000873,274.22810780000873,274.22810780000873,num_3,0.995716099976562,275.2454917000141,275.2454917000141,None,,14,001,2025-12-23_13h01.22.048,2025C_exp1_detect,2022.2.4,59.96659860853848,
19.6,315,1,1,1,0,0,71,71,137,275.2454917000141,275.2454917000141,275.74626769998576,275.8129576999927,275.86318639997626,275.86318639997626,275.86318639997626,275.86318639997626,275.91313379997155,275.91313379997155,275.91313379997155,275.91313379997155,275.91313379997155,275.91313379997155,275.91313379997155,275.91313379997155,275.91313379997155,275.91313379997155,num_3,0.9658344999770634,276.8974944999791,276.8974944999791,None,,14,001,2025-12-23_13h01.22.048,2025C_exp1_detect,2022.2.4,59.96659860853848,
29.4,315,1,1,1,0,0,72,72,140,276.8974944999791,276.8974944999791,277.39790669997456,277.464630500006,277.51465279998956,277.51465279998956,277.51465279998956,277.51465279998956,277.5648940000101,277.5648940000101,277.5648940000101,277.5648940000101,277.5648940000101,277.5648940000101,277.5648940000101,277.5648940000101,277.5648940000101,277.5648940000101,num_3,1.5549029999529012,279.1494010000024,279.1494010000024,None,,14,001,2025-12-23_13h01.22.048,2025C_exp1_detect,2022.2.4,59.96659860853848,
15.7,315,0,1,1,0,0,73,73,118,279.1494010000024,279.1494010000024,279.6500935999793,279.71665519999806,279.76707629999146,279.76707629999146,279.76707629999146,279.76707629999146,279.8168815000099,279.8168815000099,279.8168815000099,279.8168815000099,279.8168815000099,279.8168815000099,279.8168815000099,279.8168815000099,279.8168815000099,279.8168815000099,num_1,0.7756667999783531,280.61760210001376,280.61760210001376,None,,14,001,2025-12-23_13h01.22.048,2025C_exp1_detect,2022.2.4,59.96659860853848,
29.4,315,1,1,-1,1,0,74,74,356,280.61760210001376,280.61760210001376,281.1183165999828,281.18502540001646,281.23523410002235,281.23523410002235,281.23523410002235,281.23523410002235,281.285155199992,281.285155199992,281.285155199992,281.285155199992,281.285155199992,281.285155199992,281.285155199992,281.285155199992,281.285155199992,281.285155199992,num_1,1.2900484999991022,282.6028414000175,282.6028414000175,None,,14,001,2025-12-23_13h01.22.048,2025C_exp1_detect,2022.2.4,59.96659860853848,
35.3,45,0,1,-1,-1,0,75,75,186,282.6028414000175,282.6028414000175,283.10357370000565,283.1703362999833,283.2206521999906,283.2206521999906,283.2206521999906,283.2206521999906,283.2703769999789,283.2703769999789,283.2703769999789,283.2703769999789,283.2703769999789,283.2703769999789,283.2703769999789,283.2703769999789,283.2703769999789,283.2703769999789,num_3,1.0173696000128984,284.304506400018,284.304506400018,None,,14,001,2025-12-23_13h01.22.048,2025C_exp1_detect,2022.2.4,59.96659860853848,
19.6,315,0,0,-1,-1,0,76,76,155,284.304506400018,284.304506400018,284.80523900000844,284.87197640002705,284.92225699999835,284.92225699999835,284.92225699999835,284.92225699999835,284.97201149998,284.97201149998,284.97201149998,284.97201149998,284.97201149998,284.97201149998,284.97201149998,284.97201149998,284.97201149998,284.97201149998,num_1,1.0277358000166714,286.02294420002727,286.02294420002727,None,,14,001,2025-12-23_13h01.22.048,2025C_exp1_detect,2022.2.4,59.96659860853848,
22.7,315,0,1,-1,0,0,77,77,48,286.02294420002727,286.02294420002727,286.5236849000212,286.5902327999938,286.64065489999484,286.64065489999484,286.64065489999484,286.64065489999484,286.69053520000307,286.69053520000307,286.69053520000307,286.69053520000307,286.69053520000307,286.69053520000307,286.69053520000307,286.69053520000307,286.69053520000307,286.69053520000307,num_1,2.1492615999886766,288.8591171000153,288.8591171000153,None,,14,001,2025-12-23_13h01.22.048,2025C_exp1_detect,2022.2.4,59.96659860853848,
19.6,45,0,0,-1,-1,0,78,78,146,288.8591171000153,288.8591171000153,289.3598103999975,289.4266615000088,289.4769740999909,289.4769740999909,289.4769740999909,289.4769740999909,289.5268348000245,289.5268348000245,289.5268348000245,289.5268348000245,289.5268348000245,289.5268348000245,289.5268348000245,289.5268348000245,289.5268348000245,289.5268348000245,num_3,0.5209008000092581,290.0768805000116,290.0768805000116,None,,14,001,2025-12-23_13h01.22.048,2025C_exp1_detect,2022.2.4,59.96659860853848,
19.6,315,1,1,1,1,0,79,79,425,290.0768805000116,290.0768805000116,290.5777035999927,290.6443752999767,290.69470799999544,290.69470799999544,290.69470799999544,290.69470799999544,290.744445600023,290.744445600023,290.744445600023,290.744445600023,290.744445600023,290.744445600023,290.744445600023,290.744445600023,290.744445600023,290.744445600023,num_3,1.0465880000265315,291.81229749997146,291.81229749997146,None,,14,001,2025-12-23_13h01.22.048,2025C_exp1_detect,2022.2.4,59.96659860853848,
12.1,315,1,1,1,1,0,80,80,423,291.81229749997146,291.81229749997146,292.3127681000042,292.379602800007,292.4298064999748,292.4298064999748,292.4298064999748,292.4298064999748,292.47970560000977,292.47970560000977,292.47970560000977,292.47970560000977,292.47970560000977,292.47970560000977,292.47970560000977,292.47970560000977,292.47970560000977,292.47970560000977,num_3,1.448748299968429,293.94749759999104,293.94749759999104,None,,14,001,2025-12-23_13h01.22.048,2025C_exp1_detect,2022.2.4,59.96659860853848,
15.7,45,0,1,-1,-1,0,81,81,181,293.94749759999104,293.94749759999104,294.44820210000034,294.5149402000243,294.5652569999802,294.5652569999802,294.5652569999802,294.5652569999802,294.61510280001676,294.61510280001676,294.61510280001676,294.61510280001676,294.61510280001676,294.61510280001676,294.61510280001676,294.61510280001676,294.61510280001676,294.61510280001676,num_3,0.9772685000207275,295.6160333000007,295.6160333000007,None,,14,001,2025-12-23_13h01.22.048,2025C_exp1_detect,2022.2.4,59.96659860853848,
19.6,315,1,0,1,0,0,82,82,101,295.6160333000007,295.6160333000007,296.1166203999892,296.18339540000306,296.2336243999889,296.2336243999889,296.2336243999889,296.2336243999889,296.2833089000196,296.2833089000196,296.2833089000196,296.2833089000196,296.2833089000196,296.2833089000196,296.2833089000196,296.2833089000196,296.2833089000196,296.2833089000196,num_3,0.9091609000461176,297.21738709998317,297.21738709998317,None,,14,001,2025-12-23_13h01.22.048,2025C_exp1_detect,2022.2.4,59.96659860853848,
22.7,315,1,0,-1,-1,0,83,83,174,297.21738709998317,297.21738709998317,297.7181619000039,297.7848662000033,297.8351755000185,297.8351755000185,297.8351755000185,297.8351755000185,297.8847903999849,297.8847903999849,297.8847903999849,297.8847903999849,297.8847903999849,297.8847903999849,297.8847903999849,297.8847903999849,297.8847903999849,297.8847903999849,num_1,0.9379975000047125,298.852399699972,298.852399699972,None,,14,001,2025-12-23_13h01.22.048,2025C_exp1_detect,2022.2.4,59.96659860853848,
39.2,315,1,1,-1,-1,0,84,84,214,298.852399699972,298.852399699972,299.35282700002426,299.419682000007,299.46991280000657,299.46991280000657,299.46991280000657,299.46991280000657,299.51969569997163,299.51969569997163,299.51969569997163,299.51969569997163,299.51969569997163,299.51969569997163,299.51969569997163,299.51969569997163,299.51969569997163,299.51969569997163,num_1,1.8159467999939807,301.3552136999788,301.3552136999788,None,,14,001,2025-12-23_13h01.22.048,2025C_exp1_detect,2022.2.4,59.96659860853848,
42.7,45,1,1,1,0,0,85,85,134,301.3552136999788,301.3552136999788,301.85561039997265,301.9222955000005,301.97244779998437,301.97244779998437,301.97244779998437,301.97244779998437,302.02241229999345,302.02241229999345,302.02241229999345,302.02241229999345,302.02241229999345,302.02241229999345,302.02241229999345,302.02241229999345,302.02241229999345,302.02241229999345,num_3,1.817165600019507,303.8573462999775,303.8573462999775,None,,14,001,2025-12-23_13h01.22.048,2025C_exp1_detect,2022.2.4,59.96659860853848,
25.5,315,1,1,-1,-1,0,86,86,211,303.8573462999775,303.8573462999775,304.3582925000228,304.42478110000957,304.4751667000237,304.4751667000237,304.4751667000237,304.4751667000237,304.5250359000056,304.5250359000056,304.5250359000056,304.5250359000056,304.5250359000056,304.5250359000056,304.5250359000056,304.5250359000056,304.5250359000056,304.5250359000056,num_3,2.666436000028625,307.21067679999396,307.21067679999396,None,,14,001,2025-12-23_13h01.22.048,2025C_exp1_detect,2022.2.4,59.96659860853848,
29.4,315,0,1,1,0,0,87,87,122,307.21067679999396,307.21067679999396,307.71133219997864,307.7781904999865,307.8283679999877,307.8283679999877,307.8283679999877,307.8283679999877,307.878355199995,307.878355199995,307.878355199995,307.878355199995,307.878355199995,307.878355199995,307.878355199995,307.878355199995,307.878355199995,307.878355199995,num_1,1.2415226000011899,309.1459433999844,309.1459433999844,None,,14,001,2025-12-23_13h01.22.048,2025C_exp1_detect,2022.2.4,59.96659860853848,
22.7,315,1,1,1,0,0,88,88,138,309.1459433999844,309.1459433999844,309.6467220999766,309.7134544000146,309.76376100000925,309.76376100000925,309.76376100000925,309.76376100000925,309.8135821999749,309.8135821999749,309.8135821999749,309.8135821999749,309.8135821999749,309.8135821999749,309.8135821999749,309.8135821999749,309.8135821999749,309.8135821999749,num_3,1.9699528000201099,311.8155386999715,311.8155386999715,None,,14,001,2025-12-23_13h01.22.048,2025C_exp1_detect,2022.2.4,59.96659860853848,
29.4,315,0,0,1,1,0,89,89,374,311.8155386999715,311.8155386999715,312.3160482000094,312.38270959997317,312.43309299997054,312.43309299997054,312.43309299997054,312.43309299997054,312.4829473000136,312.4829473000136,312.4829473000136,312.4829473000136,312.4829473000136,312.4829473000136,312.4829473000136,312.4829473000136,312.4829473000136,312.4829473000136,num_1,1.4613275000010617,313.9674998000264,313.9674998000264,None,,14,001,2025-12-23_13h01.22.048,2025C_exp1_detect,2022.2.4,59.96659860853848,
29.4,45,0,1,-1,0,0,90,90,41,313.9674998000264,313.9674998000264,314.4681752999895,314.53495280002244,314.5853810000117,314.5853810000117,314.5853810000117,314.5853810000117,314.6352736999979,314.6352736999979,314.6352736999979,314.6352736999979,314.6352736999979,314.6352736999979,314.6352736999979,314.6352736999979,314.6352736999979,314.6352736999979,num_3,0.9409612999879755,315.6025942999986,315.6025942999986,None,,14,001,2025-12-23_13h01.22.048,2025C_exp1_detect,2022.2.4,59.96659860853848,
42.7,45,0,0,-1,0,0,91,91,8,315.6025942999986,315.6025942999986,316.1032434999943,316.16993620002177,316.2200675000204,316.2200675000204,316.2200675000204,316.2200675000204,316.269848499971,316.269848499971,316.269848499971,316.269848499971,316.269848499971,316.269848499971,316.269848499971,316.269848499971,316.269848499971,316.269848499971,num_1,0.9616655999561772,317.2544265000033,317.2544265000033,None,,14,001,2025-12-23_13h01.22.048,2025C_exp1_detect,2022.2.4,59.96659860853848,
12.1,45,1,0,1,-1,0,92,92,234,317.2544265000033,317.2544265000033,317.7548668999807,317.8215491999872,317.87183149997145,317.87183149997145,317.87183149997145,317.87183149997145,317.92163270001765,317.92163270001765,317.92163270001765,317.92163270001765,317.92163270001765,317.92163270001765,317.92163270001765,317.92163270001765,317.92163270001765,317.92163270001765,num_3,1.3334613000042737,319.27274990000296,319.27274990000296,None,,14,001,2025-12-23_13h01.22.048,2025C_exp1_detect,2022.2.4,59.96659860853848,
19.6,315,0,0,-1,0,0,93,93,11,319.27274990000296,319.27274990000296,319.7735650999821,319.84014679997927,319.890439699986,319.890439699986,319.890439699986,319.890439699986,319.94029100000625,319.94029100000625,319.94029100000625,319.94029100000625,319.94029100000625,319.94029100000625,319.94029100000625,319.94029100000625,319.94029100000625,319.94029100000625,num_1,1.1637465999810956,321.12464130000444,321.12464130000444,None,,14,001,2025-12-23_13h01.22.048,2025C_exp1_detect,2022.2.4,59.96659860853848,
25.5,45,0,1,1,-1,0,94,94,256,321.12464130000444,321.12464130000444,321.62550959998043,321.69208140001865,321.742407999991,321.742407999991,321.742407999991,321.742407999991,321.7922491999925,321.7922491999925,321.7922491999925,321.7922491999925,321.7922491999925,321.7922491999925,321.7922491999925,321.7922491999925,321.7922491999925,321.7922491999925,num_1,1.655006000015419,323.4769365999964,323.4769365999964,None,,14,001,2025-12-23_13h01.22.048,2025C_exp1_detect,2022.2.4,59.96659860853848,
29.4,45,0,1,1,-1,0,95,95,257,323.4769365999964,323.4769365999964,323.97771970002213,324.04444520000834,324.0947689000168,324.0947689000168,324.0947689000168,324.0947689000168,324.14462169999024,324.14462169999024,324.14462169999024,324.14462169999024,324.14462169999024,324.14462169999024,324.14462169999024,324.14462169999024,324.14462169999024,324.14462169999024,num_1,0.9108463000156917,325.07868350000354,325.07868350000354,None,,14,001,2025-12-23_13h01.22.048,2025C_exp1_detect,2022.2.4,59.96659860853848,
19.6,315,0,1,1,-1,0,96,96,263,325.07868350000354,325.07868350000354,325.5795601999853,325.64600870001595,325.69636070000706,325.69636070000706,325.69636070000706,325.69636070000706,325.7460538999876,325.7460538999876,325.7460538999876,325.7460538999876,325.7460538999876,325.7460538999876,325.7460538999876,325.7460538999876,325.7460538999876,325.7460538999876,num_3,2.3423292000079527,328.11533100000815,328.11533100000815,None,,14,001,2025-12-23_13h01.22.048,2025C_exp1_detect,2022.2.4,59.96659860853848,
15.7,315,0,1,-1,1,0,97,97,334,328.11533100000815,328.11533100000815,328.6155754000065,328.68212900002254,328.7327117000241,328.7327117000241,328.7327117000241,328.7327117000241,328.78258509997977,328.78258509997977,328.78258509997977,328.78258509997977,328.78258509997977,328.78258509997977,328.78258509997977,328.78258509997977,328.78258509997977,328.78258509997977,num_3,4.705387599999085,333.52030500001274,333.52030500001274,None,,14,001,2025-12-23_13h01.22.048,2025C_exp1_detect,2022.2.4,59.96659860853848,
35.3,315,0,0,-1,0,0,98,98,15,333.52030500001274,333.52030500001274,334.02105939999456,334.0878320999909,334.13806680002017,334.13806680002017,334.13806680002017,334.13806680002017,334.1879791999818,334.1879791999818,334.1879791999818,334.1879791999818,334.1879791999818,334.1879791999818,334.1879791999818,334.1879791999818,334.1879791999818,334.1879791999818,num_1,0.7870791999739595,335.00538659997983,335.00538659997983,None,,14,001,2025-12-23_13h01.22.048,2025C_exp1_detect,2022.2.4,59.96659860853848,
19.6,45,0,0,1,1,0,99,99,362,335.00538659997983,335.00538659997983,335.5058821999701,335.5726160000195,335.6228279999923,335.6228279999923,335.6228279999923,335.6228279999923,335.6728055999847,335.6728055999847,335.6728055999847,335.6728055999847,335.6728055999847,335.6728055999847,335.6728055999847,335.6728055999847,335.6728055999847,335.6728055999847,num_3,1.29414979997091,336.990413099993,336.990413099993,None,,14,001,2025-12-23_13h01.22.048,2025C_exp1_detect,2022.2.4,59.96659860853848,
19.6,315,0,1,-1,0,0,100,100,47,336.990413099993,336.990413099993,337.49121399997966,337.5579624000238,337.6083054000046,337.6083054000046,337.6083054000046,337.6083054000046,337.65815380000276,337.65815380000276,337.65815380000276,337.65815380000276,337.65815380000276,337.65815380000276,337.65815380000276,337.65815380000276,337.65815380000276,337.65815380000276,num_3,1.293851199967321,338.97614009998506,338.97614009998506,None,,14,001,2025-12-23_13h01.22.048,2025C_exp1_detect,2022.2.4,59.96659860853848,
25.5,45,1,0,1,1,0,101,101,382,338.97614009998506,338.97614009998506,339.47683070000494,339.5433907000115,339.59379309997894,339.59379309997894,339.59379309997894,339.59379309997894,339.64372160000494,339.64372160000494,339.64372160000494,339.64372160000494,339.64372160000494,339.64372160000494,339.64372160000494,339.64372160000494,339.64372160000494,339.64372160000494,num_3,1.5078476999769919,341.17793629999505,341.17793629999505,None,,14,001,2025-12-23_13h01.22.048,2025C_exp1_detect,2022.2.4,59.96659860853848,
19.6,45,1,1,-1,1,0,102,102,344,341.17793629999505,341.17793629999505,341.6788678999874,341.74557119997917,341.7957765000174,341.7957765000174,341.7957765000174,341.7957765000174,341.8456272999756,341.8456272999756,341.8456272999756,341.8456272999756,341.8456272999756,341.8456272999756,341.8456272999756,341.8456272999756,341.8456272999756,341.8456272999756,num_3,1.8824760999996215,343.74737150000874,343.74737150000874,None,,14,001,2025-12-23_13h01.22.048,2025C_exp1_detect,2022.2.4,59.96659860853848,
15.7,45,0,0,-1,-1,0,103,103,145,343.74737150000874,343.74737150000874,344.2479545000242,344.314666100021,344.3648848999874,344.3648848999874,344.3648848999874,344.3648848999874,344.4147260999889,344.4147260999889,344.4147260999889,344.4147260999889,344.4147260999889,344.4147260999889,344.4147260999889,344.4147260999889,344.4147260999889,344.4147260999889,num_1,0.6977734999964014,345.1322037000209,345.1322037000209,None,,14,001,2025-12-23_13h01.22.048,2025C_exp1_detect,2022.2.4,59.96659860853848,
29.4,45,1,1,1,-1,0,104,104,275,345.1322037000209,345.1322037000209,345.6327600000077,345.6993222999736,345.74974499997916,345.74974499997916,345.74974499997916,345.74974499997916,345.79961480002385,345.79961480002385,345.79961480002385,345.79961480002385,345.79961480002385,345.79961480002385,345.79961480002385,345.79961480002385,345.79961480002385,345.79961480002385,num_3,0.7047258000238799,346.5335932999733,346.5335932999733,None,,14,001,2025-12-23_13h01.22.048,2025C_exp1_detect,2022.2.4,59.96659860853848,
19.6,315,0,1,-1,-1,0,105,105,191,346.5335932999733,346.5335932999733,347.03414449997945,347.10077040002216,347.15104299999075,347.15104299999075,347.15104299999075,347.15104299999075,347.2010689000017,347.2010689000017,347.2010689000017,347.2010689000017,347.2010689000017,347.2010689000017,347.2010689000017,347.2010689000017,347.2010689000017,347.2010689000017,num_1,3.5670474999933504,350.78751519997604,350.78751519997604,None,,14,001,2025-12-23_13h01.22.048,2025C_exp1_detect,2022.2.4,59.96659860853848,
35.3,315,1,1,1,0,0,106,106,141,350.78751519997604,350.78751519997604,351.2883226000122,351.35504430002766,351.4054873000132,351.4054873000132,351.4054873000132,351.4054873000132,351.45509329997003,351.45509329997003,351.45509329997003,351.45509329997003,351.45509329997003,351.45509329997003,351.45509329997003,351.45509329997003,351.45509329997003,351.45509329997003,num_3,1.3452587999636307,352.8229303000262,352.8229303000262,None,,14,001,2025-12-23_13h01.22.048,2025C_exp1_detect,2022.2.4,59.96659860853848,
42.7,315,0,0,-1,-1,0,107,107,161,352.8229303000262,352.8229303000262,353.3236750999931,353.3904056000174,353.44056189997355,353.44056189997355,353.44056189997355,353.44056189997355,353.49042990000453,353.49042990000453,353.49042990000453,353.49042990000453,353.49042990000453,353.49042990000453,353.49042990000453,353.49042990000453,353.49042990000453,353.49042990000453,num_1,1.5327315999893472,355.0418411999708,355.0418411999708,space,34.42913820000831,14,001,2025-12-23_13h01.22.048,2025C_exp1_detect,2022.2.4,59.96659860853848,
25.5,315,0,0,1,1,0,108,108,373,389.49298759998055,389.49298759998055,389.99367759999586,390.06043419998605,390.1108631999814,390.1108631999814,390.1108631999814,390.1108631999814,390.1605584999779,390.1605584999779,390.1605584999779,390.1605584999779,390.1605584999779,390.1605584999779,390.1605584999779,390.1605584999779,390.1605584999779,390.1605584999779,num_1,1.734560600016266,391.91221169999335,391.91221169999335,None,,14,001,2025-12-23_13h01.22.048,2025C_exp1_detect,2022.2.4,59.96659860853848,
39.2,315,0,1,1,-1,0,109,109,268,391.91221169999335,391.91221169999335,392.4126469999901,392.47947690001456,392.5297929000226,392.5297929000226,392.5297929000226,392.5297929000226,392.57964670000365,392.57964670000365,392.57964670000365,392.57964670000365,392.57964670000365,392.57964670000365,392.57964670000365,392.57964670000365,392.57964670000365,392.57964670000365,num_1,2.2683792000170797,394.86529869999504,394.86529869999504,None,,14,001,2025-12-23_13h01.22.048,2025C_exp1_detect,2022.2.4,59.96659860853848,
19.6,315,1,1,1,-1,0,110,110,281,394.86529869999504,394.86529869999504,395.3658190999995,395.4324091000017,395.48271150002256,395.48271150002256,395.48271150002256,395.48271150002256,395.5326939999941,395.5326939999941,395.5326939999941,395.5326939999941,395.5326939999941,395.5326939999941,395.5326939999941,395.5326939999941,395.5326939999941,395.5326939999941,num_3,0.7553491999860853,396.316644800012,396.316644800012,None,,14,001,2025-12-23_13h01.22.048,2025C_exp1_detect,2022.2.4,59.96659860853848,
42.7,45,0,1,-1,-1,0,111,111,188,396.316644800012,396.316644800012,396.817121399974,396.88387030002195,396.9341612000135,396.9341612000135,396.9341612000135,396.9341612000135,396.9840247000102,396.9840247000102,396.9840247000102,396.9840247000102,396.9840247000102,396.9840247000102,396.9840247000102,396.9840247000102,396.9840247000102,396.9840247000102,num_3,1.383749600034207,398.3854035999975,398.3854035999975,None,,14,001,2025-12-23_13h01.22.048,2025C_exp1_detect,2022.2.4,59.96659860853848,
39.2,45,0,0,1,-1,0,112,112,223,398.3854035999975,398.3854035999975,398.88575379998656,398.95261259999825,399.00291550002294,399.00291550002294,399.00291550002294,399.00291550002294,399.05276250001043,399.05276250001043,399.05276250001043,399.05276250001043,399.05276250001043,399.05276250001043,399.05276250001043,399.05276250001043,399.05276250001043,399.05276250001043,num_3,1.7541311999666505,400.8378378999769,400.8378378999769,None,,14,001,2025-12-23_13h01.22.048,2025C_exp1_detect,2022.2.4,59.96659860853848,
39.2,45,1,0,1,1,0,113,113,385,400.8378378999769,400.8378378999769,401.3382767000003,401.4050952999969,401.4551417999901,401.4551417999901,401.4551417999901,401.4551417999901,401.5049829999916,401.5049829999916,401.5049829999916,401.5049829999916,401.5049829999916,401.5049829999916,401.5049829999916,401.5049829999916,401.5049829999916,401.5049829999916,num_3,1.261988600017503,402.7897928999737,402.7897928999737,None,,14,001,2025-12-23_13h01.22.048,2025C_exp1_detect,2022.2.4,59.96659860853848,
39.2,45,1,0,-1,-1,0,114,114,169,402.7897928999737,402.7897928999737,403.29020260000834,403.3568998000119,403.4073126000003,403.4073126000003,403.4073126000003,403.4073126000003,403.457186500018,403.457186500018,403.457186500018,403.457186500018,403.457186500018,403.457186500018,403.457186500018,403.457186500018,403.457186500018,403.457186500018,num_1,0.9022125999908894,404.3912176999729,404.3912176999729,None,,14,001,2025-12-23_13h01.22.048,2025C_exp1_detect,2022.2.4,59.96659860853848,
22.7,315,0,0,-1,-1,0,115,115,156,404.3912176999729,404.3912176999729,404.89192879997427,404.9585890999879,405.0088694000151,405.0088694000151,405.0088694000151,405.0088694000151,405.058821899991,405.058821899991,405.058821899991,405.058821899991,405.058821899991,405.058821899991,405.058821899991,405.058821899991,405.058821899991,405.058821899991,num_1,1.2121907999971882,406.2931340999785,406.2931340999785,None,,14,001,2025-12-23_13h01.22.048,2025C_exp1_detect,2022.2.4,59.96659860853848,
42.7,45,0,0,-1,-1,0,116,116,152,406.2931340999785,406.2931340999785,406.7937811000156,406.8604753999971,406.910788499983,406.910788499983,406.910788499983,406.910788499983,406.9606517999782,406.9606517999782,406.9606517999782,406.9606517999782,406.9606517999782,406.9606517999782,406.9606517999782,406.9606517999782,406.9606517999782,406.9606517999782,num_1,1.894940400030464,408.8790292000049,408.8790292000049,None,,14,001,2025-12-23_13h01.22.048,2025C_exp1_detect,2022.2.4,59.96659860853848,
35.3,315,1,0,-1,0,0,117,117,33,408.8790292000049,408.8790292000049,409.3797119000228,409.44643339997856,409.49675079999724,409.49675079999724,409.49675079999724,409.49675079999724,409.54662310000276,409.54662310000276,409.54662310000276,409.54662310000276,409.54662310000276,409.54662310000276,409.54662310000276,409.54662310000276,409.54662310000276,409.54662310000276,num_1,0.8371968999854289,410.4138939999975,410.4138939999975,None,,14,001,2025-12-23_13h01.22.048,2025C_exp1_detect,2022.2.4,59.96659860853848,
12.1,45,1,0,-1,1,0,118,118,306,410.4138939999975,410.4138939999975,410.9145610000123,410.9811939999927,411.0316335000098,411.0316335000098,411.0316335000098,411.0316335000098,411.08145649998914,411.08145649998914,411.08145649998914,411.08145649998914,411.08145649998914,411.08145649998914,411.08145649998914,411.08145649998914,411.08145649998914,411.08145649998914,num_1,2.926708700018935,414.03430900000967,414.03430900000967,None,,14,001,2025-12-23_13h01.22.048,2025C_exp1_detect,2022.2.4,59.96659860853848,
39.2,45,1,1,1,-1,0,119,119,277,414.03430900000967,414.03430900000967,414.53496339998674,414.6016570000211,414.65193410002394,414.65193410002394,414.65193410002394,414.65193410002394,414.7014438000042,414.7014438000042,414.7014438000042,414.7014438000042,414.7014438000042,414.7014438000042,414.7014438000042,414.7014438000042,414.7014438000042,414.7014438000042,num_3,1.3695263999979943,416.10304929997073,416.10304929997073,None,,14,001,2025-12-23_13h01.22.048,2025C_exp1_detect,2022.2.4,59.96659860853848,
25.5,45,0,1,-1,0,0,120,120,40,416.10304929997073,416.10304929997073,416.60360660002334,416.6704284999869,416.7207045999821,416.7207045999821,416.7207045999821,416.7207045999821,416.77060230000643,416.77060230000643,416.77060230000643,416.77060230000643,416.77060230000643,416.77060230000643,416.77060230000643,416.77060230000643,416.77060230000643,416.77060230000643,num_3,1.2520920999813825,418.05472979997285,418.05472979997285,None,,14,001,2025-12-23_13h01.22.048,2025C_exp1_detect,2022.2.4,59.96659860853848,
29.4,315,1,1,-1,0,0,121,121,68,418.05472979997285,418.05472979997285,418.5557267999975,418.6222626999952,418.6726387999952,418.6726387999952,418.6726387999952,418.6726387999952,418.72236870002234,418.72236870002234,418.72236870002234,418.72236870002234,418.72236870002234,418.72236870002234,418.72236870002234,418.72236870002234,418.72236870002234,418.72236870002234,num_1,1.6295059999683872,420.3738530999981,420.3738530999981,None,,14,001,2025-12-23_13h01.22.048,2025C_exp1_detect,2022.2.4,59.96659860853848,
35.3,315,1,1,-1,-1,0,122,122,213,420.3738530999981,420.3738530999981,420.8743309000274,420.9412094000145,420.9914711000165,420.9914711000165,420.9914711000165,420.9914711000165,421.0414182000095,421.0414182000095,421.0414182000095,421.0414182000095,421.0414182000095,421.0414182000095,421.0414182000095,421.0414182000095,421.0414182000095,421.0414182000095,num_1,4.678331899980549,425.7459041000111,425.7459041000111,None,,14,001,2025-12-23_13h01.22.048,2025C_exp1_detect,2022.2.4,59.96659860853848,
42.7,45,0,1,-1,0,0,123,123,44,425.7459041000111,425.7459041000111,426.2465088000172,426.31302459997823,426.36328679998405,426.36328679998405,426.36328679998405,426.36328679998405,426.4134219000116,426.4134219000116,426.4134219000116,426.4134219000116,426.4134219000116,426.4134219000116,426.4134219000116,426.4134219000116,426.4134219000116,426.4134219000116,num_3,1.4735823000082746,427.9148283000104,427.9148283000104,None,,14,001,2025-12-23_13h01.22.048,2025C_exp1_detect,2022.2.4,59.96659860853848,
22.7,45,0,0,-1,0,0,124,124,3,427.9148283000104,427.9148283000104,428.41509680001764,428.48210660001496,428.53237269999227,428.53237269999227,428.53237269999227,428.53237269999227,428.5822435999871,428.5822435999871,428.5822435999871,428.5822435999871,428.5822435999871,428.5822435999871,428.5822435999871,428.5822435999871,428.5822435999871,428.5822435999871,num_3,1.7448847999912687,430.35047599999234,430.35047599999234,None,,14,001,2025-12-23_13h01.22.048,2025C_exp1_detect,2022.2.4,59.96659860853848,
25.5,315,1,0,-1,1,0,125,125,319,430.35047599999234,430.35047599999234,430.8511291000177,430.9178377999924,430.96832450001966,430.96832450001966,430.96832450001966,430.96832450001966,431.0178503000061,431.0178503000061,431.0178503000061,431.0178503000061,431.0178503000061,431.0178503000061,431.0178503000061,431.0178503000061,431.0178503000061,431.0178503000061,num_3,1.2692467999877408,432.3191240999731,432.3191240999731,None,,14,001,2025-12-23_13h01.22.048,2025C_exp1_detect,2022.2.4,59.96659860853848,
19.6,45,0,1,-1,-1,0,126,126,182,432.3191240999731,432.3191240999731,432.8198286999832,432.8864310000208,432.9368420999963,432.9368420999963,432.9368420999963,432.9368420999963,432.9865545000066,432.9865545000066,432.9865545000066,432.9865545000066,432.9865545000066,432.9865545000066,432.9865545000066,432.9865545000066,432.9865545000066,432.9865545000066,num_1,1.1255618000286631,434.13763840001775,434.13763840001775,None,,14,001,2025-12-23_13h01.22.048,2025C_exp1_detect,2022.2.4,59.96659860853848,
29.4,315,1,1,1,1,0,127,127,428,434.13763840001775,434.13763840001775,434.63803710002685,434.705199500022,434.7555142000201,434.7555142000201,434.7555142000201,434.7555142000201,434.8054018000257,434.8054018000257,434.8054018000257,434.8054018000257,434.8054018000257,434.8054018000257,434.8054018000257,434.8054018000257,434.8054018000257,434.8054018000257,num_3,3.6740864000166766,438.5087650999776,438.5087650999776,None,,14,001,2025-12-23_13h01.22.048,2025C_exp1_detect,2022.2.4,59.96659860853848,
29.4,315,1,1,1,-1,0,128,128,284,438.5087650999776,438.5087650999776,439.0091779999784,439.07610780000687,439.12639699998545,439.12639699998545,439.12639699998545,439.12639699998545,439.176169399987,439.176169399987,439.176169399987,439.176169399987,439.176169399987,439.176169399987,439.176169399987,439.176169399987,439.176169399987,439.176169399987,num_3,1.5831966999685392,440.7775370000163,440.7775370000163,None,,14,001,2025-12-23_13h01.22.048,2025C_exp1_detect,2022.2.4,59.96659860853848,
35.3,45,0,0,1,-1,0,129,129,222,440.7775370000163,440.7775370000163,441.2784433999914,441.3451713999966,441.39545090001775,441.39545090001775,441.39545090001775,441.39545090001775,441.4453912000172,441.4453912000172,441.4453912000172,441.4453912000172,441.4453912000172,441.4453912000172,441.4453912000172,441.4453912000172,441.4453912000172,441.4453912000172,num_3,3.4736483999877237,444.94851720001316,444.94851720001316,None,,14,001,2025-12-23_13h01.22.048,2025C_exp1_detect,2022.2.4,59.96659860853848,
25.5,315,1,1,1,0,0,130,130,139,444.94851720001316,444.94851720001316,445.4491062000161,445.51571050001075,445.5660477000056,445.5660477000056,445.5660477000056,445.5660477000056,445.6159326999914,445.6159326999914,445.6159326999914,445.6159326999914,445.6159326999914,445.6159326999914,445.6159326999914,445.6159326999914,445.6159326999914,445.6159326999914,num_3,1.0722382999956608,446.7168562000152,446.7168562000152,None,,14,001,2025-12-23_13h01.22.048,2025C_exp1_detect,2022.2.4,59.96659860853848,
15.7,45,0,0,1,0,0,131,131,73,446.7168562000152,446.7168562000152,447.21734989999095,447.2842146999901,447.33451329998206,447.33451329998206,447.33451329998206,447.33451329998206,447.38438459997997,447.38438459997997,447.38438459997997,447.38438459997997,447.38438459997997,447.38438459997997,447.38438459997997,447.38438459997997,447.38438459997997,447.38438459997997,num_1,1.1904373999568634,448.6021837000153,448.6021837000153,None,,14,001,2025-12-23_13h01.22.048,2025C_exp1_detect,2022.2.4,59.96659860853848,
25.5,315,0,1,1,1,0,132,132,409,448.6021837000153,448.6021837000153,449.1027048000251,449.16921050002566,449.2194531999994,449.2194531999994,449.2194531999994,449.2194531999994,449.26980249996996,449.26980249996996,449.26980249996996,449.26980249996996,449.26980249996996,449.26980249996996,449.26980249996996,449.26980249996996,449.26980249996996,449.26980249996996,num_1,1.8089753000531346,451.10435560002225,451.10435560002225,None,,14,001,2025-12-23_13h01.22.048,2025C_exp1_detect,2022.2.4,59.96659860853848,
22.7,315,1,0,1,1,0,133,133,390,451.10435560002225,451.10435560002225,451.6052360999747,451.6718173000263,451.7221892999951,451.7221892999951,451.7221892999951,451.7221892999951,451.77211989997886,451.77211989997886,451.77211989997886,451.77211989997886,451.77211989997886,451.77211989997886,451.77211989997886,451.77211989997886,451.77211989997886,451.77211989997886,num_3,2.474838100024499,454.2744703000062,454.2744703000062,None,,14,001,2025-12-23_13h01.22.048,2025C_exp1_detect,2022.2.4,59.96659860853848,
29.4,45,1,1,-1,0,0,134,134,59,454.2744703000062,454.2744703000062,454.7750610000221,454.841725700011,454.8920517999795,454.8920517999795,454.8920517999795,454.8920517999795,454.94196470000315,454.94196470000315,454.94196470000315,454.94196470000315,454.94196470000315,454.94196470000315,454.94196470000315,454.94196470000315,454.94196470000315,454.94196470000315,num_1,3.017883700027596,457.9782488999772,457.9782488999772,None,,14,001,2025-12-23_13h01.22.048,2025C_exp1_detect,2022.2.4,59.96659860853848,
12.1,45,0,0,1,-1,0,135,135,216,457.9782488999772,457.9782488999772,458.478755499993,458.5454658999806,458.5957951999735,458.5957951999735,458.5957951999735,458.5957951999735,458.64553079998586,458.64553079998586,458.64553079998586,458.64553079998586,458.64553079998586,458.64553079998586,458.64553079998586,458.64553079998586,458.64553079998586,458.64553079998586,num_3,1.2659661999787204,459.9302026000223,459.9302026000223,None,,14,001,2025-12-23_13h01.22.048,2025C_exp1_detect,2022.2.4,59.96659860853848,
35.3,315,1,0,-1,-1,0,136,136,177,459.9302026000223,459.9302026000223,460.4306649999926,460.49744469998404,460.54777469998226,460.54777469998226,460.54777469998226,460.54777469998226,460.5974731000024,460.5974731000024,460.5974731000024,460.5974731000024,460.5974731000024,460.5974731000024,460.5974731000024,460.5974731000024,460.5974731000024,460.5974731000024,num_1,1.0743435999611393,461.6983398000011,461.6983398000011,None,,14,001,2025-12-23_13h01.22.048,2025C_exp1_detect,2022.2.4,59.96659860853848,
39.2,45,0,1,1,1,0,137,137,403,461.6983398000011,461.6983398000011,462.19918090000283,462.26582700002473,462.3161322000087,462.3161322000087,462.3161322000087,462.3161322000087,462.3659516000189,462.3659516000189,462.3659516000189,462.3659516000189,462.3659516000189,462.3659516000189,462.3659516000189,462.3659516000189,462.3659516000189,462.3659516000189,num_1,0.769379300007131,463.1667615000042,463.1667615000042,None,,14,001,2025-12-23_13h01.22.048,2025C_exp1_detect,2022.2.4,59.96659860853848,
22.7,315,0,0,-1,0,0,138,138,12,463.1667615000042,463.1667615000042,463.66734119999455,463.7337773999898,463.7840282000252,463.7840282000252,463.7840282000252,463.7840282000252,463.83415160002187,463.83415160002187,463.83415160002187,463.83415160002187,463.83415160002187,463.83415160002187,463.83415160002187,463.83415160002187,463.83415160002187,463.83415160002187,num_3,2.6211503999656998,466.48684650001815,466.48684650001815,None,,14,001,2025-12-23_13h01.22.048,2025C_exp1_detect,2022.2.4,59.96659860853848,
39.2,45,1,0,-1,1,0,139,139,313,466.48684650001815,466.48684650001815,466.9872368000215,467.0539348999737,467.10423300002003,467.10423300002003,467.10423300002003,467.10423300002003,467.1541349000181,467.1541349000181,467.1541349000181,467.1541349000181,467.1541349000181,467.1541349000181,467.1541349000181,467.1541349000181,467.1541349000181,467.1541349000181,num_1,1.2530351000023074,468.4387010000064,468.4387010000064,None,,14,001,2025-12-23_13h01.22.048,2025C_exp1_detect,2022.2.4,59.96659860853848,
25.5,45,1,0,-1,1,0,140,140,310,468.4387010000064,468.4387010000064,468.93916920002084,469.00576560001355,469.0558965000091,469.0558965000091,469.0558965000091,469.0558965000091,469.1060667000129,469.1060667000129,469.1060667000129,469.1060667000129,469.1060667000129,469.1060667000129,469.1060667000129,469.1060667000129,469.1060667000129,469.1060667000129,num_1,1.4054106999537908,470.5407703000237,470.5407703000237,None,,14,001,2025-12-23_13h01.22.048,2025C_exp1_detect,2022.2.4,59.96659860853848,
15.7,45,1,1,-1,-1,0,141,141,199,470.5407703000237,470.5407703000237,471.041160200024,471.10799350001616,471.1582902999944,471.1582902999944,471.1582902999944,471.1582902999944,471.2080343000125,471.2080343000125,471.2080343000125,471.2080343000125,471.2080343000125,471.2080343000125,471.2080343000125,471.2080343000125,471.2080343000125,471.2080343000125,num_1,2.392152599990368,473.6272133999737,473.6272133999737,None,,14,001,2025-12-23_13h01.22.048,2025C_exp1_detect,2022.2.4,59.96659860853848,
15.7,315,0,0,1,1,0,142,142,370,473.6272133999737,473.6272133999737,474.12760190002155,474.19419700000435,474.244705500023,474.244705500023,474.244705500023,474.244705500023,474.2945765000186,474.2945765000186,474.2945765000186,474.2945765000186,474.2945765000186,474.2945765000186,474.2945765000186,474.2945765000186,474.2945765000186,474.2945765000186,num_3,3.249269900028594,477.5643865999882,477.5643865999882,None,,14,001,2025-12-23_13h01.22.048,2025C_exp1_detect,2022.2.4,59.96659860853848,
25.5,45,1,1,-1,1,0,143,143,346,477.5643865999882,477.5643865999882,478.06496139999945,478.13176120002754,478.182111800008,478.182111800008,478.182111800008,478.182111800008,478.2319957999862,478.2319957999862,478.2319957999862,478.2319957999862,478.2319957999862,478.2319957999862,478.2319957999862,478.2319957999862,478.2319957999862,478.2319957999862,num_1,1.8630489999777637,480.1170584000065,480.1170584000065,None,,14,001,2025-12-23_13h01.22.048,2025C_exp1_detect,2022.2.4,59.96659860853848,
39.2,45,1,1,-1,1,0,144,144,349,480.1170584000065,480.1170584000065,480.6175048999721,480.6842237000237,480.7345562999835,480.7345562999835,480.7345562999835,480.7345562999835,480.78439420001814,480.78439420001814,480.78439420001814,480.78439420001814,480.78439420001814,480.78439420001814,480.78439420001814,480.78439420001814,480.78439420001814,480.78439420001814,num_1,2.423177700024098,483.2365092000109,483.2365092000109,None,,14,001,2025-12-23_13h01.22.048,2025C_exp1_detect,2022.2.4,59.96659860853848,
15.7,315,1,1,-1,-1,0,145,145,208,483.2365092000109,483.2365092000109,483.7373093999922,483.8040369999944,483.8543236000114,483.8543236000114,483.8543236000114,483.8543236000114,483.90418579999823,483.90418579999823,483.90418579999823,483.90418579999823,483.90418579999823,483.90418579999823,483.90418579999823,483.90418579999823,483.90418579999823,483.90418579999823,num_1,1.14401440002257,485.0718622999848,485.0718622999848,None,,14,001,2025-12-23_13h01.22.048,2025C_exp1_detect,2022.2.4,59.96659860853848,
15.7,315,1,1,1,0,0,146,146,136,485.0718622999848,485.0718622999848,485.57239330001175,485.6392289000214,485.68944390001707,485.68944390001707,485.68944390001707,485.68944390001707,485.7393061000039,485.7393061000039,485.7393061000039,485.7393061000039,485.7393061000039,485.7393061000039,485.7393061000039,485.7393061000039,485.7393061000039,485.7393061000039,num_3,1.3808432999649085,487.14069580001524,487.14069580001524,None,,14,001,2025-12-23_13h01.22.048,2025C_exp1_detect,2022.2.4,59.96659860853848,
39.2,45,0,1,-1,-1,0,147,147,187,487.14069580001524,487.14069580001524,487.64119920000667,487.70798920001835,487.75821030000225,487.75821030000225,487.75821030000225,487.75821030000225,487.8080691000214,487.8080691000214,487.8080691000214,487.8080691000214,487.8080691000214,487.8080691000214,487.8080691000214,487.8080691000214,487.8080691000214,487.8080691000214,num_3,3.463413799996488,491.2947083999752,491.2947083999752,None,,14,001,2025-12-23_13h01.22.048,2025C_exp1_detect,2022.2.4,59.96659860853848,
22.7,45,0,1,1,1,0,148,148,399,491.2947083999752,491.2947083999752,491.7954886999796,491.86211709998315,491.91238870000234,491.91238870000234,491.91238870000234,491.91238870000234,491.9623305000132,491.9623305000132,491.9623305000132,491.9623305000132,491.9623305000132,491.9623305000132,491.9623305000132,491.9623305000132,491.9623305000132,491.9623305000132,num_1,1.1334773999988101,493.1133492999943,493.1133492999943,None,,14,001,2025-12-23_13h01.22.048,2025C_exp1_detect,2022.2.4,59.96659860853848,
15.7,45,1,1,1,1,0,149,149,415,493.1133492999943,493.1133492999943,493.6139355999767,493.68068529997254,493.7310131000122,493.7310131000122,493.7310131000122,493.7310131000122,493.7807373999967,493.7807373999967,493.7807373999967,493.7807373999967,493.7807373999967,493.7807373999967,493.7807373999967,493.7807373999967,493.7807373999967,493.7807373999967,num_3,1.8503234999952838,495.6492258000071,495.6492258000071,None,,14,001,2025-12-23_13h01.22.048,2025C_exp1_detect,2022.2.4,59.96659860853848,
35.3,45,1,1,-1,1,0,150,150,348,495.6492258000071,495.6492258000071,496.1497234000126,496.21638250001706,496.26662230002694,496.26662230002694,496.26662230002694,496.26662230002694,496.31654319999507,496.31654319999507,496.31654319999507,496.31654319999507,496.31654319999507,496.31654319999507,496.31654319999507,496.31654319999507,496.31654319999507,496.31654319999507,num_1,0.8905327999964356,497.2340270000277,497.2340270000277,None,,14,001,2025-12-23_13h01.22.048,2025C_exp1_detect,2022.2.4,59.96659860853848,
39.2,45,0,0,1,0,0,151,151,79,497.2340270000277,497.2340270000277,497.7346003999701,497.8013399000047,497.8516607999918,497.8516607999918,497.8516607999918,497.8516607999918,497.9014214000199,497.9014214000199,497.9014214000199,497.9014214000199,497.9014214000199,497.9014214000199,497.9014214000199,497.9014214000199,497.9014214000199,497.9014214000199,num_3,0.9935758999781683,498.9191357999807,498.9191357999807,None,,14,001,2025-12-23_13h01.22.048,2025C_exp1_detect,2022.2.4,59.96659860853848,
42.7,315,0,1,-1,0,0,152,152,53,498.9191357999807,498.9191357999807,499.41961749998154,499.48631950002164,499.5364017999964,499.5364017999964,499.5364017999964,499.5364017999964,499.58648529998027,499.58648529998027,499.58648529998027,499.58648529998027,499.58648529998027,499.58648529998027,499.58648529998027,499.58648529998027,499.58648529998027,499.58648529998027,num_3,1.1975157000124454,500.80419549997896,500.80419549997896,None,,14,001,2025-12-23_13h01.22.048,2025C_exp1_detect,2022.2.4,59.96659860853848,
42.7,45,1,0,-1,0,0,153,153,26,500.80419549997896,500.80419549997896,501.3048607999808,501.3714404000202,501.4218382000108,501.4218382000108,501.4218382000108,501.4218382000108,501.471742899972,501.471742899972,501.471742899972,501.471742899972,501.471742899972,501.471742899972,501.471742899972,501.471742899972,501.471742899972,501.471742899972,num_1,1.336070400022436,502.83960870001465,502.83960870001465,None,,14,001,2025-12-23_13h01.22.048,2025C_exp1_detect,2022.2.4,59.96659860853848,
29.4,45,0,0,1,-1,0,154,154,221,502.83960870001465,502.83960870001465,503.33995230001165,503.40690569998696,503.4574412999791,503.4574412999791,503.4574412999791,503.4574412999791,503.50732729997253,503.50732729997253,503.50732729997253,503.50732729997253,503.50732729997253,503.50732729997253,503.50732729997253,503.50732729997253,503.50732729997253,503.50732729997253,num_3,2.4199016999918967,505.95960439997725,505.95960439997725,None,,14,001,2025-12-23_13h01.22.048,2025C_exp1_detect,2022.2.4,59.96659860853848,
19.6,315,1,1,-1,1,0,155,155,353,505.95960439997725,505.95960439997725,506.4599823000026,506.52669779997086,506.5770647000172,506.5770647000172,506.5770647000172,506.5770647000172,506.62690360000124,506.62690360000124,506.62690360000124,506.62690360000124,506.62690360000124,506.62690360000124,506.62690360000124,506.62690360000124,506.62690360000124,506.62690360000124,num_1,1.6200076000532135,508.2784495999804,508.2784495999804,None,,14,001,2025-12-23_13h01.22.048,2025C_exp1_detect,2022.2.4,59.96659860853848,
39.2,315,1,0,1,1,0,156,156,394,508.2784495999804,508.2784495999804,508.77898190001724,508.8455618000007,508.8959007000085,508.8959007000085,508.8959007000085,508.8959007000085,508.94589319999795,508.94589319999795,508.94589319999795,508.94589319999795,508.94589319999795,508.94589319999795,508.94589319999795,508.94589319999795,508.94589319999795,508.94589319999795,num_3,1.437651599990204,510.41376849997323,510.41376849997323,None,,14,001,2025-12-23_13h01.22.048,2025C_exp1_detect,2022.2.4,59.96659860853848,
42.7,315,1,0,-1,0,0,157,157,35,510.41376849997323,510.41376849997323,510.91451979998965,510.98125979996985,511.0314004999818,511.0314004999818,511.0314004999818,511.0314004999818,511.081030500005,511.081030500005,511.081030500005,511.081030500005,511.081030500005,511.081030500005,511.081030500005,511.081030500005,511.081030500005,511.081030500005,num_1,1.022512600000482,512.1322889999719,512.1322889999719,None,,14,001,2025-12-23_13h01.22.048,2025C_exp1_detect,2022.2.4,59.96659860853848,
39.2,45,1,1,1,0,0,158,158,133,512.1322889999719,512.1322889999719,512.632816599973,512.6995460999897,512.7498508999706,512.7498508999706,512.7498508999706,512.7498508999706,512.799646599975,512.799646599975,512.799646599975,512.799646599975,512.799646599975,512.799646599975,512.799646599975,512.799646599975,512.799646599975,512.799646599975,num_3,2.8716789000318386,515.7023039999767,515.7023039999767,None,,14,001,2025-12-23_13h01.22.048,2025C_exp1_detect,2022.2.4,59.96659860853848,
19.6,315,0,1,-1,1,0,159,159,335,515.7023039999767,515.7023039999767,516.2029649000033,516.2696731999749,516.3201150000095,516.3201150000095,516.3201150000095,516.3201150000095,516.3698532999842,516.3698532999842,516.3698532999842,516.3698532999842,516.3698532999842,516.3698532999842,516.3698532999842,516.3698532999842,516.3698532999842,516.3698532999842,num_3,1.1014747000299394,517.4875881000189,517.4875881000189,None,,14,001,2025-12-23_13h01.22.048,2025C_exp1_detect,2022.2.4,59.96659860853848,
15.7,45,1,0,-1,1,0,160,160,307,517.4875881000189,517.4875881000189,517.9881441000034,518.0548596999724,518.1051957000163,518.1051957000163,518.1051957000163,518.1051957000163,518.155056699994,518.155056699994,518.155056699994,518.155056699994,518.155056699994,518.155056699994,518.155056699994,518.155056699994,518.155056699994,518.155056699994,num_1,0.9406839999719523,519.1227756000008,519.1227756000008,None,,14,001,2025-12-23_13h01.22.048,2025C_exp1_detect,2022.2.4,59.96659860853848,
42.7,315,1,1,1,0,0,161,161,143,519.1227756000008,519.1227756000008,519.6231388999731,519.6898027000134,519.7401774000027,519.7401774000027,519.7401774000027,519.7401774000027,519.7900407999987,519.7900407999987,519.7900407999987,519.7900407999987,519.7900407999987,519.7900407999987,519.7900407999987,519.7900407999987,519.7900407999987,519.7900407999987,num_1,1.1929987000185065,521.0076518999995,521.0076518999995,None,,14,001,2025-12-23_13h01.22.048,2025C_exp1_detect,2022.2.4,59.96659860853848,
39.2,315,0,0,-1,-1,0,162,162,160,521.0076518999995,521.0076518999995,521.5083843999892,521.5750811999897,521.6253998000175,521.6253998000175,521.6253998000175,521.6253998000175,521.6752163000056,521.6752163000056,521.6752163000056,521.6752163000056,521.6752163000056,521.6752163000056,521.6752163000056,521.6752163000056,521.6752163000056,521.6752163000056,num_3,0.7315735999727622,522.4257647999912,522.4257647999912,None,,14,001,2025-12-23_13h01.22.048,2025C_exp1_detect,2022.2.4,59.96659860853848,
12.1,45,0,0,-1,1,0,163,163,288,522.4257647999912,522.4257647999912,522.926505099982,522.9930738999974,523.0434806999983,523.0434806999983,523.0434806999983,523.0434806999983,523.0932961999788,523.0932961999788,523.0932961999788,523.0932961999788,523.0932961999788,523.0932961999788,523.0932961999788,523.0932961999788,523.0932961999788,523.0932961999788,num_3,1.3854499000008218,524.5112141999998,524.5112141999998,None,,14,001,2025-12-23_13h01.22.048,2025C_exp1_detect,2022.2.4,59.96659860853848,
22.7,315,1,0,-1,0,0,164,164,30,524.5112141999998,524.5112141999998,525.0118670000229,525.0786299000029,525.1290290000034,525.1290290000034,525.1290290000034,525.1290290000034,525.1787503000232,525.1787503000232,525.1787503000232,525.1787503000232,525.1787503000232,525.1787503000232,525.1787503000232,525.1787503000232,525.1787503000232,525.1787503000232,num_1,0.9248130000196397,526.1296110000112,526.1296110000112,None,,14,001,2025-12-23_13h01.22.048,2025C_exp1_detect,2022.2.4,59.96659860853848,
42.7,45,0,1,1,1,0,165,165,404,526.1296110000112,526.1296110000112,526.6301507999888,526.6968571000034,526.7471440000227,526.7471440000227,526.7471440000227,526.7471440000227,526.7969204999972,526.7969204999972,526.7969204999972,526.7969204999972,526.7969204999972,526.7969204999972,526.7969204999972,526.7969204999972,526.7969204999972,526.7969204999972,num_1,1.139074700011406,527.9647457000101,527.9647457000101,None,,14,001,2025-12-23_13h01.22.048,2025C_exp1_detect,2022.2.4,59.96659860853848,
15.7,45,1,0,-1,0,0,166,166,19,527.9647457000101,527.9647457000101,528.4655778000015,528.532051999995,528.5824511999963,528.5824511999963,528.5824511999963,528.5824511999963,528.6322066999855,528.6322066999855,528.6322066999855,528.6322066999855,528.6322066999855,528.6322066999855,528.6322066999855,528.6322066999855,528.6322066999855,528.6322066999855,num_1,1.1907313999836333,529.8500676000258,529.8500676000258,None,,14,001,2025-12-23_13h01.22.048,2025C_exp1_detect,2022.2.4,59.96659860853848,
12.1,315,0,0,-1,-1,0,167,167,153,529.8500676000258,529.8500676000258,530.3505299999961,530.4169421999832,530.4674437000067,530.4674437000067,530.4674437000067,530.4674437000067,530.5173960999819,530.5173960999819,530.5173960999819,530.5173960999819,530.5173960999819,530.5173960999819,530.5173960999819,530.5173960999819,530.5173960999819,530.5173960999819,num_3,1.0094059000257403,531.5515668999869,531.5515668999869,None,,14,001,2025-12-23_13h01.22.048,2025C_exp1_detect,2022.2.4,59.96659860853848,
15.7,45,1,0,1,1,0,168,168,379,531.5515668999869,531.5515668999869,532.0523663000204,532.1190243000165,532.1690312999999,532.1690312999999,532.1690312999999,532.1690312999999,532.2190540999873,532.2190540999873,532.2190540999873,532.2190540999873,532.2190540999873,532.2190540999873,532.2190540999873,532.2190540999873,532.2190540999873,532.2190540999873,num_3,1.3168402999872342,533.553604500019,533.553604500019,None,,14,001,2025-12-23_13h01.22.048,2025C_exp1_detect,2022.2.4,59.96659860853848,
15.7,315,1,1,-1,1,0,169,169,352,533.553604500019,533.553604500019,534.0542109999806,534.1209413000033,534.1712416000082,534.1712416000082,534.1712416000082,534.1712416000082,534.2212593000149,534.2212593000149,534.2212593000149,534.2212593000149,534.2212593000149,534.2212593000149,534.2212593000149,534.2212593000149,534.2212593000149,534.2212593000149,num_3,4.713635799998883,538.9597330000252,538.9597330000252,None,,14,001,2025-12-23_13h01.22.048,2025C_exp1_detect,2022.2.4,59.96659860853848,
29.4,45,0,0,1,0,0,170,170,77,538.9597330000252,538.9597330000252,539.4596729999757,539.5260664999951,539.5766111999983,539.5766111999983,539.5766111999983,539.5766111999983,539.6263962999801,539.6263962999801,539.6263962999801,539.6263962999801,539.6263962999801,539.6263962999801,539.6263962999801,539.6263962999801,539.6263962999801,539.6263962999801,num_3,1.077038299990818,540.7274189000018,540.7274189000018,None,,14,001,2025-12-23_13h01.22.048,2025C_exp1_detect,2022.2.4,59.96659860853848,
39.2,45,1,0,1,0,0,171,171,97,540.7274189000018,540.7274189000018,541.2278782000067,541.294859000016,541.345008299977,541.345008299977,541.345008299977,541.345008299977,541.3949509999948,541.3949509999948,541.3949509999948,541.3949509999948,541.3949509999948,541.3949509999948,541.3949509999948,541.3949509999948,541.3949509999948,541.3949509999948,num_3,0.8997674999991432,542.3124726000242,542.3124726000242,None,,14,001,2025-12-23_13h01.22.048,2025C_exp1_detect,2022.2.4,59.96659860853848,
25.5,315,0,1,-1,1,0,172,172,337,542.3124726000242,542.3124726000242,542.8130364000099,542.8798075999948,542.9297723000054,542.9297723000054,542.9297723000054,542.9297723000054,542.9798153999727,542.9798153999727,542.9798153999727,542.9798153999727,542.9798153999727,542.9798153999727,542.9798153999727,542.9798153999727,542.9798153999727,542.9798153999727,num_3,1.331408600031864,544.3308776000049,544.3308776000049,None,,14,001,2025-12-23_13h01.22.048,2025C_exp1_detect,2022.2.4,59.96659860853848,
25.5,45,0,0,-1,1,0,173,173,292,544.3308776000049,544.3308776000049,544.8316361000179,544.898366199981,544.948642399977,544.948642399977,544.948642399977,544.948642399977,544.998223499977,544.998223499977,544.998223499977,544.998223499977,544.998223499977,544.998223499977,544.998223499977,544.998223499977,544.998223499977,544.998223499977,num_3,1.0647437000297941,546.0830225999816,546.0830225999816,None,,14,001,2025-12-23_13h01.22.048,2025C_exp1_detect,2022.2.4,59.96659860853848,
39.2,315,1,0,1,0,0,174,174,106,546.0830225999816,546.0830225999816,546.5834065999952,546.6501321999822,546.7003985000192,546.7003985000192,546.7003985000192,546.7003985000192,546.7501655999804,546.7501655999804,546.7501655999804,546.7501655999804,546.7501655999804,546.7501655999804,546.7501655999804,546.7501655999804,546.7501655999804,546.7501655999804,num_1,0.8808060000301339,547.6511396999704,547.6511396999704,None,,14,001,2025-12-23_13h01.22.048,2025C_exp1_detect,2022.2.4,59.96659860853848,
15.7,315,1,0,1,1,0,175,175,388,547.6511396999704,547.6511396999704,548.1515116000082,548.2182390000089,548.2685911000008,548.2685911000008,548.2685911000008,548.2685911000008,548.3185289999819,548.3185289999819,548.3185289999819,548.3185289999819,548.3185289999819,548.3185289999819,548.3185289999819,548.3185289999819,548.3185289999819,548.3185289999819,num_3,0.9923594000283629,549.3361827000044,549.3361827000044,None,,14,001,2025-12-23_13h01.22.048,2025C_exp1_detect,2022.2.4,59.96659860853848,
25.5,315,0,1,1,0,0,176,176,121,549.3361827000044,549.3361827000044,549.8366880000103,549.9032729999744,549.9536664999905,549.9536664999905,549.9536664999905,549.9536664999905,550.0035787000088,550.0035787000088,550.0035787000088,550.0035787000088,550.0035787000088,550.0035787000088,550.0035787000088,550.0035787000088,550.0035787000088,550.0035787000088,num_1,1.0990654999623075,551.121190899983,551.121190899983,None,,14,001,2025-12-23_13h01.22.048,2025C_exp1_detect,2022.2.4,59.96659860853848,
12.1,45,1,0,1,1,0,177,177,378,551.121190899983,551.121190899983,551.6217857999727,551.6885197000229,551.7388992999913,551.7388992999913,551.7388992999913,551.7388992999913,551.7886004999746,551.7886004999746,551.7886004999746,551.7886004999746,551.7886004999746,551.7886004999746,551.7886004999746,551.7886004999746,551.7886004999746,551.7886004999746,num_3,0.9474826999939978,552.7560948000173,552.7560948000173,None,,14,001,2025-12-23_13h01.22.048,2025C_exp1_detect,2022.2.4,59.96659860853848,
25.5,45,0,0,1,1,0,178,178,364,552.7560948000173,552.7560948000173,553.256633299985,553.3232151999837,553.3736093000043,553.3736093000043,553.3736093000043,553.3736093000043,553.4234520000173,553.4234520000173,553.4234520000173,553.4234520000173,553.4234520000173,553.4234520000173,553.4234520000173,553.4234520000173,553.4234520000173,553.4234520000173,num_1,2.191663499979768,555.6424468000187,555.6424468000187,None,,14,001,2025-12-23_13h01.22.048,2025C_exp1_detect,2022.2.4,59.96659860853848,
39.2,315,0,1,1,0,0,179,179,124,555.6424468000187,555.6424468000187,556.1429965000134,556.2097111999756,556.2600318000186,556.2600318000186,556.2600318000186,556.2600318000186,556.309844399977,556.309844399977,556.309844399977,556.309844399977,556.309844399977,556.309844399977,556.309844399977,556.309844399977,556.309844399977,556.309844399977,num_1,0.9621537000057288,557.2940955000231,557.2940955000231,None,,14,001,2025-12-23_13h01.22.048,2025C_exp1_detect,2022.2.4,59.96659860853848,
39.2,45,0,0,-1,-1,0,180,180,151,557.2940955000231,557.2940955000231,557.7945889999974,557.8613494000165,557.9116368999821,557.9116368999821,557.9116368999821,557.9116368999821,557.9614535999717,557.9614535999717,557.9614535999717,557.9614535999717,557.9614535999717,557.9614535999717,557.9614535999717,557.9614535999717,557.9614535999717,557.9614535999717,num_1,1.2380376000073738,559.2295081000193,559.2295081000193,None,,14,001,2025-12-23_13h01.22.048,2025C_exp1_detect,2022.2.4,59.96659860853848,
25.5,315,0,1,-1,-1,0,181,181,193,559.2295081000193,559.2295081000193,559.7298418999999,559.7967145000002,559.8469897999894,559.8469897999894,559.8469897999894,559.8469897999894,559.8967678999761,559.8967678999761,559.8967678999761,559.8967678999761,559.8967678999761,559.8967678999761,559.8967678999761,559.8967678999761,559.8967678999761,559.8967678999761,num_3,0.9025788999861106,560.8307695999974,560.8307695999974,None,,14,001,2025-12-23_13h01.22.048,2025C_exp1_detect,2022.2.4,59.96659860853848,
22.7,45,1,1,1,0,0,182,182,129,560.8307695999974,560.8307695999974,561.3315320999827,561.3981809000252,561.4485215999885,561.4485215999885,561.4485215999885,561.4485215999885,561.498333800002,561.498333800002,561.498333800002,561.498333800002,561.498333800002,561.498333800002,561.498333800002,561.498333800002,561.498333800002,561.498333800002,num_1,4.220498299982864,565.7356757000089,565.7356757000089,None,,14,001,2025-12-23_13h01.22.048,2025C_exp1_detect,2022.2.4,59.96659860853848,
35.3,315,1,1,1,1,0,183,183,429,565.7356757000089,565.7356757000089,566.2364692999981,566.3030478999717,566.353351800004,566.353351800004,566.353351800004,566.353351800004,566.4031345000258,566.4031345000258,566.4031345000258,566.4031345000258,566.4031345000258,566.4031345000258,566.4031345000258,566.4031345000258,566.4031345000258,566.4031345000258,num_1,1.2196600000024773,567.6544316000072,567.6544316000072,None,,14,001,2025-12-23_13h01.22.048,2025C_exp1_detect,2022.2.4,59.96659860853848,
35.3,315,1,1,1,-1,0,184,184,285,567.6544316000072,567.6544316000072,568.1550913000247,568.2219276999822,568.2721279999823,568.2721279999823,568.2721279999823,568.2721279999823,568.3220720000099,568.3220720000099,568.3220720000099,568.3220720000099,568.3220720000099,568.3220720000099,568.3220720000099,568.3220720000099,568.3220720000099,568.3220720000099,num_1,1.1577631999971345,569.5062921000062,569.5062921000062,None,,14,001,2025-12-23_13h01.22.048,2025C_exp1_detect,2022.2.4,59.96659860853848,
29.4,45,0,1,-1,-1,0,185,185,185,569.5062921000062,569.5062921000062,570.0067860999843,570.0733229999896,570.1240885999869,570.1240885999869,570.1240885999869,570.1240885999869,570.1738320000004,570.1738320000004,570.1738320000004,570.1738320000004,570.1738320000004,570.1738320000004,570.1738320000004,570.1738320000004,570.1738320000004,570.1738320000004,num_3,1.1372388000017963,571.3411547999713,571.3411547999713,None,,14,001,2025-12-23_13h01.22.048,2025C_exp1_detect,2022.2.4,59.96659860853848,
19.6,315,1,1,-1,-1,0,186,186,209,571.3411547999713,571.3411547999713,571.8418410000158,571.9085716999834,571.958979499992,571.958979499992,571.958979499992,571.958979499992,572.0089479999733,572.0089479999733,572.0089479999733,572.0089479999733,572.0089479999733,572.0089479999733,572.0089479999733,572.0089479999733,572.0089479999733,572.0089479999733,num_1,1.1268864999874495,573.1599401999847,573.1599401999847,None,,14,001,2025-12-23_13h01.22.048,2025C_exp1_detect,2022.2.4,59.96659860853848,
25.5,45,1,1,-1,-1,0,187,187,202,573.1599401999847,573.1599401999847,573.6604742999771,573.7271765000187,573.7774894000031,573.7774894000031,573.7774894000031,573.7774894000031,573.827376900008,573.827376900008,573.827376900008,573.827376900008,573.827376900008,573.827376900008,573.827376900008,573.827376900008,573.827376900008,573.827376900008,num_1,1.267952999973204,575.1118699000217,575.1118699000217,None,,14,001,2025-12-23_13h01.22.048,2025C_exp1_detect,2022.2.4,59.96659860853848,
22.7,45,0,0,-1,-1,0,188,188,147,575.1118699000217,575.1118699000217,575.6125838999869,575.679166499991,575.7294702000218,575.7294702000218,575.7294702000218,575.7294702000218,575.779221499979,575.779221499979,575.779221499979,575.779221499979,575.779221499979,575.779221499979,575.779221499979,575.779221499979,575.779221499979,575.779221499979,num_1,1.243417199992109,577.047279099992,577.047279099992,None,,14,001,2025-12-23_13h01.22.048,2025C_exp1_detect,2022.2.4,59.96659860853848,
22.7,45,0,0,1,-1,0,189,189,219,577.047279099992,577.047279099992,577.5476627000025,577.6143775000237,577.6648398999823,577.6648398999823,577.6648398999823,577.6648398999823,577.7147114999825,577.7147114999825,577.7147114999825,577.7147114999825,577.7147114999825,577.7147114999825,577.7147114999825,577.7147114999825,577.7147114999825,577.7147114999825,num_3,0.6999338999739848,578.4318843000219,578.4318843000219,None,,14,001,2025-12-23_13h01.22.048,2025C_exp1_detect,2022.2.4,59.96659860853848,
29.4,315,1,0,-1,1,0,190,190,320,578.4318843000219,578.4318843000219,578.9323668999714,578.9991319000255,579.0491204999853,579.0491204999853,579.0491204999853,579.0491204999853,579.0991353999707,579.0991353999707,579.0991353999707,579.0991353999707,579.0991353999707,579.0991353999707,579.0991353999707,579.0991353999707,579.0991353999707,579.0991353999707,num_1,0.7567147000227123,579.8832417000085,579.8832417000085,None,,14,001,2025-12-23_13h01.22.048,2025C_exp1_detect,2022.2.4,59.96659860853848,
25.5,315,1,1,-1,1,0,191,191,355,579.8832417000085,579.8832417000085,580.3838338999776,580.450602500001,580.5005470999749,580.5005470999749,580.5005470999749,580.5005470999749,580.5506327999756,580.5506327999756,580.5506327999756,580.5506327999756,580.5506327999756,580.5506327999756,580.5506327999756,580.5506327999756,580.5506327999756,580.5506327999756,num_1,1.4249080999870785,582.0019693999784,582.0019693999784,None,,14,001,2025-12-23_13h01.22.048,2025C_exp1_detect,2022.2.4,59.96659860853848,
42.7,315,1,1,-1,0,0,192,192,71,582.0019693999784,582.0019693999784,582.5027436999953,582.5692120000022,582.6193145000143,582.6193145000143,582.6193145000143,582.6193145000143,582.6694221000071,582.6694221000071,582.6694221000071,582.6694221000071,582.6694221000071,582.6694221000071,582.6694221000071,582.6694221000071,582.6694221000071,582.6694221000071,num_1,1.217607099970337,583.9038761000265,583.9038761000265,None,,14,001,2025-12-23_13h01.22.048,2025C_exp1_detect,2022.2.4,59.96659860853848,
15.7,315,0,1,1,-1,0,193,193,262,583.9038761000265,583.9038761000265,584.4045105000259,584.4712510000099,584.5214063000167,584.5214063000167,584.5214063000167,584.5214063000167,584.5713655999862,584.5713655999862,584.5713655999862,584.5713655999862,584.5713655999862,584.5713655999862,584.5713655999862,584.5713655999862,584.5713655999862,584.5713655999862,num_1,1.2198840999626555,585.8226184999803,585.8226184999803,None,,14,001,2025-12-23_13h01.22.048,2025C_exp1_detect,2022.2.4,59.96659860853848,
29.4,45,1,1,-1,1,0,194,194,347,585.8226184999803,585.8226184999803,586.3228459000238,586.3898094000178,586.4401482000249,586.4401482000249,586.4401482000249,586.4401482000249,586.4899995999876,586.4899995999876,586.4899995999876,586.4899995999876,586.4899995999876,586.4899995999876,586.4899995999876,586.4899995999876,586.4899995999876,586.4899995999876,num_1,1.1247450000373647,587.641059799993,587.641059799993,None,,14,001,2025-12-23_13h01.22.048,2025C_exp1_detect,2022.2.4,59.96659860853848,
19.6,45,0,0,-1,0,0,195,195,2,587.641059799993,587.641059799993,588.1416316999821,588.2084462000057,588.2586523999926,588.2586523999926,588.2586523999926,588.2586523999926,588.3084474999923,588.3084474999923,588.3084474999923,588.3084474999923,588.3084474999923,588.3084474999923,588.3084474999923,588.3084474999923,588.3084474999923,588.3084474999923,num_3,0.6191011999617331,588.9588971000048,588.9588971000048,None,,14,001,2025-12-23_13h01.22.048,2025C_exp1_detect,2022.2.4,59.96659860853848,
35.3,45,0,1,-1,0,0,196,196,42,588.9588971000048,588.9588971000048,589.4595402000123,589.5262894000043,589.5766781999846,589.5766781999846,589.5766781999846,589.5766781999846,589.6264202999882,589.6264202999882,589.6264202999882,589.6264202999882,589.6264202999882,589.6264202999882,589.6264202999882,589.6264202999882,589.6264202999882,589.6264202999882,num_3,0.9815917999949306,590.6272245,590.6272245,None,,14,001,2025-12-23_13h01.22.048,2025C_exp1_detect,2022.2.4,59.96659860853848,
