contrast,ori,lefttarget,righttarget,postcue,precue,trials.thisRepN,trials.thisTrialN,trials.thisN,trials.thisIndex,fix1.started,fix2.started,precue_2.started,precue_2.stopped,left_grating.started,right_grating.started,noise_left.started,noise_right.started,fix1.stopped,fix2.stopped,left_grating.stopped,right_grating.stopped,noise_left.stopped,noise_right.stopped,key_resp.started,postcue_2.started,fix1_2.started,fix2_2.started,key_resp.keys,key_resp.rt,key_resp_2.started,break_text_2.started,key_resp_2.keys,key_resp_2.rt,participant,session,date,expName,psychopyVersion,frameRate,
22.7,45,0,0,-1,-1,0,0,0,147,19.537668999982998,19.537668999982998,20.009188700001687,20.075918499962427,20.146081599988975,20.146081599988975,20.146081599988975,20.146081599988975,20.17609419999644,20.17609419999644,20.17609419999644,20.17609419999644,20.17609419999644,20.17609419999644,20.193007600028068,20.193007600028068,20.193007600028068,20.193007600028068,num_3,12.269898999948055,32.488463799934834,32.488463799934834,None,,15,001,2025-12-23_14h47.00.085,2025C_exp1_detect,2022.2.4,59.87995266302429,
15.7,45,0,0,1,1,0,1,1,361,32.488463799934834,32.488463799934834,32.988962700008415,33.05554920004215,33.10580589994788,33.10580589994788,33.10580589994788,33.10580589994788,33.1557821999304,33.1557821999304,33.1557821999304,33.1557821999304,33.1557821999304,33.1557821999304,33.1557821999304,33.1557821999304,33.1557821999304,33.1557821999304,num_3,6.547818699968047,39.72884510003496,39.72884510003496,None,,15,001,2025-12-23_14h47.00.085,2025C_exp1_detect,2022.2.4,59.87995266302429,
22.7,45,1,0,-1,-1,0,2,2,165,39.72884510003496,39.72884510003496,40.229552099946886,40.296124599990435,40.34643369994592,40.34643369994592,40.34643369994592,40.34643369994592,40.396371399983764,40.396371399983764,40.396371399983764,40.396371399983764,40.396371399983764,40.396371399983764,40.396371399983764,40.396371399983764,40.396371399983764,40.396371399983764,num_1,1.3791955000488088,41.79765199997928,41.79765199997928,None,,15,001,2025-12-23_14h47.00.085,2025C_exp1_detect,2022.2.4,59.87995266302429,
22.7,315,1,0,1,0,0,3,3,102,41.79765199997928,41.79765199997928,42.29812079994008,42.36497320001945,42.41530400002375,42.41530400002375,42.41530400002375,42.41530400002375,42.465178399928845,42.465178399928845,42.465178399928845,42.465178399928845,42.465178399928845,42.465178399928845,42.465178399928845,42.465178399928845,42.465178399928845,42.465178399928845,num_3,3.502478599897586,45.98523390002083,45.98523390002083,None,,15,001,2025-12-23_14h47.00.085,2025C_exp1_detect,2022.2.4,59.87995266302429,
22.7,315,0,1,1,1,0,4,4,408,45.98523390002083,45.98523390002083,46.48568169993814,46.55245720001403,46.602806300041266,46.602806300041266,46.602806300041266,46.602806300041266,46.65251399995759,46.65251399995759,46.65251399995759,46.65251399995759,46.65251399995759,46.65251399995759,46.65251399995759,46.65251399995759,46.65251399995759,46.65251399995759,num_1,1.5381952999159694,48.220399099984206,48.220399099984206,None,,15,001,2025-12-23_14h47.00.085,2025C_exp1_detect,2022.2.4,59.87995266302429,
39.2,315,0,0,-1,1,0,5,5,304,48.220399099984206,48.220399099984206,48.72114599996712,48.78789539996069,48.83824289997574,48.83824289997574,48.83824289997574,48.83824289997574,48.88793089997489,48.88793089997489,48.88793089997489,48.88793089997489,48.88793089997489,48.88793089997489,48.88793089997489,48.88793089997489,48.88793089997489,48.88793089997489,num_3,1.33504510007333,50.2391978999367,50.2391978999367,None,,15,001,2025-12-23_14h47.00.085,2025C_exp1_detect,2022.2.4,59.87995266302429,
25.5,45,0,0,-1,-1,0,6,6,148,50.2391978999367,50.2391978999367,50.73960780003108,50.80728970002383,50.856592700001784,50.856592700001784,50.856592700001784,50.856592700001784,50.90646580001339,50.90646580001339,50.90646580001339,50.90646580001339,50.90646580001339,50.90646580001339,50.90646580001339,50.90646580001339,50.90646580001339,50.90646580001339,num_3,1.7639150000177324,52.69258509995416,52.69258509995416,None,,15,001,2025-12-23_14h47.00.085,2025C_exp1_detect,2022.2.4,59.87995266302429,
39.2,315,1,0,1,-1,0,7,7,250,52.69258509995416,52.69258509995416,53.19214059994556,53.25877109996509,53.30957729998045,53.30957729998045,53.30957729998045,53.30957729998045,53.358944899984635,53.358944899984635,53.358944899984635,53.358944899984635,53.358944899984635,53.358944899984635,53.358944899984635,53.358944899984635,53.358944899984635,53.358944899984635,num_3,1.3275736999930814,54.710233799996786,54.710233799996786,None,,15,001,2025-12-23_14h47.00.085,2025C_exp1_detect,2022.2.4,59.87995266302429,
12.1,45,0,1,1,1,0,8,8,396,54.710233799996786,54.710233799996786,55.21087379998062,55.277471799985506,55.32781179994345,55.32781179994345,55.32781179994345,55.32781179994345,55.37774459994398,55.37774459994398,55.37774459994398,55.37774459994398,55.37774459994398,55.37774459994398,55.37774459994398,55.37774459994398,55.37774459994398,55.37774459994398,num_1,0.9008451000554487,56.29534950002562,56.29534950002562,None,,15,001,2025-12-23_14h47.00.085,2025C_exp1_detect,2022.2.4,59.87995266302429,
25.5,315,0,1,1,-1,0,9,9,265,56.29534950002562,56.29534950002562,56.79579759994522,56.862345800036564,56.912745799985714,56.912745799985714,56.912745799985714,56.912745799985714,56.96273070003372,56.96273070003372,56.96273070003372,56.96273070003372,56.96273070003372,56.96273070003372,56.96273070003372,56.96273070003372,56.96273070003372,56.96273070003372,num_1,0.9722571999300271,57.963989099953324,57.963989099953324,None,,15,001,2025-12-23_14h47.00.085,2025C_exp1_detect,2022.2.4,59.87995266302429,
35.3,315,1,0,-1,1,0,10,10,321,57.963989099953324,57.963989099953324,58.464159499970265,58.53082500002347,58.581120699993335,58.581120699993335,58.581120699993335,58.581120699993335,58.630971999955364,58.630971999955364,58.630971999955364,58.630971999955364,58.630971999955364,58.630971999955364,58.630971999955364,58.630971999955364,58.630971999955364,58.630971999955364,num_1,1.256252699997276,59.91589559998829,59.91589559998829,None,,15,001,2025-12-23_14h47.00.085,2025C_exp1_detect,2022.2.4,59.87995266302429,
22.7,45,0,0,1,0,0,11,11,75,59.91589559998829,59.91589559998829,60.416089199949056,60.48295079998206,60.53333400003612,60.53333400003612,60.53333400003612,60.53333400003612,60.58313389995601,60.58313389995601,60.58313389995601,60.58313389995601,60.58313389995601,60.58313389995601,60.58313389995601,60.58313389995601,60.58313389995601,60.58313389995601,num_3,1.2396605999674648,61.85078340000473,61.85078340000473,None,,15,001,2025-12-23_14h47.00.085,2025C_exp1_detect,2022.2.4,59.87995266302429,
29.4,315,0,1,1,-1,0,12,12,266,61.85078340000473,61.85078340000473,62.35174159996677,62.418151399935596,62.46818740002345,62.46818740002345,62.46818740002345,62.46818740002345,62.518761400016956,62.518761400016956,62.518761400016956,62.518761400016956,62.518761400016956,62.518761400016956,62.518761400016956,62.518761400016956,62.518761400016956,62.518761400016956,num_1,0.8316156000364572,63.36888059997,63.36888059997,None,,15,001,2025-12-23_14h47.00.085,2025C_exp1_detect,2022.2.4,59.87995266302429,
19.6,315,0,0,1,1,0,13,13,371,63.36888059997,63.36888059997,63.86937339999713,63.936316999956034,63.98635879997164,63.98635879997164,63.98635879997164,63.98635879997164,64.03623620001599,64.03623620001599,64.03623620001599,64.03623620001599,64.03623620001599,64.03623620001599,64.03623620001599,64.03623620001599,64.03623620001599,64.03623620001599,num_1,0.8342655999585986,64.88726999994833,64.88726999994833,None,,15,001,2025-12-23_14h47.00.085,2025C_exp1_detect,2022.2.4,59.87995266302429,
42.7,315,0,0,-1,-1,0,14,14,161,64.88726999994833,64.88726999994833,65.38776299997699,65.45436880004127,65.50471539993305,65.50471539993305,65.50471539993305,65.50471539993305,65.5545738999499,65.5545738999499,65.5545738999499,65.5545738999499,65.5545738999499,65.5545738999499,65.5545738999499,65.5545738999499,65.5545738999499,65.5545738999499,num_1,1.4916801999788731,67.07282460003626,67.07282460003626,None,,15,001,2025-12-23_14h47.00.085,2025C_exp1_detect,2022.2.4,59.87995266302429,
19.6,45,1,0,1,0,0,15,15,92,67.07282460003626,67.07282460003626,67.5731990999775,67.64000589994248,67.69007370003965,67.69007370003965,67.69007370003965,67.69007370003965,67.73995229997672,67.73995229997672,67.73995229997672,67.73995229997672,67.73995229997672,67.73995229997672,67.73995229997672,67.73995229997672,67.73995229997672,67.73995229997672,num_3,1.1546737999888137,68.92438959993888,68.92438959993888,None,,15,001,2025-12-23_14h47.00.085,2025C_exp1_detect,2022.2.4,59.87995266302429,
39.2,45,0,1,1,0,0,16,16,115,68.92438959993888,68.92438959993888,69.42502920003608,69.49180019996129,69.54203559993766,69.54203559993766,69.54203559993766,69.54203559993766,69.59232069994323,69.59232069994323,69.59232069994323,69.59232069994323,69.59232069994323,69.59232069994323,69.59232069994323,69.59232069994323,69.59232069994323,69.59232069994323,num_1,0.9267741999356076,70.5428791999584,70.5428791999584,None,,15,001,2025-12-23_14h47.00.085,2025C_exp1_detect,2022.2.4,59.87995266302429,
15.7,315,0,1,1,-1,0,17,17,262,70.5428791999584,70.5428791999584,71.0434699000325,71.1100300999824,71.16033540002536,71.16033540002536,71.16033540002536,71.16033540002536,71.21022639994044,71.21022639994044,71.21022639994044,71.21022639994044,71.21022639994044,71.21022639994044,71.21022639994044,71.21022639994044,71.21022639994044,71.21022639994044,num_1,0.892138299997896,72.12766839994583,72.12766839994583,None,,15,001,2025-12-23_14h47.00.085,2025C_exp1_detect,2022.2.4,59.87995266302429,
12.1,315,0,1,1,-1,0,18,18,261,72.12766839994583,72.12766839994583,72.62811329995748,72.69481949997135,72.74566479993518,72.74566479993518,72.74566479993518,72.74566479993518,72.79503010003828,72.79503010003828,72.79503010003828,72.79503010003828,72.79503010003828,72.79503010003828,72.79503010003828,72.79503010003828,72.79503010003828,72.79503010003828,num_1,0.7715865999925882,73.5957691000076,73.5957691000076,None,,15,001,2025-12-23_14h47.00.085,2025C_exp1_detect,2022.2.4,59.87995266302429,
25.5,45,1,1,-1,-1,0,19,19,202,73.5957691000076,73.5957691000076,74.09636109997518,74.16303629998583,74.21330259996466,74.21330259996466,74.21330259996466,74.21330259996466,74.2632384999888,74.2632384999888,74.2632384999888,74.2632384999888,74.2632384999888,74.2632384999888,74.2632384999888,74.2632384999888,74.2632384999888,74.2632384999888,num_3,0.9834094999823719,75.2640759999631,75.2640759999631,None,,15,001,2025-12-23_14h47.00.085,2025C_exp1_detect,2022.2.4,59.87995266302429,
22.7,315,0,1,-1,-1,0,20,20,192,75.2640759999631,75.2640759999631,75.76456719997805,75.8313921999652,75.88158149993978,75.88158149993978,75.88158149993978,75.88158149993978,75.93153079994954,75.93153079994954,75.93153079994954,75.93153079994954,75.93153079994954,75.93153079994954,75.93153079994954,75.93153079994954,75.93153079994954,75.93153079994954,num_3,0.9467422000598162,76.89913119992707,76.89913119992707,None,,15,001,2025-12-23_14h47.00.085,2025C_exp1_detect,2022.2.4,59.87995266302429,
25.5,315,1,1,-1,0,0,21,21,67,76.89913119992707,76.89913119992707,77.39964069996495,77.46635889995378,77.5166898999596,77.5166898999596,77.5166898999596,77.5166898999596,77.56658250000328,77.56658250000328,77.56658250000328,77.56658250000328,77.56658250000328,77.56658250000328,77.56658250000328,77.56658250000328,77.56658250000328,77.56658250000328,num_3,0.8478160999948159,78.43391719995998,78.43391719995998,None,,15,001,2025-12-23_14h47.00.085,2025C_exp1_detect,2022.2.4,59.87995266302429,
15.7,315,1,1,1,-1,0,22,22,280,78.43391719995998,78.43391719995998,78.93443809996825,79.00115709996317,79.0517736999318,79.0517736999318,79.0517736999318,79.0517736999318,79.10139209998306,79.10139209998306,79.10139209998306,79.10139209998306,79.10139209998306,79.10139209998306,79.10139209998306,79.10139209998306,79.10139209998306,79.10139209998306,num_3,2.073609199956991,81.20348140003625,81.20348140003625,None,,15,001,2025-12-23_14h47.00.085,2025C_exp1_detect,2022.2.4,59.87995266302429,
42.7,315,1,0,1,0,0,23,23,107,81.20348140003625,81.20348140003625,81.70403150003403,81.77074399997946,81.82092079997528,81.82092079997528,81.82092079997528,81.82092079997528,81.87091429997236,81.87091429997236,81.87091429997236,81.87091429997236,81.87091429997236,81.87091429997236,81.87091429997236,81.87091429997236,81.87091429997236,81.87091429997236,num_3,1.1437519000610337,83.0387122000102,83.0387122000102,None,,15,001,2025-12-23_14h47.00.085,2025C_exp1_detect,2022.2.4,59.87995266302429,
19.6,315,1,1,1,-1,0,24,24,281,83.0387122000102,83.0387122000102,83.53911789995618,83.60592430003453,83.65616310003679,83.65616310003679,83.65616310003679,83.65616310003679,83.70601750002243,83.70601750002243,83.70601750002243,83.70601750002243,83.70601750002243,83.70601750002243,83.70601750002243,83.70601750002243,83.70601750002243,83.70601750002243,num_1,1.1001034999499097,84.82357120001689,84.82357120001689,None,,15,001,2025-12-23_14h47.00.085,2025C_exp1_detect,2022.2.4,59.87995266302429,
12.1,315,0,1,-1,0,0,25,25,45,84.82357120001689,84.82357120001689,85.3244365999708,85.39089299994521,85.44127980002668,85.44127980002668,85.44127980002668,85.44127980002668,85.49109329993371,85.49109329993371,85.49109329993371,85.49109329993371,85.49109329993371,85.49109329993371,85.49109329993371,85.49109329993371,85.49109329993371,85.49109329993371,num_3,1.1395701000001281,86.65909390000161,86.65909390000161,None,,15,001,2025-12-23_14h47.00.085,2025C_exp1_detect,2022.2.4,59.87995266302429,
42.7,315,0,0,1,0,0,26,26,89,86.65909390000161,86.65909390000161,87.1595326999668,87.22651339997537,87.27677180001047,87.27677180001047,87.27677180001047,87.27677180001047,87.32646579993889,87.32646579993889,87.32646579993889,87.32646579993889,87.32646579993889,87.32646579993889,87.32646579993889,87.32646579993889,87.32646579993889,87.32646579993889,num_1,0.7679829000262544,88.1271996999858,88.1271996999858,None,,15,001,2025-12-23_14h47.00.085,2025C_exp1_detect,2022.2.4,59.87995266302429,
12.1,315,0,0,-1,-1,0,27,27,153,88.1271996999858,88.1271996999858,88.62766430003103,88.69444420002401,88.74488070001826,88.74488070001826,88.74488070001826,88.74488070001826,88.794384000008,88.794384000008,88.794384000008,88.794384000008,88.794384000008,88.794384000008,88.794384000008,88.794384000008,88.794384000008,88.794384000008,num_3,1.195964000071399,90.01221229997464,90.01221229997464,None,,15,001,2025-12-23_14h47.00.085,2025C_exp1_detect,2022.2.4,59.87995266302429,
42.7,315,0,1,-1,1,0,28,28,341,90.01221229997464,90.01221229997464,90.51298120000865,90.57953979994636,90.62997999996878,90.62997999996878,90.62997999996878,90.62997999996878,90.67982740001753,90.67982740001753,90.67982740001753,90.67982740001753,90.67982740001753,90.67982740001753,90.67982740001753,90.67982740001753,90.67982740001753,90.67982740001753,num_3,3.5426601000363007,94.24984850001056,94.24984850001056,None,,15,001,2025-12-23_14h47.00.085,2025C_exp1_detect,2022.2.4,59.87995266302429,
25.5,45,1,1,1,0,0,29,29,130,94.24984850001056,94.24984850001056,94.75044029997662,94.81709799997043,94.86749370000325,94.86749370000325,94.86749370000325,94.86749370000325,94.91746100003365,94.91746100003365,94.91746100003365,94.91746100003365,94.91746100003365,94.91746100003365,94.91746100003365,94.91746100003365,94.91746100003365,94.91746100003365,num_1,1.1215016999049112,96.06869220000226,96.06869220000226,None,,15,001,2025-12-23_14h47.00.085,2025C_exp1_detect,2022.2.4,59.87995266302429,
29.4,315,0,1,-1,1,0,30,30,338,96.06869220000226,96.06869220000226,96.56919780001044,96.63584789994638,96.68621089996304,96.68621089996304,96.68621089996304,96.68621089996304,96.73593540000729,96.73593540000729,96.73593540000729,96.73593540000729,96.73593540000729,96.73593540000729,96.73593540000729,96.73593540000729,96.73593540000729,96.73593540000729,num_3,1.1823626999976113,97.93675879994407,97.93675879994407,None,,15,001,2025-12-23_14h47.00.085,2025C_exp1_detect,2022.2.4,59.87995266302429,
25.5,315,1,1,1,1,0,31,31,427,97.93675879994407,97.93675879994407,98.43741889996454,98.50427040003706,98.55458570003975,98.55458570003975,98.55458570003975,98.55458570003975,98.60447999997996,98.60447999997996,98.60447999997996,98.60447999997996,98.60447999997996,98.60447999997996,98.60447999997996,98.60447999997996,98.60447999997996,98.60447999997996,num_1,0.9707244000164792,99.60510559997056,99.60510559997056,None,,15,001,2025-12-23_14h47.00.085,2025C_exp1_detect,2022.2.4,59.87995266302429,
12.1,315,1,1,1,1,0,32,32,423,99.60510559997056,99.60510559997056,100.10592290002387,100.1724948999472,100.22292540001217,100.22292540001217,100.22292540001217,100.22292540001217,100.2726321000373,100.2726321000373,100.2726321000373,100.2726321000373,100.2726321000373,100.2726321000373,100.2726321000373,100.2726321000373,100.2726321000373,100.2726321000373,num_1,0.7909052000613883,101.08991089998744,101.08991089998744,None,,15,001,2025-12-23_14h47.00.085,2025C_exp1_detect,2022.2.4,59.87995266302429,
12.1,45,1,1,1,-1,0,33,33,270,101.08991089998744,101.08991089998744,101.59083480003756,101.65763549995609,101.70796519995201,101.70796519995201,101.70796519995201,101.70796519995201,101.75771749997512,101.75771749997512,101.75771749997512,101.75771749997512,101.75771749997512,101.75771749997512,101.75771749997512,101.75771749997512,101.75771749997512,101.75771749997512,num_1,0.9689070000313222,102.75854920002166,102.75854920002166,None,,15,001,2025-12-23_14h47.00.085,2025C_exp1_detect,2022.2.4,59.87995266302429,
39.2,45,1,0,-1,-1,0,34,34,169,102.75854920002166,102.75854920002166,103.25905939994846,103.32564109994564,103.37579850002658,103.37579850002658,103.37579850002658,103.37579850002658,103.42581960000098,103.42581960000098,103.42581960000098,103.42581960000098,103.42581960000098,103.42581960000098,103.42581960000098,103.42581960000098,103.42581960000098,103.42581960000098,num_1,0.6769105000421405,104.12657810002565,104.12657810002565,None,,15,001,2025-12-23_14h47.00.085,2025C_exp1_detect,2022.2.4,59.87995266302429,
29.4,315,0,0,1,1,0,35,35,374,104.12657810002565,104.12657810002565,104.62693689996377,104.69371429993771,104.74405049998313,104.74405049998313,104.74405049998313,104.74405049998313,104.79397859994788,104.79397859994788,104.79397859994788,104.79397859994788,104.79397859994788,104.79397859994788,104.79397859994788,104.79397859994788,104.79397859994788,104.79397859994788,num_1,0.7490144999464974,105.5611338999588,105.5611338999588,None,,15,001,2025-12-23_14h47.00.085,2025C_exp1_detect,2022.2.4,59.87995266302429,
25.5,45,1,1,1,-1,0,36,36,274,105.5611338999588,105.5611338999588,106.06198989995755,106.12862600001972,106.17870269995183,106.17870269995183,106.17870269995183,106.17870269995183,106.22863789997064,106.22863789997064,106.22863789997064,106.22863789997064,106.22863789997064,106.22863789997064,106.22863789997064,106.22863789997064,106.22863789997064,106.22863789997064,num_3,2.2738349999999627,108.53097720001824,108.53097720001824,None,,15,001,2025-12-23_14h47.00.085,2025C_exp1_detect,2022.2.4,59.87995266302429,
22.7,315,1,1,1,0,0,37,37,138,108.53097720001824,108.53097720001824,109.03161629999522,109.0981793999672,109.14863609999884,109.14863609999884,109.14863609999884,109.14863609999884,109.1984691999387,109.1984691999387,109.1984691999387,109.1984691999387,109.1984691999387,109.1984691999387,109.1984691999387,109.1984691999387,109.1984691999387,109.1984691999387,num_1,0.8964843999128789,110.11557250004262,110.11557250004262,None,,15,001,2025-12-23_14h47.00.085,2025C_exp1_detect,2022.2.4,59.87995266302429,
12.1,45,0,0,1,1,0,38,38,360,110.11557250004262,110.11557250004262,110.61638020002283,110.68308300001081,110.73341829993296,110.73341829993296,110.73341829993296,110.73341829993296,110.78326189995278,110.78326189995278,110.78326189995278,110.78326189995278,110.78326189995278,110.78326189995278,110.78326189995278,110.78326189995278,110.78326189995278,110.78326189995278,num_1,0.7356313999043778,111.55042979994323,111.55042979994323,None,,15,001,2025-12-23_14h47.00.085,2025C_exp1_detect,2022.2.4,59.87995266302429,
39.2,315,1,1,-1,-1,0,39,39,214,111.55042979994323,111.55042979994323,112.05129490001127,112.11802129994612,112.16830120002851,112.16830120002851,112.16830120002851,112.16830120002851,112.21804499998689,112.21804499998689,112.21804499998689,112.21804499998689,112.21804499998689,112.21804499998689,112.21804499998689,112.21804499998689,112.21804499998689,112.21804499998689,num_3,0.8615894999820739,113.10187749995384,113.10187749995384,None,,15,001,2025-12-23_14h47.00.085,2025C_exp1_detect,2022.2.4,59.87995266302429,
39.2,315,1,0,1,1,0,40,40,394,113.10187749995384,113.10187749995384,113.60269610001706,113.66939469997305,113.71936460002325,113.71936460002325,113.71936460002325,113.71936460002325,113.76936839998234,113.76936839998234,113.76936839998234,113.76936839998234,113.76936839998234,113.76936839998234,113.76936839998234,113.76936839998234,113.76936839998234,113.76936839998234,num_3,0.9654485000064597,114.76043130003382,114.76043130003382,None,,15,001,2025-12-23_14h47.00.085,2025C_exp1_detect,2022.2.4,59.87995266302429,
35.3,45,0,1,1,1,0,41,41,402,114.76043130003382,114.76043130003382,115.2543175999308,115.32106009998824,115.37136540003121,115.37136540003121,115.37136540003121,115.37136540003121,115.42113689996768,115.42113689996768,115.42113689996768,115.42113689996768,115.42113689996768,115.42113689996768,115.43769880000036,115.43769880000036,115.43769880000036,115.43769880000036,num_1,0.7460257000057027,116.20499879994895,116.20499879994895,None,,15,001,2025-12-23_14h47.00.085,2025C_exp1_detect,2022.2.4,59.87995266302429,
19.6,45,0,0,1,0,0,42,42,74,116.20499879994895,116.20499879994895,116.70584219996817,116.77242339996155,116.82258509995881,116.82258509995881,116.82258509995881,116.82258509995881,116.87242259993218,116.87242259993218,116.87242259993218,116.87242259993218,116.87242259993218,116.87242259993218,116.87242259993218,116.87242259993218,116.87242259993218,116.87242259993218,num_3,0.9751624999335036,117.87339690001681,117.87339690001681,None,,15,001,2025-12-23_14h47.00.085,2025C_exp1_detect,2022.2.4,59.87995266302429,
25.5,315,0,0,1,0,0,43,43,85,117.87339690001681,117.87339690001681,118.3742841000203,118.44067439995706,118.49105299997609,118.49105299997609,118.49105299997609,118.49105299997609,118.54083730001003,118.54083730001003,118.54083730001003,118.54083730001003,118.54083730001003,118.54083730001003,118.54083730001003,118.54083730001003,118.54083730001003,118.54083730001003,num_3,0.9939480000175536,119.5585075999843,119.5585075999843,None,,15,001,2025-12-23_14h47.00.085,2025C_exp1_detect,2022.2.4,59.87995266302429,
19.6,315,1,0,1,-1,0,44,44,245,119.5585075999843,119.5585075999843,120.05898460000753,120.12554439995438,120.17598359996919,120.17598359996919,120.17598359996919,120.17598359996919,120.22615490003955,120.22615490003955,120.22615490003955,120.22615490003955,120.22615490003955,120.22615490003955,120.22615490003955,120.22615490003955,120.22615490003955,120.22615490003955,num_3,0.9974694000557065,121.24339319998398,121.24339319998398,None,,15,001,2025-12-23_14h47.00.085,2025C_exp1_detect,2022.2.4,59.87995266302429,
39.2,315,1,0,-1,0,0,45,45,34,121.24339319998398,121.24339319998398,121.74407270003576,121.81074250000529,121.86122259998228,121.86122259998228,121.86122259998228,121.86122259998228,121.91096330003347,121.91096330003347,121.91096330003347,121.91096330003347,121.91096330003347,121.91096330003347,121.91096330003347,121.91096330003347,121.91096330003347,121.91096330003347,num_1,0.8233699999982491,122.76166279998142,122.76166279998142,None,,15,001,2025-12-23_14h47.00.085,2025C_exp1_detect,2022.2.4,59.87995266302429,
22.7,315,1,0,-1,0,0,46,46,30,122.76166279998142,122.76166279998142,123.2621833999874,123.32907009997871,123.37937660003081,123.37937660003081,123.37937660003081,123.37937660003081,123.4291116000386,123.4291116000386,123.4291116000386,123.4291116000386,123.4291116000386,123.4291116000386,123.4291116000386,123.4291116000386,123.4291116000386,123.4291116000386,num_1,0.5936105999862775,124.04615639999975,124.04615639999975,None,,15,001,2025-12-23_14h47.00.085,2025C_exp1_detect,2022.2.4,59.87995266302429,
19.6,45,1,0,-1,0,0,47,47,20,124.04615639999975,124.04615639999975,124.54667429998517,124.61366130004171,124.66397260001395,124.66397260001395,124.66397260001395,124.66397260001395,124.71368679997977,124.71368679997977,124.71368679997977,124.71368679997977,124.71368679997977,124.71368679997977,124.71368679997977,124.71368679997977,124.71368679997977,124.71368679997977,num_1,0.5817963000154123,125.31410630000755,125.31410630000755,None,,15,001,2025-12-23_14h47.00.085,2025C_exp1_detect,2022.2.4,59.87995266302429,
19.6,315,1,0,1,0,0,48,48,101,125.31410630000755,125.31410630000755,125.8150152999442,125.88172659999691,125.93204769992735,125.93204769992735,125.93204769992735,125.93204769992735,125.98195669997949,125.98195669997949,125.98195669997949,125.98195669997949,125.98195669997949,125.98195669997949,125.98195669997949,125.98195669997949,125.98195669997949,125.98195669997949,num_3,0.8092507000546902,126.8157315000426,126.8157315000426,None,,15,001,2025-12-23_14h47.00.085,2025C_exp1_detect,2022.2.4,59.87995266302429,
12.1,45,0,0,1,-1,0,49,49,216,126.8157315000426,126.8157315000426,127.3164090999635,127.3830909000244,127.4334049000172,127.4334049000172,127.4334049000172,127.4334049000172,127.48321520001628,127.48321520001628,127.48321520001628,127.48321520001628,127.48321520001628,127.48321520001628,127.48321520001628,127.48321520001628,127.48321520001628,127.48321520001628,num_1,0.7872517999494448,128.30048720003106,128.30048720003106,None,,15,001,2025-12-23_14h47.00.085,2025C_exp1_detect,2022.2.4,59.87995266302429,
29.4,315,0,0,1,-1,0,50,50,230,128.30048720003106,128.30048720003106,128.80123540002387,128.867937300005,128.91807619994506,128.91807619994506,128.91807619994506,128.91807619994506,128.96808389993384,128.96808389993384,128.96808389993384,128.96808389993384,128.96808389993384,128.96808389993384,128.96808389993384,128.96808389993384,128.96808389993384,128.96808389993384,num_1,0.7023811999242753,129.70188349997625,129.70188349997625,None,,15,001,2025-12-23_14h47.00.085,2025C_exp1_detect,2022.2.4,59.87995266302429,
35.3,315,0,1,1,-1,0,51,51,267,129.70188349997625,129.70188349997625,130.20262470003217,130.26930649997666,130.31964150001295,130.31964150001295,130.31964150001295,130.31964150001295,130.36955049994867,130.36955049994867,130.36955049994867,130.36955049994867,130.36955049994867,130.36955049994867,130.36955049994867,130.36955049994867,130.36955049994867,130.36955049994867,num_1,0.5657555999932811,130.95319479994942,130.95319479994942,None,,15,001,2025-12-23_14h47.00.085,2025C_exp1_detect,2022.2.4,59.87995266302429,
19.6,45,1,1,-1,0,0,52,52,56,130.95319479994942,130.95319479994942,131.45374399994034,131.52059379999992,131.5709112000186,131.5709112000186,131.5709112000186,131.5709112000186,131.62077539996244,131.62077539996244,131.62077539996244,131.62077539996244,131.62077539996244,131.62077539996244,131.62077539996244,131.62077539996244,131.62077539996244,131.62077539996244,num_3,0.8266876999987289,132.4712683999678,132.4712683999678,None,,15,001,2025-12-23_14h47.00.085,2025C_exp1_detect,2022.2.4,59.87995266302429,
25.5,315,0,1,1,1,0,53,53,409,132.4712683999678,132.4712683999678,132.97204080002848,133.0387791999383,133.08920139994007,133.08920139994007,133.08920139994007,133.08920139994007,133.13905320002232,133.13905320002232,133.13905320002232,133.13905320002232,133.13905320002232,133.13905320002232,133.13905320002232,133.13905320002232,133.13905320002232,133.13905320002232,num_1,0.8116185000399128,133.9730432999786,133.9730432999786,None,,15,001,2025-12-23_14h47.00.085,2025C_exp1_detect,2022.2.4,59.87995266302429,
35.3,315,0,1,1,0,0,54,54,123,133.9730432999786,133.9730432999786,134.47364420001395,134.54018340003677,134.5906189000234,134.5906189000234,134.5906189000234,134.5906189000234,134.64025439997204,134.64025439997204,134.64025439997204,134.64025439997204,134.64025439997204,134.64025439997204,134.64025439997204,134.64025439997204,134.64025439997204,134.64025439997204,num_1,0.742415799992159,135.40752529993188,135.40752529993188,None,,15,001,2025-12-23_14h47.00.085,2025C_exp1_detect,2022.2.4,59.87995266302429,
25.5,45,0,0,-1,0,0,55,55,4,135.40752529993188,135.40752529993188,135.9083531999495,135.97502449993044,136.02532999997493,136.02532999997493,136.02532999997493,136.02532999997493,136.0751958999317,136.0751958999317,136.0751958999317,136.0751958999317,136.0751958999317,136.0751958999317,136.0751958999317,136.0751958999317,136.0751958999317,136.0751958999317,num_3,0.811249400023371,136.9092871999601,136.9092871999601,None,,15,001,2025-12-23_14h47.00.085,2025C_exp1_detect,2022.2.4,59.87995266302429,
35.3,315,1,0,1,0,0,56,56,105,136.9092871999601,136.9092871999601,137.40984570002183,137.47662169998512,137.52685779996682,137.52685779996682,137.52685779996682,137.52685779996682,137.57662389997859,137.57662389997859,137.57662389997859,137.57662389997859,137.57662389997859,137.57662389997859,137.57662389997859,137.57662389997859,137.57662389997859,137.57662389997859,num_3,0.9664819999597967,138.56072920002043,138.56072920002043,None,,15,001,2025-12-23_14h47.00.085,2025C_exp1_detect,2022.2.4,59.87995266302429,
15.7,315,0,1,-1,-1,0,57,57,190,138.56072920002043,138.56072920002043,139.0617418999318,139.12829569994938,139.17876239994075,139.17876239994075,139.17876239994075,139.17876239994075,139.22863369993865,139.22863369993865,139.22863369993865,139.22863369993865,139.22863369993865,139.22863369993865,139.22863369993865,139.22863369993865,139.22863369993865,139.22863369993865,num_3,0.8493846000637859,140.0955430000322,140.0955430000322,None,,15,001,2025-12-23_14h47.00.085,2025C_exp1_detect,2022.2.4,59.87995266302429,
29.4,45,0,1,1,-1,0,58,58,257,140.0955430000322,140.0955430000322,140.5961423999397,140.66303189995233,140.71336399996653,140.71336399996653,140.71336399996653,140.71336399996653,140.76324070000555,140.76324070000555,140.76324070000555,140.76324070000555,140.76324070000555,140.76324070000555,140.76324070000555,140.76324070000555,140.76324070000555,140.76324070000555,num_1,0.6832014999818057,141.46384079998825,141.46384079998825,None,,15,001,2025-12-23_14h47.00.085,2025C_exp1_detect,2022.2.4,59.87995266302429,
39.2,315,1,0,-1,-1,0,59,59,178,141.46384079998825,141.46384079998825,141.96432180004194,142.03119450004306,142.08154079993255,142.08154079993255,142.08154079993255,142.08154079993255,142.13116909994278,142.13116909994278,142.13116909994278,142.13116909994278,142.13116909994278,142.13116909994278,142.13116909994278,142.13116909994278,142.13116909994278,142.13116909994278,num_1,0.7315966000314802,142.88170020002872,142.88170020002872,None,,15,001,2025-12-23_14h47.00.085,2025C_exp1_detect,2022.2.4,59.87995266302429,
35.3,45,0,0,-1,0,0,60,60,6,142.88170020002872,142.88170020002872,143.38250970002264,143.4492096999893,143.49952009995468,143.49952009995468,143.49952009995468,143.49952009995468,143.54936489998363,143.54936489998363,143.54936489998363,143.54936489998363,143.54936489998363,143.54936489998363,143.54936489998363,143.54936489998363,143.54936489998363,143.54936489998363,num_1,0.6658130999421701,144.23303110001143,144.23303110001143,None,,15,001,2025-12-23_14h47.00.085,2025C_exp1_detect,2022.2.4,59.87995266302429,
12.1,45,1,1,-1,1,0,61,61,342,144.23303110001143,144.23303110001143,144.73384550004266,144.80051179998554,144.8507306999527,144.8507306999527,144.8507306999527,144.8507306999527,144.9007324000122,144.9007324000122,144.9007324000122,144.9007324000122,144.9007324000122,144.9007324000122,144.9007324000122,144.9007324000122,144.9007324000122,144.9007324000122,num_3,0.7064440000103787,145.63446259999182,145.63446259999182,None,,15,001,2025-12-23_14h47.00.085,2025C_exp1_detect,2022.2.4,59.87995266302429,
35.3,315,1,1,1,1,0,62,62,429,145.63446259999182,145.63446259999182,146.1352219999535,146.2018235999858,146.2521954999538,146.2521954999538,146.2521954999538,146.2521954999538,146.30207089998294,146.30207089998294,146.30207089998294,146.30207089998294,146.30207089998294,146.30207089998294,146.30207089998294,146.30207089998294,146.30207089998294,146.30207089998294,num_1,0.712441400042735,147.03579490003176,147.03579490003176,None,,15,001,2025-12-23_14h47.00.085,2025C_exp1_detect,2022.2.4,59.87995266302429,
12.1,45,1,0,-1,0,0,63,63,18,147.03579490003176,147.03579490003176,147.53683250001632,147.6035850000335,147.65383550000843,147.65383550000843,147.65383550000843,147.65383550000843,147.7034866999602,147.7034866999602,147.7034866999602,147.7034866999602,147.7034866999602,147.7034866999602,147.7034866999602,147.7034866999602,147.7034866999602,147.7034866999602,num_3,0.7670369000406936,148.4872500000056,148.4872500000056,None,,15,001,2025-12-23_14h47.00.085,2025C_exp1_detect,2022.2.4,59.87995266302429,
19.6,45,0,1,-1,1,0,64,64,326,148.4872500000056,148.4872500000056,148.98775229998864,149.0547514000209,149.1047685999656,149.1047685999656,149.1047685999656,149.1047685999656,149.15493680001236,149.15493680001236,149.15493680001236,149.15493680001236,149.15493680001236,149.15493680001236,149.15493680001236,149.15493680001236,149.15493680001236,149.15493680001236,num_3,1.0036194999702275,150.1890103999758,150.1890103999758,None,,15,001,2025-12-23_14h47.00.085,2025C_exp1_detect,2022.2.4,59.87995266302429,
22.7,45,0,1,-1,0,0,65,65,39,150.1890103999758,150.1890103999758,150.68999530002475,150.75658990000375,150.80687369999941,150.80687369999941,150.80687369999941,150.80687369999941,150.8566316999495,150.8566316999495,150.8566316999495,150.8566316999495,150.8566316999495,150.8566316999495,150.8566316999495,150.8566316999495,150.8566316999495,150.8566316999495,num_3,1.0215801999438554,151.90746280003805,151.90746280003805,None,,15,001,2025-12-23_14h47.00.085,2025C_exp1_detect,2022.2.4,59.87995266302429,
42.7,45,1,1,-1,0,0,66,66,62,151.90746280003805,151.90746280003805,152.40812459995504,152.47474169998895,152.52503419993445,152.52503419993445,152.52503419993445,152.52503419993445,152.57503039995208,152.57503039995208,152.57503039995208,152.57503039995208,152.57503039995208,152.57503039995208,152.57503039995208,152.57503039995208,152.57503039995208,152.57503039995208,num_1,0.7438700000056997,153.3423601000104,153.3423601000104,None,,15,001,2025-12-23_14h47.00.085,2025C_exp1_detect,2022.2.4,59.87995266302429,
29.4,315,0,1,1,1,0,67,67,410,153.3423601000104,153.3423601000104,153.84283610002603,153.90959880000446,153.95991360000335,153.95991360000335,153.95991360000335,153.95991360000335,154.0097866000142,154.0097866000142,154.0097866000142,154.0097866000142,154.0097866000142,154.0097866000142,154.0097866000142,154.0097866000142,154.0097866000142,154.0097866000142,num_1,0.7488449999364093,154.7768764999928,154.7768764999928,None,,15,001,2025-12-23_14h47.00.085,2025C_exp1_detect,2022.2.4,59.87995266302429,
25.5,45,1,0,-1,0,0,68,68,22,154.7768764999928,154.7768764999928,155.2777083000401,155.3441139999777,155.39464019995648,155.39464019995648,155.39464019995648,155.39464019995648,155.44478579994757,155.44478579994757,155.44478579994757,155.44478579994757,155.44478579994757,155.44478579994757,155.44478579994757,155.44478579994757,155.44478579994757,155.44478579994757,num_1,0.6342506000073627,156.09511919994839,156.09511919994839,None,,15,001,2025-12-23_14h47.00.085,2025C_exp1_detect,2022.2.4,59.87995266302429,
19.6,315,0,1,1,1,0,69,69,407,156.09511919994839,156.09511919994839,156.5955696000019,156.6623684000224,156.71270389994606,156.71270389994606,156.71270389994606,156.71270389994606,156.76253419998102,156.76253419998102,156.76253419998102,156.76253419998102,156.76253419998102,156.76253419998102,156.76253419998102,156.76253419998102,156.76253419998102,156.76253419998102,num_1,0.547735899919644,157.3295027000131,157.3295027000131,None,,15,001,2025-12-23_14h47.00.085,2025C_exp1_detect,2022.2.4,59.87995266302429,
12.1,315,1,1,-1,0,0,70,70,63,157.3295027000131,157.3295027000131,157.83043089997955,157.89721309999004,157.94751800002996,157.94751800002996,157.94751800002996,157.94751800002996,157.99729770002887,157.99729770002887,157.99729770002887,157.99729770002887,157.99729770002887,157.99729770002887,157.99729770002887,157.99729770002887,157.99729770002887,157.99729770002887,num_3,1.0571262000594288,159.08127830002923,159.08127830002923,None,,15,001,2025-12-23_14h47.00.085,2025C_exp1_detect,2022.2.4,59.87995266302429,
22.7,315,1,0,-1,1,0,71,71,318,159.08127830002923,159.08127830002923,159.58208309998736,159.64892659999896,159.69924859993625,159.69924859993625,159.69924859993625,159.69924859993625,159.7488238000078,159.7488238000078,159.7488238000078,159.7488238000078,159.7488238000078,159.7488238000078,159.7488238000078,159.7488238000078,159.7488238000078,159.7488238000078,num_1,0.5940235999878496,160.36592859996017,160.36592859996017,None,,15,001,2025-12-23_14h47.00.085,2025C_exp1_detect,2022.2.4,59.87995266302429,
22.7,45,0,0,1,-1,0,72,72,219,160.36592859996017,160.36592859996017,160.86655399994925,160.93327299994417,160.9834736000048,160.9834736000048,160.9834736000048,160.9834736000048,161.03331760002766,161.03331760002766,161.03331760002766,161.03331760002766,161.03331760002766,161.03331760002766,161.03331760002766,161.03331760002766,161.03331760002766,161.03331760002766,num_1,0.9258492999942973,161.98419889993966,161.98419889993966,None,,15,001,2025-12-23_14h47.00.085,2025C_exp1_detect,2022.2.4,59.87995266302429,
42.7,45,0,1,1,0,0,73,73,116,161.98419889993966,161.98419889993966,162.4847542999778,162.5514661000343,162.60190619993955,162.60190619993955,162.60190619993955,162.60190619993955,162.65170149994083,162.65170149994083,162.65170149994083,162.65170149994083,162.65170149994083,162.65170149994083,162.65170149994083,162.65170149994083,162.65170149994083,162.65170149994083,num_1,0.7636114000342786,163.43551280000247,163.43551280000247,None,,15,001,2025-12-23_14h47.00.085,2025C_exp1_detect,2022.2.4,59.87995266302429,
22.7,315,1,1,1,-1,0,74,74,282,163.43551280000247,163.43551280000247,163.93657140003052,164.00329959997907,164.05306029994972,164.05306029994972,164.05306029994972,164.05306029994972,164.10320689994842,164.10320689994842,164.10320689994842,164.10320689994842,164.10320689994842,164.10320689994842,164.10320689994842,164.10320689994842,164.10320689994842,164.10320689994842,num_1,0.6950764999492094,164.82026509998832,164.82026509998832,None,,15,001,2025-12-23_14h47.00.085,2025C_exp1_detect,2022.2.4,59.87995266302429,
22.7,315,0,0,-1,-1,0,75,75,156,164.82026509998832,164.82026509998832,165.32121640001424,165.38771879998967,165.4379442000063,165.4379442000063,165.4379442000063,165.4379442000063,165.48778600001242,165.48778600001242,165.48778600001242,165.48778600001242,165.48778600001242,165.48778600001242,165.48778600001242,165.48778600001242,165.48778600001242,165.48778600001242,num_1,1.2306244999635965,166.73905929992907,166.73905929992907,None,,15,001,2025-12-23_14h47.00.085,2025C_exp1_detect,2022.2.4,59.87995266302429,
29.4,315,1,0,1,-1,0,76,76,248,166.73905929992907,166.73905929992907,167.23964869999327,167.30624039995018,167.3568105000304,167.3568105000304,167.3568105000304,167.3568105000304,167.40629670000635,167.40629670000635,167.40629670000635,167.40629670000635,167.40629670000635,167.40629670000635,167.40629670000635,167.40629670000635,167.40629670000635,167.40629670000635,num_3,0.8887551999650896,168.32402229995932,168.32402229995932,None,,15,001,2025-12-23_14h47.00.085,2025C_exp1_detect,2022.2.4,59.87995266302429,
35.3,315,1,1,-1,-1,0,77,77,213,168.32402229995932,168.32402229995932,168.82452759996522,168.8912440999411,168.9414377999492,168.9414377999492,168.9414377999492,168.9414377999492,168.99146479996853,168.99146479996853,168.99146479996853,168.99146479996853,168.99146479996853,168.99146479996853,168.99146479996853,168.99146479996853,168.99146479996853,168.99146479996853,num_3,0.8230574000626802,169.84198619995732,169.84198619995732,None,,15,001,2025-12-23_14h47.00.085,2025C_exp1_detect,2022.2.4,59.87995266302429,
15.7,45,1,1,1,0,0,78,78,127,169.84198619995732,169.84198619995732,170.34239809995051,170.40946919994894,170.459621099988,170.459621099988,170.459621099988,170.459621099988,170.50959569995757,170.50959569995757,170.50959569995757,170.50959569995757,170.50959569995757,170.50959569995757,170.50959569995757,170.50959569995757,170.50959569995757,170.50959569995757,num_3,1.5046929999953136,172.0444105999777,172.0444105999777,None,,15,001,2025-12-23_14h47.00.085,2025C_exp1_detect,2022.2.4,59.87995266302429,
39.2,315,1,1,-1,0,0,79,79,70,172.0444105999777,172.0444105999777,172.54503379995003,172.61174109997228,172.6618468000088,172.6618468000088,172.6618468000088,172.6618468000088,172.7119234999409,172.7119234999409,172.7119234999409,172.7119234999409,172.7119234999409,172.7119234999409,172.7119234999409,172.7119234999409,172.7119234999409,172.7119234999409,num_3,1.04640859994106,173.77927890000865,173.77927890000865,None,,15,001,2025-12-23_14h47.00.085,2025C_exp1_detect,2022.2.4,59.87995266302429,
22.7,315,1,1,-1,0,0,80,80,66,173.77927890000865,173.77927890000865,174.27993389999028,174.3466718000127,174.39698249998037,174.39698249998037,174.39698249998037,174.39698249998037,174.44697459996678,174.44697459996678,174.44697459996678,174.44697459996678,174.44697459996678,174.44697459996678,174.44697459996678,174.44697459996678,174.44697459996678,174.44697459996678,num_3,0.8795336000621319,175.3476921999827,175.3476921999827,None,,15,001,2025-12-23_14h47.00.085,2025C_exp1_detect,2022.2.4,59.87995266302429,
12.1,315,0,1,1,0,0,81,81,117,175.3476921999827,175.3476921999827,175.8482140999986,175.9149175999919,175.96515359997284,175.96515359997284,175.96515359997284,175.96515359997284,176.01508549996652,176.01508549996652,176.01508549996652,176.01508549996652,176.01508549996652,176.01508549996652,176.01508549996652,176.01508549996652,176.01508549996652,176.01508549996652,num_1,0.7113088000332937,176.74880870000925,176.74880870000925,None,,15,001,2025-12-23_14h47.00.085,2025C_exp1_detect,2022.2.4,59.87995266302429,
42.7,45,0,0,-1,1,0,82,82,296,176.74880870000925,176.74880870000925,177.2496315999888,177.31622599996626,177.3666553000221,177.3666553000221,177.3666553000221,177.3666553000221,177.41640829993412,177.41640829993412,177.41640829993412,177.41640829993412,177.41640829993412,177.41640829993412,177.41640829993412,177.41640829993412,177.41640829993412,177.41640829993412,num_3,0.8303652000613511,178.26714489993174,178.26714489993174,None,,15,001,2025-12-23_14h47.00.085,2025C_exp1_detect,2022.2.4,59.87995266302429,
42.7,45,0,0,1,1,0,83,83,368,178.26714489993174,178.26714489993174,178.76792589994147,178.83462939993478,178.8849197999807,178.8849197999807,178.8849197999807,178.8849197999807,178.93484540004283,178.93484540004283,178.93484540004283,178.93484540004283,178.93484540004283,178.93484540004283,178.93484540004283,178.93484540004283,178.93484540004283,178.93484540004283,num_1,0.6883985999738798,179.65194489993155,179.65194489993155,None,,15,001,2025-12-23_14h47.00.085,2025C_exp1_detect,2022.2.4,59.87995266302429,
22.7,315,0,1,-1,1,0,84,84,336,179.65194489993155,179.65194489993155,180.1524647999322,180.21891029994003,180.26960090000648,180.26960090000648,180.26960090000648,180.26960090000648,180.31943919998594,180.31943919998594,180.31943919998594,180.31943919998594,180.31943919998594,180.31943919998594,180.31943919998594,180.31943919998594,180.31943919998594,180.31943919998594,num_3,0.7752602999098599,181.11984880000819,181.11984880000819,None,,15,001,2025-12-23_14h47.00.085,2025C_exp1_detect,2022.2.4,59.87995266302429,
19.6,45,0,0,1,1,0,85,85,362,181.11984880000819,181.11984880000819,181.62081699992996,181.6872342999559,181.73762659996282,181.73762659996282,181.73762659996282,181.73762659996282,181.7875165999867,181.7875165999867,181.7875165999867,181.7875165999867,181.7875165999867,181.7875165999867,181.7875165999867,181.7875165999867,181.7875165999867,181.7875165999867,num_1,0.7398445000872016,182.5550028999569,182.5550028999569,None,,15,001,2025-12-23_14h47.00.085,2025C_exp1_detect,2022.2.4,59.87995266302429,
12.1,45,1,1,1,0,0,86,86,126,182.5550028999569,182.5550028999569,183.0553178000264,183.12215589999687,183.17240989999846,183.17240989999846,183.17240989999846,183.17240989999846,183.2222119999351,183.2222119999351,183.2222119999351,183.2222119999351,183.2222119999351,183.2222119999351,183.2222119999351,183.2222119999351,183.2222119999351,183.2222119999351,num_1,0.760868199984543,184.00611900002696,184.00611900002696,None,,15,001,2025-12-23_14h47.00.085,2025C_exp1_detect,2022.2.4,59.87995266302429,
25.5,45,0,1,-1,0,0,87,87,40,184.00611900002696,184.00611900002696,184.50706540001556,184.57378700003028,184.6241052999394,184.6241052999394,184.6241052999394,184.6241052999394,184.67388359992765,184.67388359992765,184.67388359992765,184.67388359992765,184.67388359992765,184.67388359992765,184.67388359992765,184.67388359992765,184.67388359992765,184.67388359992765,num_3,0.7250254000537097,185.42413890000898,185.42413890000898,None,,15,001,2025-12-23_14h47.00.085,2025C_exp1_detect,2022.2.4,59.87995266302429,
25.5,315,1,0,1,1,0,88,88,391,185.42413890000898,185.42413890000898,185.92483010003343,185.99154960003216,186.0419393000193,186.0419393000193,186.0419393000193,186.0419393000193,186.09184340003412,186.09184340003412,186.09184340003412,186.09184340003412,186.09184340003412,186.09184340003412,186.09184340003412,186.09184340003412,186.09184340003412,186.09184340003412,num_3,0.8344450999284163,186.94234329997562,186.94234329997562,None,,15,001,2025-12-23_14h47.00.085,2025C_exp1_detect,2022.2.4,59.87995266302429,
29.4,45,0,0,-1,0,0,89,89,5,186.94234329997562,186.94234329997562,187.443262899993,187.51007439999375,187.5602332999697,187.5602332999697,187.5602332999697,187.5602332999697,187.61011020001024,187.61011020001024,187.61011020001024,187.61011020001024,187.61011020001024,187.61011020001024,187.61011020001024,187.61011020001024,187.61011020001024,187.61011020001024,num_3,0.781396699952893,188.4104472999461,188.4104472999461,None,,15,001,2025-12-23_14h47.00.085,2025C_exp1_detect,2022.2.4,59.87995266302429,
22.7,45,1,1,1,0,0,90,90,129,188.4104472999461,188.4104472999461,188.9112278999528,188.977997399983,189.028277699952,189.028277699952,189.028277699952,189.028277699952,189.07815339998342,189.07815339998342,189.07815339998342,189.07815339998342,189.07815339998342,189.07815339998342,189.07815339998342,189.07815339998342,189.07815339998342,189.07815339998342,num_1,0.4729881000239402,189.5783924999414,189.5783924999414,None,,15,001,2025-12-23_14h47.00.085,2025C_exp1_detect,2022.2.4,59.87995266302429,
19.6,315,1,1,-1,-1,0,91,91,209,189.5783924999414,189.5783924999414,190.07906869996805,190.14566979999654,190.19608859997243,190.19608859997243,190.19608859997243,190.19608859997243,190.2459555999376,190.2459555999376,190.2459555999376,190.2459555999376,190.2459555999376,190.2459555999376,190.2459555999376,190.2459555999376,190.2459555999376,190.2459555999376,num_1,0.6324298999970779,190.8963215999538,190.8963215999538,None,,15,001,2025-12-23_14h47.00.085,2025C_exp1_detect,2022.2.4,59.87995266302429,
35.3,315,0,1,-1,0,0,92,92,51,190.8963215999538,190.8963215999538,191.3971378999995,191.46384780004155,191.51411470002495,191.51411470002495,191.51411470002495,191.51411470002495,191.5638885999797,191.5638885999797,191.5638885999797,191.5638885999797,191.5638885999797,191.5638885999797,191.5638885999797,191.5638885999797,191.5638885999797,191.5638885999797,num_1,0.6187798000173643,192.21440940001048,192.21440940001048,None,,15,001,2025-12-23_14h47.00.085,2025C_exp1_detect,2022.2.4,59.87995266302429,
39.2,45,1,0,1,-1,0,93,93,241,192.21440940001048,192.21440940001048,192.71476619993336,192.7817587000318,192.83220649999566,192.83220649999566,192.83220649999566,192.83220649999566,192.88207039993722,192.88207039993722,192.88207039993722,192.88207039993722,192.88207039993722,192.88207039993722,192.88207039993722,192.88207039993722,192.88207039993722,192.88207039993722,num_3,0.765186799922958,193.66571490000933,193.66571490000933,None,,15,001,2025-12-23_14h47.00.085,2025C_exp1_detect,2022.2.4,59.87995266302429,
25.5,45,1,1,1,1,0,94,94,418,193.66571490000933,193.66571490000933,194.16629510000348,194.23322399996687,194.28354640002362,194.28354640002362,194.28354640002362,194.28354640002362,194.33340569993015,194.33340569993015,194.33340569993015,194.33340569993015,194.33340569993015,194.33340569993015,194.33340569993015,194.33340569993015,194.33340569993015,194.33340569993015,num_1,0.6809784000506625,195.03417060000356,195.03417060000356,None,,15,001,2025-12-23_14h47.00.085,2025C_exp1_detect,2022.2.4,59.87995266302429,
35.3,315,1,0,-1,-1,0,95,95,177,195.03417060000356,195.03417060000356,195.53467359999195,195.60152709996328,195.65173719997983,195.65173719997983,195.65173719997983,195.65173719997983,195.7015514000086,195.7015514000086,195.7015514000086,195.7015514000086,195.7015514000086,195.7015514000086,195.7015514000086,195.7015514000086,195.7015514000086,195.7015514000086,num_3,0.5685991999926046,196.3017388000153,196.3017388000153,None,,15,001,2025-12-23_14h47.00.085,2025C_exp1_detect,2022.2.4,59.87995266302429,
39.2,45,1,0,-1,1,0,96,96,313,196.3017388000153,196.3017388000153,196.80248099996243,196.8690568000311,196.9192074999446,196.9192074999446,196.9192074999446,196.9192074999446,196.96934710000642,196.96934710000642,196.96934710000642,196.96934710000642,196.96934710000642,196.96934710000642,196.96934710000642,196.96934710000642,196.96934710000642,196.96934710000642,num_3,0.6376465999055654,197.63674270000774,197.63674270000774,None,,15,001,2025-12-23_14h47.00.085,2025C_exp1_detect,2022.2.4,59.87995266302429,
15.7,315,1,1,-1,-1,0,97,97,208,197.63674270000774,197.63674270000774,198.13699439994525,198.20374180004,198.2541227999609,198.2541227999609,198.2541227999609,198.2541227999609,198.30402449995745,198.30402449995745,198.30402449995745,198.30402449995745,198.30402449995745,198.30402449995745,198.30402449995745,198.30402449995745,198.30402449995745,198.30402449995745,num_3,0.6941031999886036,199.0212641999824,199.0212641999824,None,,15,001,2025-12-23_14h47.00.085,2025C_exp1_detect,2022.2.4,59.87995266302429,
29.4,45,1,1,1,0,0,98,98,131,199.0212641999824,199.0212641999824,199.52163890004158,199.58858229999896,199.63879290001933,199.63879290001933,199.63879290001933,199.63879290001933,199.68875949992798,199.68875949992798,199.68875949992798,199.68875949992798,199.68875949992798,199.68875949992798,199.68875949992798,199.68875949992798,199.68875949992798,199.68875949992798,num_1,0.6547132999403402,200.3725437000394,200.3725437000394,None,,15,001,2025-12-23_14h47.00.085,2025C_exp1_detect,2022.2.4,59.87995266302429,
12.1,315,0,1,1,1,0,99,99,405,200.3725437000394,200.3725437000394,200.87311789998785,200.9398041999666,200.9901634999551,200.9901634999551,200.9901634999551,200.9901634999551,201.03988900000695,201.03988900000695,201.03988900000695,201.03988900000695,201.03988900000695,201.03988900000695,201.03988900000695,201.03988900000695,201.03988900000695,201.03988900000695,num_1,0.5988063999684528,201.65715779992752,201.65715779992752,None,,15,001,2025-12-23_14h47.00.085,2025C_exp1_detect,2022.2.4,59.87995266302429,
22.7,315,1,0,-1,-1,0,100,100,174,201.65715779992752,201.65715779992752,202.15784609992988,202.22468019998632,202.27483290003147,202.27483290003147,202.27483290003147,202.27483290003147,202.3247123999754,202.3247123999754,202.3247123999754,202.3247123999754,202.3247123999754,202.3247123999754,202.3247123999754,202.3247123999754,202.3247123999754,202.3247123999754,num_1,0.5461886000121012,202.89180159999523,202.89180159999523,None,,15,001,2025-12-23_14h47.00.085,2025C_exp1_detect,2022.2.4,59.87995266302429,
35.3,45,0,1,-1,0,0,101,101,42,202.89180159999523,202.89180159999523,203.39265579998028,203.45934329996817,203.5095239999937,203.5095239999937,203.5095239999937,203.5095239999937,203.5595644999994,203.5595644999994,203.5595644999994,203.5595644999994,203.5595644999994,203.5595644999994,203.5595644999994,203.5595644999994,203.5595644999994,203.5595644999994,num_3,0.775740799959749,204.35999939998146,204.35999939998146,None,,15,001,2025-12-23_14h47.00.085,2025C_exp1_detect,2022.2.4,59.87995266302429,
15.7,45,1,0,1,1,0,102,102,379,204.35999939998146,204.35999939998146,204.86051919998135,204.92726419994142,204.97746810002718,204.97746810002718,204.97746810002718,204.97746810002718,205.02733479999006,205.02733479999006,205.02733479999006,205.02733479999006,205.02733479999006,205.02733479999006,205.02733479999006,205.02733479999006,205.02733479999006,205.02733479999006,num_3,0.7641321000410244,205.81131359993014,205.81131359993014,None,,15,001,2025-12-23_14h47.00.085,2025C_exp1_detect,2022.2.4,59.87995266302429,
42.7,315,0,1,1,0,0,103,103,125,205.81131359993014,205.81131359993014,206.3122189999558,206.37892289995216,206.42921109998133,206.42921109998133,206.42921109998133,206.42921109998133,206.47915349993855,206.47915349993855,206.47915349993855,206.47915349993855,206.47915349993855,206.47915349993855,206.47915349993855,206.47915349993855,206.47915349993855,206.47915349993855,num_1,0.6243393999757245,207.1296888999641,207.1296888999641,None,,15,001,2025-12-23_14h47.00.085,2025C_exp1_detect,2022.2.4,59.87995266302429,
39.2,45,0,1,1,-1,0,104,104,259,207.1296888999641,207.1296888999641,207.6299139999319,207.6967468999792,207.74688580003567,207.74688580003567,207.74688580003567,207.74688580003567,207.79679849999957,207.79679849999957,207.79679849999957,207.79679849999957,207.79679849999957,207.79679849999957,207.79679849999957,207.79679849999957,207.79679849999957,207.79679849999957,num_1,0.5620098999934271,208.38054489996284,208.38054489996284,None,,15,001,2025-12-23_14h47.00.085,2025C_exp1_detect,2022.2.4,59.87995266302429,
22.7,45,1,0,1,0,0,105,105,93,208.38054489996284,208.38054489996284,208.88116450002417,208.94777979992796,208.99831369996537,208.99831369996537,208.99831369996537,208.99831369996537,209.04807230003644,209.04807230003644,209.04807230003644,209.04807230003644,209.04807230003644,209.04807230003644,209.04807230003644,209.04807230003644,209.04807230003644,209.04807230003644,num_3,0.7992551999632269,209.86535999993794,209.86535999993794,None,,15,001,2025-12-23_14h47.00.085,2025C_exp1_detect,2022.2.4,59.87995266302429,
42.7,315,0,1,-1,0,0,106,106,53,209.86535999993794,209.86535999993794,210.36585409997497,210.43260910001118,210.4829599999357,210.4829599999357,210.4829599999357,210.4829599999357,210.53261699993163,210.53261699993163,210.53261699993163,210.53261699993163,210.53261699993163,210.53261699993163,210.53261699993163,210.53261699993163,210.53261699993163,210.53261699993163,num_3,0.6814565999666229,211.2335004999768,211.2335004999768,None,,15,001,2025-12-23_14h47.00.085,2025C_exp1_detect,2022.2.4,59.87995266302429,
22.7,45,1,1,-1,-1,0,107,107,201,211.2335004999768,211.2335004999768,211.73407549993135,211.80077900004108,211.85111289995257,211.85111289995257,211.85111289995257,211.85111289995257,211.90095599996857,211.90095599996857,211.90095599996857,211.90095599996857,211.90095599996857,211.90095599996857,211.90095599996857,211.90095599996857,211.90095599996857,211.90095599996857,num_3,0.8973623000783846,212.8185520999832,212.8185520999832,space,64.3397673999425,15,001,2025-12-23_14h47.00.085,2025C_exp1_detect,2022.2.4,59.87995266302429,
22.7,315,0,0,1,0,0,108,108,84,277.18277600000147,277.18277600000147,277.68322909995914,277.74994759995025,277.8002415000228,277.8002415000228,277.8002415000228,277.8002415000228,277.85014839994255,277.85014839994255,277.85014839994255,277.85014839994255,277.85014839994255,277.85014839994255,277.85014839994255,277.85014839994255,277.85014839994255,277.85014839994255,num_3,0.7806605999357998,278.65090200002305,278.65090200002305,None,,15,001,2025-12-23_14h47.00.085,2025C_exp1_detect,2022.2.4,59.87995266302429,
22.7,45,1,0,1,1,0,109,109,381,278.65090200002305,278.65090200002305,279.1513670999557,279.2180857999483,279.2684086000081,279.2684086000081,279.2684086000081,279.2684086000081,279.3182847999269,279.3182847999269,279.3182847999269,279.3182847999269,279.3182847999269,279.3182847999269,279.3182847999269,279.3182847999269,279.3182847999269,279.3182847999269,num_3,0.9038657000055537,280.25249370001256,280.25249370001256,None,,15,001,2025-12-23_14h47.00.085,2025C_exp1_detect,2022.2.4,59.87995266302429,
42.7,45,0,1,-1,1,0,110,110,332,280.25249370001256,280.25249370001256,280.7530259999912,280.81981739995535,280.87012079998385,280.87012079998385,280.87012079998385,280.87012079998385,280.9198679999681,280.9198679999681,280.9198679999681,280.9198679999681,280.9198679999681,280.9198679999681,280.9198679999681,280.9198679999681,280.9198679999681,280.9198679999681,num_3,0.8151105999713764,281.75383309996687,281.75383309996687,None,,15,001,2025-12-23_14h47.00.085,2025C_exp1_detect,2022.2.4,59.87995266302429,
42.7,315,0,1,-1,-1,0,111,111,197,281.75383309996687,281.75383309996687,282.2547468999401,282.32149220001884,282.37176220002584,282.37176220002584,282.37176220002584,282.37176220002584,282.42163480003364,282.42163480003364,282.42163480003364,282.42163480003364,282.42163480003364,282.42163480003364,282.42163480003364,282.42163480003364,282.42163480003364,282.42163480003364,num_3,1.0255788000067696,283.4726113999495,283.4726113999495,None,,15,001,2025-12-23_14h47.00.085,2025C_exp1_detect,2022.2.4,59.87995266302429,
42.7,45,1,0,-1,1,0,112,112,314,283.4726113999495,283.4726113999495,283.97304970002733,284.0397183999885,284.0897590999957,284.0897590999957,284.0897590999957,284.0897590999957,284.1397264000261,284.1397264000261,284.1397264000261,284.1397264000261,284.1397264000261,284.1397264000261,284.1397264000261,284.1397264000261,284.1397264000261,284.1397264000261,num_1,0.5955019999528304,284.75682839995716,284.75682839995716,None,,15,001,2025-12-23_14h47.00.085,2025C_exp1_detect,2022.2.4,59.87995266302429,
42.7,315,1,1,1,-1,0,113,113,287,284.75682839995716,284.75682839995716,285.2574862999609,285.3241928999778,285.37448480003513,285.37448480003513,285.37448480003513,285.37448480003513,285.42436409997754,285.42436409997754,285.42436409997754,285.42436409997754,285.42436409997754,285.42436409997754,285.42436409997754,285.42436409997754,285.42436409997754,285.42436409997754,num_1,0.7261397000402212,286.174722500029,286.174722500029,None,,15,001,2025-12-23_14h47.00.085,2025C_exp1_detect,2022.2.4,59.87995266302429,
15.7,45,1,1,-1,1,0,114,114,343,286.174722500029,286.174722500029,286.6755461000139,286.7423456000397,286.792595100007,286.792595100007,286.792595100007,286.792595100007,286.84243419999257,286.84243419999257,286.84243419999257,286.84243419999257,286.84243419999257,286.84243419999257,286.84243419999257,286.84243419999257,286.84243419999257,286.84243419999257,num_3,0.9162071000318974,287.776345100021,287.776345100021,None,,15,001,2025-12-23_14h47.00.085,2025C_exp1_detect,2022.2.4,59.87995266302429,
12.1,315,1,0,1,1,0,115,115,387,287.776345100021,287.776345100021,288.2768758999882,288.34417209995445,288.3943694999907,288.3943694999907,288.3943694999907,288.3943694999907,288.44429200002924,288.44429200002924,288.44429200002924,288.44429200002924,288.44429200002924,288.44429200002924,288.44429200002924,288.44429200002924,288.44429200002924,288.44429200002924,num_3,0.9148662000661716,289.37811359995976,289.37811359995976,None,,15,001,2025-12-23_14h47.00.085,2025C_exp1_detect,2022.2.4,59.87995266302429,
35.3,45,1,1,-1,-1,0,116,116,204,289.37811359995976,289.37811359995976,289.8788118000375,289.94562879996374,289.99582269997336,289.99582269997336,289.99582269997336,289.99582269997336,290.0457280999981,290.0457280999981,290.0457280999981,290.0457280999981,290.0457280999981,290.0457280999981,290.0457280999981,290.0457280999981,290.0457280999981,290.0457280999981,num_1,0.6974696000106633,290.7629794999957,290.7629794999957,None,,15,001,2025-12-23_14h47.00.085,2025C_exp1_detect,2022.2.4,59.87995266302429,
19.6,315,1,0,-1,1,0,117,117,317,290.7629794999957,290.7629794999957,291.2633930000011,291.33009950001724,291.3804670999525,291.3804670999525,291.3804670999525,291.3804670999525,291.4302709000185,291.4302709000185,291.4302709000185,291.4302709000185,291.4302709000185,291.4302709000185,291.4302709000185,291.4302709000185,291.4302709000185,291.4302709000185,num_1,0.6808453999692574,292.1310199999716,292.1310199999716,None,,15,001,2025-12-23_14h47.00.085,2025C_exp1_detect,2022.2.4,59.87995266302429,
29.4,315,0,0,-1,-1,0,118,118,158,292.1310199999716,292.1310199999716,292.63147579994984,292.69822539994493,292.7484956999542,292.7484956999542,292.7484956999542,292.7484956999542,292.79839180002455,292.79839180002455,292.79839180002455,292.79839180002455,292.79839180002455,292.79839180002455,292.79839180002455,292.79839180002455,292.79839180002455,292.79839180002455,num_3,2.4956954000517726,295.31750160001684,295.31750160001684,None,,15,001,2025-12-23_14h47.00.085,2025C_exp1_detect,2022.2.4,59.87995266302429,
15.7,315,1,1,-1,1,0,119,119,352,295.31750160001684,295.31750160001684,295.8180325999856,295.8846739999717,295.9354743999429,295.9354743999429,295.9354743999429,295.9354743999429,295.9849185999483,295.9849185999483,295.9849185999483,295.9849185999483,295.9849185999483,295.9849185999483,295.9849185999483,295.9849185999483,295.9849185999483,295.9849185999483,num_3,0.798659999971278,296.80241470003966,296.80241470003966,None,,15,001,2025-12-23_14h47.00.085,2025C_exp1_detect,2022.2.4,59.87995266302429,
25.5,45,1,0,-1,-1,0,120,120,166,296.80241470003966,296.80241470003966,297.30289569997694,297.3695753000211,297.4198985999683,297.4198985999683,297.4198985999683,297.4198985999683,297.4695629000198,297.4695629000198,297.4695629000198,297.4695629000198,297.4695629000198,297.4695629000198,297.4695629000198,297.4695629000198,297.4695629000198,297.4695629000198,num_1,0.6090316000627354,298.10336149996147,298.10336149996147,None,,15,001,2025-12-23_14h47.00.085,2025C_exp1_detect,2022.2.4,59.87995266302429,
29.4,315,1,0,-1,-1,0,121,121,176,298.10336149996147,298.10336149996147,298.60433260002173,298.67060089996085,298.7211075000232,298.7211075000232,298.7211075000232,298.7211075000232,298.77118749998044,298.77118749998044,298.77118749998044,298.77118749998044,298.77118749998044,298.77118749998044,298.77118749998044,298.77118749998044,298.77118749998044,298.77118749998044,num_1,0.5313947999384254,299.3215325999772,299.3215325999772,None,,15,001,2025-12-23_14h47.00.085,2025C_exp1_detect,2022.2.4,59.87995266302429,
39.2,315,1,0,1,0,0,122,122,106,299.3215325999772,299.3215325999772,299.8220306999283,299.88865750003606,299.938787400024,299.938787400024,299.938787400024,299.938787400024,299.98892329994123,299.98892329994123,299.98892329994123,299.98892329994123,299.98892329994123,299.98892329994123,299.98892329994123,299.98892329994123,299.98892329994123,299.98892329994123,num_3,0.8893895000219345,300.9064706999343,300.9064706999343,None,,15,001,2025-12-23_14h47.00.085,2025C_exp1_detect,2022.2.4,59.87995266302429,
15.7,45,0,1,1,1,0,123,123,397,300.9064706999343,300.9064706999343,301.4069856000133,301.47364340000786,301.52381949999835,301.52381949999835,301.52381949999835,301.52381949999835,301.5736583999824,301.5736583999824,301.5736583999824,301.5736583999824,301.5736583999824,301.5736583999824,301.5736583999824,301.5736583999824,301.5736583999824,301.5736583999824,num_3,0.6730976999970153,302.27445989998523,302.27445989998523,None,,15,001,2025-12-23_14h47.00.085,2025C_exp1_detect,2022.2.4,59.87995266302429,
29.4,315,1,1,-1,1,0,124,124,356,302.27445989998523,302.27445989998523,302.77497110003605,302.84139289997984,302.89190609997604,302.89190609997604,302.89190609997604,302.89190609997604,302.94182810001075,302.94182810001075,302.94182810001075,302.94182810001075,302.94182810001075,302.94182810001075,302.94182810001075,302.94182810001075,302.94182810001075,302.94182810001075,num_3,0.920219499967061,303.8927423999412,303.8927423999412,None,,15,001,2025-12-23_14h47.00.085,2025C_exp1_detect,2022.2.4,59.87995266302429,
35.3,45,1,0,1,1,0,125,125,384,303.8927423999412,303.8927423999412,304.3932773999404,304.4599530999549,304.51028629997745,304.51028629997745,304.51028629997745,304.51028629997745,304.56014519999735,304.56014519999735,304.56014519999735,304.56014519999735,304.56014519999735,304.56014519999735,304.56014519999735,304.56014519999735,304.56014519999735,304.56014519999735,num_3,0.7820457000052556,305.3608978999546,305.3608978999546,None,,15,001,2025-12-23_14h47.00.085,2025C_exp1_detect,2022.2.4,59.87995266302429,
39.2,45,0,1,-1,0,0,126,126,43,305.3608978999546,305.3608978999546,305.86137739999685,305.92810839996673,305.97826579993125,305.97826579993125,305.97826579993125,305.97826579993125,306.02798240003176,306.02798240003176,306.02798240003176,306.02798240003176,306.02798240003176,306.02798240003176,306.02798240003176,306.02798240003176,306.02798240003176,306.02798240003176,num_3,0.9382775999838486,306.99556680000387,306.99556680000387,None,,15,001,2025-12-23_14h47.00.085,2025C_exp1_detect,2022.2.4,59.87995266302429,
39.2,45,0,1,1,1,0,127,127,403,306.99556680000387,306.99556680000387,307.49663800001144,307.5632245999295,307.6136226999806,307.6136226999806,307.6136226999806,307.6136226999806,307.66340419999324,307.66340419999324,307.66340419999324,307.66340419999324,307.66340419999324,307.66340419999324,307.66340419999324,307.66340419999324,307.66340419999324,307.66340419999324,num_1,0.6233631999930367,308.31411479995586,308.31411479995586,None,,15,001,2025-12-23_14h47.00.085,2025C_exp1_detect,2022.2.4,59.87995266302429,
19.6,45,0,0,-1,1,0,128,128,290,308.31411479995586,308.31411479995586,308.8144115000032,308.88119560002815,308.9314260999672,308.9314260999672,308.9314260999672,308.9314260999672,308.98137309995946,308.98137309995946,308.98137309995946,308.98137309995946,308.98137309995946,308.98137309995946,308.98137309995946,308.98137309995946,308.98137309995946,308.98137309995946,num_3,0.9373328000074252,309.9486590999877,309.9486590999877,None,,15,001,2025-12-23_14h47.00.085,2025C_exp1_detect,2022.2.4,59.87995266302429,
25.5,315,1,0,1,-1,0,129,129,247,309.9486590999877,309.9486590999877,310.4493123999564,310.516170399962,310.5663871000288,310.5663871000288,310.5663871000288,310.5663871000288,310.61614549998194,310.61614549998194,310.61614549998194,310.61614549998194,310.61614549998194,310.61614549998194,310.61614549998194,310.61614549998194,310.61614549998194,310.61614549998194,num_1,0.7105870000086725,311.35003969992977,311.35003969992977,None,,15,001,2025-12-23_14h47.00.085,2025C_exp1_detect,2022.2.4,59.87995266302429,
35.3,315,1,1,-1,1,0,130,130,357,311.35003969992977,311.35003969992977,311.8507785999682,311.9175156999845,311.96776949998457,311.96776949998457,311.96776949998457,311.96776949998457,312.0176548999734,312.0176548999734,312.0176548999734,312.0176548999734,312.0176548999734,312.0176548999734,312.0176548999734,312.0176548999734,312.0176548999734,312.0176548999734,num_3,0.8687124999705702,312.91833519993816,312.91833519993816,None,,15,001,2025-12-23_14h47.00.085,2025C_exp1_detect,2022.2.4,59.87995266302429,
39.2,45,0,0,1,1,0,131,131,367,312.91833519993816,312.91833519993816,313.41898900002707,313.485708000022,313.5360207000049,313.5360207000049,313.5360207000049,313.5360207000049,313.58583050000016,313.58583050000016,313.58583050000016,313.58583050000016,313.58583050000016,313.58583050000016,313.58583050000016,313.58583050000016,313.58583050000016,313.58583050000016,num_3,1.0048460999969393,314.6201663999818,314.6201663999818,None,,15,001,2025-12-23_14h47.00.085,2025C_exp1_detect,2022.2.4,59.87995266302429,
39.2,315,0,0,1,-1,0,132,132,232,314.6201663999818,314.6201663999818,315.12086549995,315.1876297999406,315.23778099997435,315.23778099997435,315.23778099997435,315.23778099997435,315.28724610002246,315.28724610002246,315.28724610002246,315.28724610002246,315.28724610002246,315.28724610002246,315.28724610002246,315.28724610002246,315.28724610002246,315.28724610002246,num_3,0.800094399950467,316.105130400043,316.105130400043,None,,15,001,2025-12-23_14h47.00.085,2025C_exp1_detect,2022.2.4,59.87995266302429,
15.7,315,0,0,-1,-1,0,133,133,154,316.105130400043,316.105130400043,316.6055374999996,316.6720430999994,316.72239809995517,316.72239809995517,316.72239809995517,316.72239809995517,316.772398400004,316.772398400004,316.772398400004,316.772398400004,316.772398400004,316.772398400004,316.772398400004,316.772398400004,316.772398400004,316.772398400004,num_3,1.1471383000025526,317.94025350001175,317.94025350001175,None,,15,001,2025-12-23_14h47.00.085,2025C_exp1_detect,2022.2.4,59.87995266302429,
42.7,315,0,1,1,-1,0,134,134,269,317.94025350001175,317.94025350001175,318.4407004000386,318.507450300036,318.5577067999402,318.5577067999402,318.5577067999402,318.5577067999402,318.60752289998345,318.60752289998345,318.60752289998345,318.60752289998345,318.60752289998345,318.60752289998345,318.60752289998345,318.60752289998345,318.60752289998345,318.60752289998345,num_1,0.6145915000233799,319.24139069998637,319.24139069998637,None,,15,001,2025-12-23_14h47.00.085,2025C_exp1_detect,2022.2.4,59.87995266302429,
35.3,315,1,0,1,-1,0,135,135,249,319.24139069998637,319.24139069998637,319.741964399931,319.8087315999437,319.8590161999455,319.8590161999455,319.8590161999455,319.8590161999455,319.90891270001885,319.90891270001885,319.90891270001885,319.90891270001885,319.90891270001885,319.90891270001885,319.90891270001885,319.90891270001885,319.90891270001885,319.90891270001885,num_3,0.8815442000050098,320.8097929999931,320.8097929999931,None,,15,001,2025-12-23_14h47.00.085,2025C_exp1_detect,2022.2.4,59.87995266302429,
22.7,45,1,1,1,-1,0,136,136,273,320.8097929999931,320.8097929999931,321.3100542000029,321.37685050000437,321.42719199997373,321.42719199997373,321.42719199997373,321.42719199997373,321.47704180004075,321.47704180004075,321.47704180004075,321.47704180004075,321.47704180004075,321.47704180004075,321.47704180004075,321.47704180004075,321.47704180004075,321.47704180004075,num_1,0.6581939999014139,322.16098769998644,322.16098769998644,None,,15,001,2025-12-23_14h47.00.085,2025C_exp1_detect,2022.2.4,59.87995266302429,
25.5,315,1,1,1,0,0,137,137,139,322.16098769998644,322.16098769998644,322.6615535999881,322.728113799938,322.77851880004164,322.77851880004164,322.77851880004164,322.77851880004164,322.8284308000002,322.8284308000002,322.8284308000002,322.8284308000002,322.8284308000002,322.8284308000002,322.8284308000002,322.8284308000002,322.8284308000002,322.8284308000002,num_1,0.6269573000026867,323.4789745999733,323.4789745999733,None,,15,001,2025-12-23_14h47.00.085,2025C_exp1_detect,2022.2.4,59.87995266302429,
22.7,45,0,0,-1,1,0,138,138,291,323.4789745999733,323.4789745999733,323.979642399936,324.04647750000004,324.09664729994256,324.09664729994256,324.09664729994256,324.09664729994256,324.1466625999892,324.1466625999892,324.1466625999892,324.1466625999892,324.1466625999892,324.1466625999892,324.1466625999892,324.1466625999892,324.1466625999892,324.1466625999892,num_3,0.6840953000355512,324.84693679993507,324.84693679993507,None,,15,001,2025-12-23_14h47.00.085,2025C_exp1_detect,2022.2.4,59.87995266302429,
19.6,315,1,1,1,1,0,139,139,425,324.84693679993507,324.84693679993507,325.34780739992857,325.41439169994555,325.46480379998684,325.46480379998684,325.46480379998684,325.46480379998684,325.51467459998094,325.51467459998094,325.51467459998094,325.51467459998094,325.51467459998094,325.51467459998094,325.51467459998094,325.51467459998094,325.51467459998094,325.51467459998094,num_1,0.6833527999697253,326.2152039000066,326.2152039000066,None,,15,001,2025-12-23_14h47.00.085,2025C_exp1_detect,2022.2.4,59.87995266302429,
15.7,315,1,1,1,1,0,140,140,424,326.2152039000066,326.2152039000066,326.7157099000178,326.78239029995166,326.83273130003363,326.83273130003363,326.83273130003363,326.83273130003363,326.88262269995175,326.88262269995175,326.88262269995175,326.88262269995175,326.88262269995175,326.88262269995175,326.88262269995175,326.88262269995175,326.88262269995175,326.88262269995175,num_1,0.5320444999961182,327.4330533000175,327.4330533000175,None,,15,001,2025-12-23_14h47.00.085,2025C_exp1_detect,2022.2.4,59.87995266302429,
12.1,315,0,1,-1,1,0,141,141,333,327.4330533000175,327.4330533000175,327.9336700999411,328.0004097999772,328.0507069999585,328.0507069999585,328.0507069999585,328.0507069999585,328.1004784000106,328.1004784000106,328.1004784000106,328.1004784000106,328.1004784000106,328.1004784000106,328.1004784000106,328.1004784000106,328.1004784000106,328.1004784000106,num_3,0.7306160998996347,328.851008299971,328.851008299971,None,,15,001,2025-12-23_14h47.00.085,2025C_exp1_detect,2022.2.4,59.87995266302429,
19.6,45,1,1,-1,-1,0,142,142,200,328.851008299971,328.851008299971,329.35155100002885,329.4183031999273,329.46857829997316,329.46857829997316,329.46857829997316,329.46857829997316,329.5183446999872,329.5183446999872,329.5183446999872,329.5183446999872,329.5183446999872,329.5183446999872,329.5183446999872,329.5183446999872,329.5183446999872,329.5183446999872,num_3,1.039755899924785,330.585858299979,330.585858299979,None,,15,001,2025-12-23_14h47.00.085,2025C_exp1_detect,2022.2.4,59.87995266302429,
12.1,45,1,0,-1,-1,0,143,143,162,330.585858299979,330.585858299979,331.0866220999742,331.15346729999874,331.20377170003485,331.20377170003485,331.20377170003485,331.20377170003485,331.2533556999406,331.2533556999406,331.2533556999406,331.2533556999406,331.2533556999406,331.2533556999406,331.2533556999406,331.2533556999406,331.2533556999406,331.2533556999406,num_1,0.6487034000456333,331.92049970000517,331.92049970000517,None,,15,001,2025-12-23_14h47.00.085,2025C_exp1_detect,2022.2.4,59.87995266302429,
19.6,45,0,1,-1,0,0,144,144,38,331.92049970000517,331.92049970000517,332.4214138999814,332.4881094000302,332.5384410000406,332.5384410000406,332.5384410000406,332.5384410000406,332.58818229997996,332.58818229997996,332.58818229997996,332.58818229997996,332.58818229997996,332.58818229997996,332.58818229997996,332.58818229997996,332.58818229997996,332.58818229997996,num_3,0.8586417000042275,333.4723271999974,333.4723271999974,None,,15,001,2025-12-23_14h47.00.085,2025C_exp1_detect,2022.2.4,59.87995266302429,
39.2,45,1,0,-1,0,0,145,145,25,333.4723271999974,333.4723271999974,333.9725460000336,334.0396885999944,334.0898878999287,334.0898878999287,334.0898878999287,334.0898878999287,334.1398127999855,334.1398127999855,334.1398127999855,334.1398127999855,334.1398127999855,334.1398127999855,334.1398127999855,334.1398127999855,334.1398127999855,334.1398127999855,num_3,0.771496000001207,334.9404279999435,334.9404279999435,None,,15,001,2025-12-23_14h47.00.085,2025C_exp1_detect,2022.2.4,59.87995266302429,
12.1,45,1,0,1,1,0,146,146,378,334.9404279999435,334.9404279999435,335.4408797000069,335.50769829994533,335.55797239998356,335.55797239998356,335.55797239998356,335.55797239998356,335.60789059998933,335.60789059998933,335.60789059998933,335.60789059998933,335.60789059998933,335.60789059998933,335.60789059998933,335.60789059998933,335.60789059998933,335.60789059998933,num_3,0.8313917999621481,336.4586539999582,336.4586539999582,None,,15,001,2025-12-23_14h47.00.085,2025C_exp1_detect,2022.2.4,59.87995266302429,
15.7,45,0,1,-1,0,0,147,147,37,336.4586539999582,336.4586539999582,336.9591197000118,337.02586649998557,337.0761611999478,337.0761611999478,337.0761611999478,337.0761611999478,337.1260108000133,337.1260108000133,337.1260108000133,337.1260108000133,337.1260108000133,337.1260108000133,337.1260108000133,337.1260108000133,337.1260108000133,337.1260108000133,num_3,0.8093835000181571,337.9600740999449,337.9600740999449,None,,15,001,2025-12-23_14h47.00.085,2025C_exp1_detect,2022.2.4,59.87995266302429,
29.4,315,1,0,-1,1,0,148,148,320,337.9600740999449,337.9600740999449,338.4608086999506,338.5274867999833,338.57780039997306,338.57780039997306,338.57780039997306,338.57780039997306,338.6278118999908,338.6278118999908,338.6278118999908,338.6278118999908,338.6278118999908,338.6278118999908,338.6278118999908,338.6278118999908,338.6278118999908,338.6278118999908,num_1,0.643210299895145,339.2950348999584,339.2950348999584,None,,15,001,2025-12-23_14h47.00.085,2025C_exp1_detect,2022.2.4,59.87995266302429,
29.4,315,1,1,-1,0,0,149,149,68,339.2950348999584,339.2950348999584,339.79517089994624,339.86200920003466,339.9122842999641,339.9122842999641,339.9122842999641,339.9122842999641,339.96224969998,339.96224969998,339.96224969998,339.96224969998,339.96224969998,339.96224969998,339.96224969998,339.96224969998,339.96224969998,339.96224969998,num_1,0.7001987000694498,340.67937329993583,340.67937329993583,None,,15,001,2025-12-23_14h47.00.085,2025C_exp1_detect,2022.2.4,59.87995266302429,
22.7,315,0,1,-1,0,0,150,150,48,340.67937329993583,340.67937329993583,341.18014089995995,341.24674540001433,341.29702699999325,341.29702699999325,341.29702699999325,341.29702699999325,341.3466067999834,341.3466067999834,341.3466067999834,341.3466067999834,341.3466067999834,341.3466067999834,341.3466067999834,341.3466067999834,341.3466067999834,341.3466067999834,num_3,0.7883767000166699,342.16413819999434,342.16413819999434,None,,15,001,2025-12-23_14h47.00.085,2025C_exp1_detect,2022.2.4,59.87995266302429,
35.3,45,0,0,1,0,0,151,151,78,342.16413819999434,342.16413819999434,342.6647871999303,342.7316308999434,342.7820003000088,342.7820003000088,342.7820003000088,342.7820003000088,342.83168519998435,342.83168519998435,342.83168519998435,342.83168519998435,342.83168519998435,342.83168519998435,342.83168519998435,342.83168519998435,342.83168519998435,342.83168519998435,num_3,0.8868182000005618,343.7490877000382,343.7490877000382,None,,15,001,2025-12-23_14h47.00.085,2025C_exp1_detect,2022.2.4,59.87995266302429,
29.4,45,1,0,-1,0,0,152,152,23,343.7490877000382,343.7490877000382,344.24972560000606,344.3164732999867,344.36650739994366,344.36650739994366,344.36650739994366,344.36650739994366,344.4164946000092,344.4164946000092,344.4164946000092,344.4164946000092,344.4164946000092,344.4164946000092,344.4164946000092,344.4164946000092,344.4164946000092,344.4164946000092,num_1,0.7421474999282509,345.1840226999484,345.1840226999484,None,,15,001,2025-12-23_14h47.00.085,2025C_exp1_detect,2022.2.4,59.87995266302429,
25.5,315,1,1,-1,1,0,153,153,355,345.1840226999484,345.1840226999484,345.68452479992993,345.75106239994057,345.80151999997906,345.80151999997906,345.80151999997906,345.80151999997906,345.85142469999846,345.85142469999846,345.85142469999846,345.85142469999846,345.85142469999846,345.85142469999846,345.85142469999846,345.85142469999846,345.85142469999846,345.85142469999846,num_3,0.8990397000452504,346.7689798999345,346.7689798999345,None,,15,001,2025-12-23_14h47.00.085,2025C_exp1_detect,2022.2.4,59.87995266302429,
12.1,45,0,1,-1,1,0,154,154,324,346.7689798999345,346.7689798999345,347.26932129997294,347.33604059997015,347.3863502999302,347.3863502999302,347.3863502999302,347.3863502999302,347.436178999953,347.436178999953,347.436178999953,347.436178999953,347.436178999953,347.436178999953,347.436178999953,347.436178999953,347.436178999953,347.436178999953,num_3,0.9299076000461355,348.38707930000965,348.38707930000965,None,,15,001,2025-12-23_14h47.00.085,2025C_exp1_detect,2022.2.4,59.87995266302429,
25.5,45,0,0,1,-1,0,155,155,220,348.38707930000965,348.38707930000965,348.88760779995937,348.954345599981,349.0047396000009,349.0047396000009,349.0047396000009,349.0047396000009,349.054624899989,349.054624899989,349.054624899989,349.054624899989,349.054624899989,349.054624899989,349.054624899989,349.054624899989,349.054624899989,349.054624899989,num_1,0.6163553999504074,349.68837899994105,349.68837899994105,None,,15,001,2025-12-23_14h47.00.085,2025C_exp1_detect,2022.2.4,59.87995266302429,
42.7,45,1,1,1,-1,0,156,156,278,349.68837899994105,349.68837899994105,350.1890422999859,350.2556446000235,350.30604639998637,350.30604639998637,350.30604639998637,350.30604639998637,350.3558292000089,350.3558292000089,350.3558292000089,350.3558292000089,350.3558292000089,350.3558292000089,350.3558292000089,350.3558292000089,350.3558292000089,350.3558292000089,num_1,0.770526499953121,351.15656269993633,351.15656269993633,None,,15,001,2025-12-23_14h47.00.085,2025C_exp1_detect,2022.2.4,59.87995266302429,
15.7,45,1,1,-1,-1,0,157,157,199,351.15656269993633,351.15656269993633,351.65712540003005,351.7239949000068,351.7741978999693,351.7741978999693,351.7741978999693,351.7741978999693,351.82402639999054,351.82402639999054,351.82402639999054,351.82402639999054,351.82402639999054,351.82402639999054,351.82402639999054,351.82402639999054,351.82402639999054,351.82402639999054,num_1,0.6705822000512853,352.52468699996825,352.52468699996825,None,,15,001,2025-12-23_14h47.00.085,2025C_exp1_detect,2022.2.4,59.87995266302429,
39.2,315,1,1,1,1,0,158,158,430,352.52468699996825,352.52468699996825,353.0251639999915,353.0917082999367,353.14217689994257,353.14217689994257,353.14217689994257,353.14217689994257,353.1920082999859,353.1920082999859,353.1920082999859,353.1920082999859,353.1920082999859,353.1920082999859,353.1920082999859,353.1920082999859,353.1920082999859,353.1920082999859,num_1,0.622716800076887,353.84268130001146,353.84268130001146,None,,15,001,2025-12-23_14h47.00.085,2025C_exp1_detect,2022.2.4,59.87995266302429,
12.1,315,1,1,-1,-1,0,159,159,207,353.84268130001146,353.84268130001146,354.3432160000084,354.4099432999501,354.4602119999472,354.4602119999472,354.4602119999472,354.4602119999472,354.51009819994215,354.51009819994215,354.51009819994215,354.51009819994215,354.51009819994215,354.51009819994215,354.51009819994215,354.51009819994215,354.51009819994215,354.51009819994215,num_3,0.7451928000664338,355.27727319998667,355.27727319998667,None,,15,001,2025-12-23_14h47.00.085,2025C_exp1_detect,2022.2.4,59.87995266302429,
22.7,45,0,1,1,0,0,160,160,111,355.27727319998667,355.27727319998667,355.777950800024,355.84457810001913,355.89497459994163,355.89497459994163,355.89497459994163,355.89497459994163,355.9447474000044,355.9447474000044,355.9447474000044,355.9447474000044,355.9447474000044,355.9447474000044,355.9447474000044,355.9447474000044,355.9447474000044,355.9447474000044,num_1,0.6855500999372452,356.6622231999645,356.6622231999645,None,,15,001,2025-12-23_14h47.00.085,2025C_exp1_detect,2022.2.4,59.87995266302429,
29.4,45,1,1,1,1,0,161,161,419,356.6622231999645,356.6622231999645,357.16261090000626,357.229193200008,357.27965589996893,357.27965589996893,357.27965589996893,357.27965589996893,357.3295174000086,357.3295174000086,357.3295174000086,357.3295174000086,357.3295174000086,357.3295174000086,357.3295174000086,357.3295174000086,357.3295174000086,357.3295174000086,num_1,0.548957800026983,357.89661279995926,357.89661279995926,None,,15,001,2025-12-23_14h47.00.085,2025C_exp1_detect,2022.2.4,59.87995266302429,
42.7,45,0,0,-1,0,0,162,162,8,357.89661279995926,357.89661279995926,358.39722179993987,358.4639319999842,358.5142656000098,358.5142656000098,358.5142656000098,358.5142656000098,358.5641200999962,358.5641200999962,358.5641200999962,358.5641200999962,358.5641200999962,358.5641200999962,358.5641200999962,358.5641200999962,358.5641200999962,358.5641200999962,num_3,0.7064865999855101,359.2979645000305,359.2979645000305,None,,15,001,2025-12-23_14h47.00.085,2025C_exp1_detect,2022.2.4,59.87995266302429,
29.4,315,1,0,1,1,0,163,163,392,359.2979645000305,359.2979645000305,359.79862359992694,359.86516980000306,359.9155776000116,359.9155776000116,359.9155776000116,359.9155776000116,359.9654991000425,359.9654991000425,359.9654991000425,359.9654991000425,359.9654991000425,359.9654991000425,359.9654991000425,359.9654991000425,359.9654991000425,359.9654991000425,num_3,0.8010669000213966,360.7828987999819,360.7828987999819,None,,15,001,2025-12-23_14h47.00.085,2025C_exp1_detect,2022.2.4,59.87995266302429,
29.4,45,1,1,-1,1,0,164,164,347,360.7828987999819,360.7828987999819,361.2834498999873,361.350115200039,361.4004253000021,361.4004253000021,361.4004253000021,361.4004253000021,361.4500166999642,361.4500166999642,361.4500166999642,361.4500166999642,361.4500166999642,361.4500166999642,361.4500166999642,361.4500166999642,361.4500166999642,361.4500166999642,num_3,0.820691299973987,362.30110759998206,362.30110759998206,None,,15,001,2025-12-23_14h47.00.085,2025C_exp1_detect,2022.2.4,59.87995266302429,
29.4,45,1,0,1,0,0,165,165,95,362.30110759998206,362.30110759998206,362.801603000029,362.86835549992975,362.9186228000326,362.9186228000326,362.9186228000326,362.9186228000326,362.9685002999613,362.9685002999613,362.9685002999613,362.9685002999613,362.9685002999613,362.9685002999613,362.9685002999613,362.9685002999613,362.9685002999613,362.9685002999613,num_3,0.8947436000453308,363.88586949999444,363.88586949999444,None,,15,001,2025-12-23_14h47.00.085,2025C_exp1_detect,2022.2.4,59.87995266302429,
39.2,45,0,0,1,0,0,166,166,79,363.88586949999444,363.88586949999444,364.3865528999595,364.453137399978,364.5034091999987,364.5034091999987,364.5034091999987,364.5034091999987,364.55340540001635,364.55340540001635,364.55340540001635,364.55340540001635,364.55340540001635,364.55340540001635,364.55340540001635,364.55340540001635,364.55340540001635,364.55340540001635,num_3,0.8369011000031605,365.4207893999992,365.4207893999992,None,,15,001,2025-12-23_14h47.00.085,2025C_exp1_detect,2022.2.4,59.87995266302429,
12.1,45,1,0,1,0,0,167,167,90,365.4207893999992,365.4207893999992,365.92154679994565,365.9883867999306,366.03857289999723,366.03857289999723,366.03857289999723,366.03857289999723,366.0884232999524,366.0884232999524,366.0884232999524,366.0884232999524,366.0884232999524,366.0884232999524,366.0884232999524,366.0884232999524,366.0884232999524,366.0884232999524,num_3,0.7895648999838158,366.9056794999633,366.9056794999633,None,,15,001,2025-12-23_14h47.00.085,2025C_exp1_detect,2022.2.4,59.87995266302429,
29.4,315,1,1,1,-1,0,168,168,284,366.9056794999633,366.9056794999633,367.4061968999449,367.4729887000285,367.52330080000684,367.52330080000684,367.52330080000684,367.52330080000684,367.57326500001363,367.57326500001363,367.57326500001363,367.57326500001363,367.57326500001363,367.57326500001363,367.57326500001363,367.57326500001363,367.57326500001363,367.57326500001363,num_1,0.6250892999814823,368.22374279994983,368.22374279994983,None,,15,001,2025-12-23_14h47.00.085,2025C_exp1_detect,2022.2.4,59.87995266302429,
35.3,45,0,0,1,1,0,169,169,366,368.22374279994983,368.22374279994983,368.72406439995393,368.7908992000157,368.8412240999751,368.8412240999751,368.8412240999751,368.8412240999751,368.8910697000101,368.8910697000101,368.8910697000101,368.8910697000101,368.8910697000101,368.8910697000101,368.8910697000101,368.8910697000101,368.8910697000101,368.8910697000101,num_1,0.6509917000075802,369.55839230003767,369.55839230003767,None,,15,001,2025-12-23_14h47.00.085,2025C_exp1_detect,2022.2.4,59.87995266302429,
19.6,315,0,1,-1,1,0,170,170,335,369.55839230003767,369.55839230003767,370.05914080003276,370.1258276000153,370.1760038000066,370.1760038000066,370.1760038000066,370.1760038000066,370.2258579999907,370.2258579999907,370.2258579999907,370.2258579999907,370.2258579999907,370.2258579999907,370.2258579999907,370.2258579999907,370.2258579999907,370.2258579999907,num_3,0.7800767000298947,371.0264275999507,371.0264275999507,None,,15,001,2025-12-23_14h47.00.085,2025C_exp1_detect,2022.2.4,59.87995266302429,
35.3,45,0,1,1,0,0,171,171,114,371.0264275999507,371.0264275999507,371.52691210003104,371.593785700039,371.6440429999493,371.6440429999493,371.6440429999493,371.6440429999493,371.6938077999512,371.6938077999512,371.6938077999512,371.6938077999512,371.6938077999512,371.6938077999512,371.6938077999512,371.6938077999512,371.6938077999512,371.6938077999512,num_1,0.5928180000046268,372.3111557000084,372.3111557000084,None,,15,001,2025-12-23_14h47.00.085,2025C_exp1_detect,2022.2.4,59.87995266302429,
25.5,45,1,0,1,1,0,172,172,382,372.3111557000084,372.3111557000084,372.8116590999998,372.87834669998847,372.9286928999936,372.9286928999936,372.9286928999936,372.9286928999936,372.9784257999854,372.9784257999854,372.9784257999854,372.9784257999854,372.9784257999854,372.9784257999854,372.9784257999854,372.9784257999854,372.9784257999854,372.9784257999854,num_3,0.7397349999519065,373.7457246000413,373.7457246000413,None,,15,001,2025-12-23_14h47.00.085,2025C_exp1_detect,2022.2.4,59.87995266302429,
39.2,45,0,1,-1,1,0,173,173,331,373.7457246000413,373.7457246000413,374.24618359992746,374.31300329999067,374.36307540000416,374.36307540000416,374.36307540000416,374.36307540000416,374.41306079993956,374.41306079993956,374.41306079993956,374.41306079993956,374.41306079993956,374.41306079993956,374.41306079993956,374.41306079993956,374.41306079993956,374.41306079993956,num_3,0.7455756000708789,375.1806460999651,375.1806460999651,None,,15,001,2025-12-23_14h47.00.085,2025C_exp1_detect,2022.2.4,59.87995266302429,
29.4,315,1,1,1,1,0,174,174,428,375.1806460999651,375.1806460999651,375.681293200003,375.7479822000023,375.7983025999274,375.7983025999274,375.7983025999274,375.7983025999274,375.8481658999808,375.8481658999808,375.8481658999808,375.8481658999808,375.8481658999808,375.8481658999808,375.8481658999808,375.8481658999808,375.8481658999808,375.8481658999808,num_1,0.5820435000350699,376.44855550001375,376.44855550001375,None,,15,001,2025-12-23_14h47.00.085,2025C_exp1_detect,2022.2.4,59.87995266302429,
29.4,45,0,1,-1,0,0,175,175,41,376.44855550001375,376.44855550001375,376.9490502999397,377.0157971000299,377.0660877999617,377.0660877999617,377.0660877999617,377.0660877999617,377.11594549997244,377.11594549997244,377.11594549997244,377.11594549997244,377.11594549997244,377.11594549997244,377.11594549997244,377.11594549997244,377.11594549997244,377.11594549997244,num_3,0.8023601000895724,377.9499107999727,377.9499107999727,None,,15,001,2025-12-23_14h47.00.085,2025C_exp1_detect,2022.2.4,59.87995266302429,
42.7,315,1,0,-1,1,0,176,176,323,377.9499107999727,377.9499107999727,378.4505839999765,378.5172572999727,378.5675770000089,378.5675770000089,378.5675770000089,378.5675770000089,378.61745210003573,378.61745210003573,378.61745210003573,378.61745210003573,378.61745210003573,378.61745210003573,378.61745210003573,378.61745210003573,378.61745210003573,378.61745210003573,num_1,0.5735801999690011,379.21804099995643,379.21804099995643,None,,15,001,2025-12-23_14h47.00.085,2025C_exp1_detect,2022.2.4,59.87995266302429,
42.7,315,0,1,1,1,0,177,177,413,379.21804099995643,379.21804099995643,379.7184499000432,379.7852263000095,379.83552289998624,379.83552289998624,379.83552289998624,379.83552289998624,379.88519449997693,379.88519449997693,379.88519449997693,379.88519449997693,379.88519449997693,379.88519449997693,379.88519449997693,379.88519449997693,379.88519449997693,379.88519449997693,num_1,0.5933170000789687,380.5026079999516,380.5026079999516,None,,15,001,2025-12-23_14h47.00.085,2025C_exp1_detect,2022.2.4,59.87995266302429,
25.5,315,0,0,-1,0,0,178,178,13,380.5026079999516,380.5026079999516,381.0031121999491,381.06985470000654,381.12001519999467,381.12001519999467,381.12001519999467,381.12001519999467,381.1699498000089,381.1699498000089,381.1699498000089,381.1699498000089,381.1699498000089,381.1699498000089,381.1699498000089,381.1699498000089,381.1699498000089,381.1699498000089,num_3,0.7483993000350893,381.93751540000085,381.93751540000085,None,,15,001,2025-12-23_14h47.00.085,2025C_exp1_detect,2022.2.4,59.87995266302429,
19.6,45,1,0,-1,1,0,179,179,308,381.93751540000085,381.93751540000085,382.4380626999773,382.5046932999976,382.55500039993785,382.55500039993785,382.55500039993785,382.55500039993785,382.6049480999354,382.6049480999354,382.6049480999354,382.6049480999354,382.6049480999354,382.6049480999354,382.6049480999354,382.6049480999354,382.6049480999354,382.6049480999354,num_3,0.6256449999054894,383.2554112999933,383.2554112999933,None,,15,001,2025-12-23_14h47.00.085,2025C_exp1_detect,2022.2.4,59.87995266302429,
19.6,315,0,0,-1,-1,0,180,180,155,383.2554112999933,383.2554112999933,383.75556069996674,383.82257079996634,383.872789899935,383.872789899935,383.872789899935,383.872789899935,383.9227674000431,383.9227674000431,383.9227674000431,383.9227674000431,383.9227674000431,383.9227674000431,383.9227674000431,383.9227674000431,383.9227674000431,383.9227674000431,num_1,0.5550214999821037,384.50673090002965,384.50673090002965,None,,15,001,2025-12-23_14h47.00.085,2025C_exp1_detect,2022.2.4,59.87995266302429,
19.6,315,0,1,-1,-1,0,181,181,191,384.50673090002965,384.50673090002965,385.0072627000045,385.0739894999424,385.1243543999735,385.1243543999735,385.1243543999735,385.1243543999735,385.17418630002066,385.17418630002066,385.17418630002066,385.17418630002066,385.17418630002066,385.17418630002066,385.17418630002066,385.17418630002066,385.17418630002066,385.17418630002066,num_3,0.7520051000174135,385.9583220999921,385.9583220999921,None,,15,001,2025-12-23_14h47.00.085,2025C_exp1_detect,2022.2.4,59.87995266302429,
15.7,45,1,0,-1,1,0,182,182,307,385.9583220999921,385.9583220999921,386.4587274999358,386.52551149996,386.57586819992866,386.57586819992866,386.57586819992866,386.57586819992866,386.62557839998044,386.62557839998044,386.62557839998044,386.62557839998044,386.62557839998044,386.62557839998044,386.62557839998044,386.62557839998044,386.62557839998044,386.62557839998044,num_3,0.7010263999691233,387.3430379999336,387.3430379999336,None,,15,001,2025-12-23_14h47.00.085,2025C_exp1_detect,2022.2.4,59.87995266302429,
29.4,315,1,0,-1,0,0,183,183,32,387.3430379999336,387.3430379999336,387.8431502999738,387.9097150999587,387.9602993000299,387.9602993000299,387.9602993000299,387.9602993000299,388.01031479996163,388.01031479996163,388.01031479996163,388.01031479996163,388.01031479996163,388.01031479996163,388.01031479996163,388.01031479996163,388.01031479996163,388.01031479996163,num_1,0.7717448999173939,388.8109038999537,388.8109038999537,None,,15,001,2025-12-23_14h47.00.085,2025C_exp1_detect,2022.2.4,59.87995266302429,
22.7,45,1,0,-1,0,0,184,184,21,388.8109038999537,388.8109038999537,389.3114054999314,389.37814209994394,389.42837149999104,389.42837149999104,389.42837149999104,389.42837149999104,389.4783176999772,389.4783176999772,389.4783176999772,389.4783176999772,389.4783176999772,389.4783176999772,389.4783176999772,389.4783176999772,389.4783176999772,389.4783176999772,num_1,0.4405822000699118,389.945070900023,389.945070900023,None,,15,001,2025-12-23_14h47.00.085,2025C_exp1_detect,2022.2.4,59.87995266302429,
39.2,315,0,0,-1,0,0,185,185,16,389.945070900023,389.945070900023,390.44581609999295,390.51262749999296,390.5628985000076,390.5628985000076,390.5628985000076,390.5628985000076,390.61265549995005,390.61265549995005,390.61265549995005,390.61265549995005,390.61265549995005,390.61265549995005,390.61265549995005,390.61265549995005,390.61265549995005,390.61265549995005,num_1,0.5464564000722021,391.17979500000365,391.17979500000365,None,,15,001,2025-12-23_14h47.00.085,2025C_exp1_detect,2022.2.4,59.87995266302429,
19.6,45,0,1,1,-1,0,186,186,254,391.17979500000365,391.17979500000365,391.68053190002684,391.7472158999881,391.79753250000067,391.79753250000067,391.79753250000067,391.79753250000067,391.847330300021,391.847330300021,391.847330300021,391.847330300021,391.847330300021,391.847330300021,391.847330300021,391.847330300021,391.847330300021,391.847330300021,num_1,0.6626659999601543,392.5311498999363,392.5311498999363,None,,15,001,2025-12-23_14h47.00.085,2025C_exp1_detect,2022.2.4,59.87995266302429,
25.5,45,0,1,1,1,0,187,187,400,392.5311498999363,392.5311498999363,393.0317947999574,393.09852749994025,393.148751599947,393.148751599947,393.148751599947,393.148751599947,393.19858550000936,393.19858550000936,393.19858550000936,393.19858550000936,393.19858550000936,393.19858550000936,393.19858550000936,393.19858550000936,393.19858550000936,393.19858550000936,num_1,0.43218580004759133,393.6490718999412,393.6490718999412,None,,15,001,2025-12-23_14h47.00.085,2025C_exp1_detect,2022.2.4,59.87995266302429,
25.5,315,0,0,1,1,0,188,188,373,393.6490718999412,393.6490718999412,394.1492825000314,394.21618969994597,394.26660029997583,394.26660029997583,394.26660029997583,394.26660029997583,394.3163927999558,394.3163927999558,394.3163927999558,394.3163927999558,394.3163927999558,394.3163927999558,394.3163927999558,394.3163927999558,394.3163927999558,394.3163927999558,num_1,0.5308002999518067,394.8672252999386,394.8672252999386,None,,15,001,2025-12-23_14h47.00.085,2025C_exp1_detect,2022.2.4,59.87995266302429,
35.3,45,0,0,1,-1,0,189,189,222,394.8672252999386,394.8672252999386,395.36752269999124,395.4342312000226,395.4845425999956,395.4845425999956,395.4845425999956,395.4845425999956,395.53441950003617,395.53441950003617,395.53441950003617,395.53441950003617,395.53441950003617,395.53441950003617,395.53441950003617,395.53441950003617,395.53441950003617,395.53441950003617,num_3,1.255548799992539,396.8189887999324,396.8189887999324,None,,15,001,2025-12-23_14h47.00.085,2025C_exp1_detect,2022.2.4,59.87995266302429,
35.3,315,1,1,1,0,0,190,190,141,396.8189887999324,396.8189887999324,397.3194959999528,397.38620690000243,397.4365080000134,397.4365080000134,397.4365080000134,397.4365080000134,397.4862043999601,397.4862043999601,397.4862043999601,397.4862043999601,397.4862043999601,397.4862043999601,397.4862043999601,397.4862043999601,397.4862043999601,397.4862043999601,num_1,0.5518204000545666,398.070016499958,398.070016499958,None,,15,001,2025-12-23_14h47.00.085,2025C_exp1_detect,2022.2.4,59.87995266302429,
15.7,45,0,0,-1,-1,0,191,191,145,398.070016499958,398.070016499958,398.5709147999296,398.6376292000059,398.68786880001426,398.68786880001426,398.68786880001426,398.68786880001426,398.7377728000283,398.7377728000283,398.7377728000283,398.7377728000283,398.7377728000283,398.7377728000283,398.7377728000283,398.7377728000283,398.7377728000283,398.7377728000283,num_1,0.685588699998334,399.4550744999433,399.4550744999433,None,,15,001,2025-12-23_14h47.00.085,2025C_exp1_detect,2022.2.4,59.87995266302429,
25.5,45,0,0,-1,1,0,192,192,292,399.4550744999433,399.4550744999433,399.9554703999311,400.0223306999542,400.07240699999966,400.07240699999966,400.07240699999966,400.07240699999966,400.1222908999771,400.1222908999771,400.1222908999771,400.1222908999771,400.1222908999771,400.1222908999771,400.1222908999771,400.1222908999771,400.1222908999771,400.1222908999771,num_1,0.5486450999742374,400.6894523999654,400.6894523999654,None,,15,001,2025-12-23_14h47.00.085,2025C_exp1_detect,2022.2.4,59.87995266302429,
35.3,45,0,0,-1,-1,0,193,193,150,400.6894523999654,400.6894523999654,401.19013649993576,401.2567119000014,401.3070343999425,401.3070343999425,401.3070343999425,401.3070343999425,401.3568578000413,401.3568578000413,401.3568578000413,401.3568578000413,401.3568578000413,401.3568578000413,401.3568578000413,401.3568578000413,401.3568578000413,401.3568578000413,num_1,0.7773976000025868,402.15745189995505,402.15745189995505,None,,15,001,2025-12-23_14h47.00.085,2025C_exp1_detect,2022.2.4,59.87995266302429,
19.6,315,1,0,-1,0,0,194,194,29,402.15745189995505,402.15745189995505,402.65814039995894,402.7248709000414,402.7750621000305,402.7750621000305,402.7750621000305,402.7750621000305,402.8249260999728,402.8249260999728,402.8249260999728,402.8249260999728,402.8249260999728,402.8249260999728,402.8249260999728,402.8249260999728,402.8249260999728,402.8249260999728,num_3,1.0616625000257045,403.90941750002094,403.90941750002094,None,,15,001,2025-12-23_14h47.00.085,2025C_exp1_detect,2022.2.4,59.87995266302429,
42.7,45,0,1,1,1,0,195,195,404,403.90941750002094,403.90941750002094,404.4100335999392,404.4764519999735,404.5267773999367,404.5267773999367,404.5267773999367,404.5267773999367,404.5768351999577,404.5768351999577,404.5768351999577,404.5768351999577,404.5768351999577,404.5768351999577,404.5768351999577,404.5768351999577,404.5768351999577,404.5768351999577,num_1,0.6378571999957785,405.24420980003197,405.24420980003197,None,,15,001,2025-12-23_14h47.00.085,2025C_exp1_detect,2022.2.4,59.87995266302429,
