contrast,ori,side,precue,trials.thisRepN,trials.thisTrialN,trials.thisN,trials.thisIndex,fix1.started,fix2.started,precue_2.started,precue_2.stopped,left_grating.started,right_grating.started,noise_left2.started,noise_right2.started,fix1.stopped,fix2.stopped,left_grating.stopped,right_grating.stopped,noise_left2.stopped,noise_right2.stopped,key_resp.started,fix1_2.started,fix2_2.started,key_resp.keys,key_resp.rt,key_resp_2.started,break_text_2.started,key_resp_2.keys,key_resp_2.rt,participant,session,date,expName,psychopyVersion,frameRate,
22.7,315,-1,1,0,0,0,48,14.55809850001242,14.55809850001242,15.038498500012793,15.105228999978863,15.165597700048238,15.165597700048238,15.165597700048238,15.165597700048238,15.205244300072081,15.205244300072081,15.205244300072081,15.205244300072081,15.205244300072081,15.205244300072081,15.221940999967046,15.221940999967046,15.221940999967046,right,1.0854693000437692,16.339707900071517,16.339707900071517,None,,15,001,2025-12-23_15h58.53.939,2025C_exp1_comp,2022.2.4,59.96124107973505,
42.7,45,-1,0,0,1,1,8,16.339707900071517,16.339707900071517,16.84023289999459,16.90698179998435,16.957252399995923,16.957252399995923,16.957252399995923,16.957252399995923,17.00704409996979,17.00704409996979,17.00704409996979,17.00704409996979,17.00704409996979,17.00704409996979,17.00704409996979,17.00704409996979,17.00704409996979,right,0.8930024999426678,17.925052399979904,17.925052399979904,None,,15,001,2025-12-23_15h58.53.939,2025C_exp1_comp,2022.2.4,59.96124107973505,
12.1,45,-1,1,0,2,2,36,17.925052399979904,17.925052399979904,18.425166200031526,18.491910699987784,18.542213000007905,18.542213000007905,18.542213000007905,18.542213000007905,18.591994800022803,18.591994800022803,18.591994800022803,18.591994800022803,18.591994800022803,18.591994800022803,18.591994800022803,18.591994800022803,18.591994800022803,right,0.6276776000158861,19.242667100043036,19.242667100043036,None,,15,001,2025-12-23_15h58.53.939,2025C_exp1_comp,2022.2.4,59.96124107973505,
35.3,315,1,-1,0,3,3,105,19.242667100043036,19.242667100043036,19.743172600050457,19.809887600014918,19.860199599992484,19.860199599992484,19.860199599992484,19.860199599992484,19.909992099972442,19.909992099972442,19.909992099972442,19.909992099972442,19.909992099972442,19.909992099972442,19.909992099972442,19.909992099972442,19.909992099972442,right,0.7898331999313086,20.727453600033186,20.727453600033186,None,,15,001,2025-12-23_15h58.53.939,2025C_exp1_comp,2022.2.4,59.96124107973505,
25.5,315,-1,0,0,4,4,13,20.727453600033186,20.727453600033186,21.22844710003119,21.29469610005617,21.34496030001901,21.34496030001901,21.34496030001901,21.34496030001901,21.39484269998502,21.39484269998502,21.39484269998502,21.39484269998502,21.39484269998502,21.39484269998502,21.39484269998502,21.39484269998502,21.39484269998502,right,0.8808026000624523,22.295766600058414,22.295766600058414,None,,15,001,2025-12-23_15h58.53.939,2025C_exp1_comp,2022.2.4,59.96124107973505,
15.7,45,1,1,0,5,5,55,22.295766600058414,22.295766600058414,22.79633559996728,22.86312600004021,22.91330450004898,22.91330450004898,22.91330450004898,22.91330450004898,22.96301449998282,22.96301449998282,22.96301449998282,22.96301449998282,22.96301449998282,22.96301449998282,22.96301449998282,22.96301449998282,22.96301449998282,right,1.009108400088735,23.997446699999273,23.997446699999273,None,,15,001,2025-12-23_15h58.53.939,2025C_exp1_comp,2022.2.4,59.96124107973505,
42.7,315,1,1,0,6,6,71,23.997446699999273,23.997446699999273,24.4979284000583,24.564635200076737,24.614984299987555,24.614984299987555,24.614984299987555,24.614984299987555,24.66482090007048,24.66482090007048,24.66482090007048,24.66482090007048,24.66482090007048,24.66482090007048,24.66482090007048,24.66482090007048,24.66482090007048,right,0.4985583999659866,25.181957900058478,25.181957900058478,None,,15,001,2025-12-23_15h58.53.939,2025C_exp1_comp,2022.2.4,59.96124107973505,
25.5,45,-1,0,0,7,7,4,25.181957900058478,25.181957900058478,25.682360299979337,25.74920409999322,25.799516599974595,25.799516599974595,25.799516599974595,25.799516599974595,25.849297699984163,25.849297699984163,25.849297699984163,25.849297699984163,25.849297699984163,25.849297699984163,25.849297699984163,25.849297699984163,25.849297699984163,right,0.43488229997456074,26.31633860000875,26.31633860000875,None,,15,001,2025-12-23_15h58.53.939,2025C_exp1_comp,2022.2.4,59.96124107973505,
22.7,45,1,1,0,8,8,57,26.31633860000875,26.31633860000875,26.81696019996889,26.88370580004994,26.933987900032662,26.933987900032662,26.933987900032662,26.933987900032662,26.984045100049116,26.984045100049116,26.984045100049116,26.984045100049116,26.984045100049116,26.984045100049116,26.984045100049116,26.984045100049116,26.984045100049116,right,0.8435336999827996,27.851259700022638,27.851259700022638,None,,15,001,2025-12-23_15h58.53.939,2025C_exp1_comp,2022.2.4,59.96124107973505,
22.7,315,-1,-1,0,9,9,84,27.851259700022638,27.851259700022638,28.351750300033018,28.41856290004216,28.46881280001253,28.46881280001253,28.46881280001253,28.46881280001253,28.518599500064738,28.518599500064738,28.518599500064738,28.518599500064738,28.518599500064738,28.518599500064738,28.518599500064738,28.518599500064738,28.518599500064738,right,0.7968429999891669,29.3360837000655,29.3360837000655,None,,15,001,2025-12-23_15h58.53.939,2025C_exp1_comp,2022.2.4,59.96124107973505,
12.1,315,-1,-1,0,10,10,81,29.3360837000655,29.3360837000655,29.836650800076313,29.903302800026722,29.95370399998501,29.95370399998501,29.95370399998501,29.95370399998501,30.003471400006674,30.003471400006674,30.003471400006674,30.003471400006674,30.003471400006674,30.003471400006674,30.003471400006674,30.003471400006674,30.003471400006674,right,0.6079275000374764,30.637439799960703,30.637439799960703,None,,15,001,2025-12-23_15h58.53.939,2025C_exp1_comp,2022.2.4,59.96124107973505,
39.2,315,-1,1,0,11,11,52,30.637439799960703,30.637439799960703,31.137939300038852,31.204555900068954,31.254895400023088,31.254895400023088,31.254895400023088,31.254895400023088,31.304660700028762,31.304660700028762,31.304660700028762,31.304660700028762,31.304660700028762,31.304660700028762,31.304660700028762,31.304660700028762,31.304660700028762,right,0.6995551000582054,32.022043999983,32.022043999983,None,,15,001,2025-12-23_15h58.53.939,2025C_exp1_comp,2022.2.4,59.96124107973505,
22.7,45,-1,-1,0,12,12,75,32.022043999983,32.022043999983,32.52264129999094,32.58943579997867,32.63958900002763,32.63958900002763,32.63958900002763,32.63958900002763,32.689435000065714,32.689435000065714,32.689435000065714,32.689435000065714,32.689435000065714,32.689435000065714,32.689435000065714,32.689435000065714,32.689435000065714,right,0.6979178000474349,33.40688660007436,33.40688660007436,None,,15,001,2025-12-23_15h58.53.939,2025C_exp1_comp,2022.2.4,59.96124107973505,
15.7,45,-1,-1,0,13,13,73,33.40688660007436,33.40688660007436,33.90738780004904,33.9740627000574,34.02440380002372,34.02440380002372,34.02440380002372,34.02440380002372,34.07412200002,34.07412200002,34.07412200002,34.07412200002,34.07412200002,34.07412200002,34.07412200002,34.07412200002,34.07412200002,right,0.5935681000119075,34.69145250006113,34.69145250006113,None,,15,001,2025-12-23_15h58.53.939,2025C_exp1_comp,2022.2.4,59.96124107973505,
25.5,45,1,0,0,14,14,22,34.69145250006113,34.69145250006113,35.19215300003998,35.25861670006998,35.30890980002005,35.30890980002005,35.30890980002005,35.30890980002005,35.358795700012706,35.358795700012706,35.358795700012706,35.358795700012706,35.358795700012706,35.358795700012706,35.358795700012706,35.358795700012706,35.358795700012706,right,1.0925954000558704,36.47660369996447,36.47660369996447,None,,15,001,2025-12-23_15h58.53.939,2025C_exp1_comp,2022.2.4,59.96124107973505,
22.7,315,1,1,0,15,15,66,36.47660369996447,36.47660369996447,36.97702940006275,37.04373699997086,37.09403909998946,37.09403909998946,37.09403909998946,37.09403909998946,37.14424160006456,37.14424160006456,37.14424160006456,37.14424160006456,37.14424160006456,37.14424160006456,37.14424160006456,37.14424160006456,37.14424160006456,right,0.8439557000529021,38.01146080007311,38.01146080007311,None,,15,001,2025-12-23_15h58.53.939,2025C_exp1_comp,2022.2.4,59.96124107973505,
22.7,45,-1,0,0,16,16,3,38.01146080007311,38.01146080007311,38.51209790003486,38.578638300066814,38.62892110005487,38.62892110005487,38.62892110005487,38.62892110005487,38.67869890003931,38.67869890003931,38.67869890003931,38.67869890003931,38.67869890003931,38.67869890003931,38.67869890003931,38.67869890003931,38.67869890003931,right,1.4213210999732837,40.13016770000104,40.13016770000104,None,,15,001,2025-12-23_15h58.53.939,2025C_exp1_comp,2022.2.4,59.96124107973505,
35.3,45,1,-1,0,17,17,96,40.13016770000104,40.13016770000104,40.630783100030385,40.69735639996361,40.747770500020124,40.747770500020124,40.747770500020124,40.747770500020124,40.79747910005972,40.79747910005972,40.79747910005972,40.79747910005972,40.79747910005972,40.79747910005972,40.79747910005972,40.79747910005972,40.79747910005972,right,0.8068850999698043,41.63175930001307,41.63175930001307,None,,15,001,2025-12-23_15h58.53.939,2025C_exp1_comp,2022.2.4,59.96124107973505,
25.5,315,1,1,0,18,18,67,41.63175930001307,41.63175930001307,42.13228570006322,42.1990630000364,42.24934760003816,42.24934760003816,42.24934760003816,42.24934760003816,42.299088099971414,42.299088099971414,42.299088099971414,42.299088099971414,42.299088099971414,42.299088099971414,42.299088099971414,42.299088099971414,42.299088099971414,right,1.144218200002797,43.4668419000227,43.4668419000227,None,,15,001,2025-12-23_15h58.53.939,2025C_exp1_comp,2022.2.4,59.96124107973505,
29.4,315,1,0,0,19,19,32,43.4668419000227,43.4668419000227,43.96737159998156,44.034098500036635,44.08439720002934,44.08439720002934,44.08439720002934,44.08439720002934,44.13413480005693,44.13413480005693,44.13413480005693,44.13413480005693,44.13413480005693,44.13413480005693,44.13413480005693,44.13413480005693,44.13413480005693,right,2.701727299951017,46.85359590000007,46.85359590000007,None,,15,001,2025-12-23_15h58.53.939,2025C_exp1_comp,2022.2.4,59.96124107973505,
12.1,45,-1,0,0,20,20,0,46.85359590000007,46.85359590000007,47.35407120001037,47.42076360003557,47.4713083000388,47.4713083000388,47.4713083000388,47.4713083000388,47.5209928000113,47.5209928000113,47.5209928000113,47.5209928000113,47.5209928000113,47.5209928000113,47.5209928000113,47.5209928000113,47.5209928000113,right,0.7225245999870822,48.27164050005376,48.27164050005376,None,,15,001,2025-12-23_15h58.53.939,2025C_exp1_comp,2022.2.4,59.96124107973505,
22.7,45,-1,1,0,21,21,39,48.27164050005376,48.27164050005376,48.772151299985126,48.83884720003698,48.88914310000837,48.88914310000837,48.88914310000837,48.88914310000837,48.93927580001764,48.93927580001764,48.93927580001764,48.93927580001764,48.93927580001764,48.93927580001764,48.93927580001764,48.93927580001764,48.93927580001764,right,0.6962161000119522,49.65637430001516,49.65637430001516,None,,15,001,2025-12-23_15h58.53.939,2025C_exp1_comp,2022.2.4,59.96124107973505,
39.2,45,1,1,0,22,22,61,49.65637430001516,49.65637430001516,50.156829299987294,50.223563999985345,50.27400370000396,50.27400370000396,50.27400370000396,50.27400370000396,50.32370720000472,50.32370720000472,50.32370720000472,50.32370720000472,50.32370720000472,50.32370720000472,50.32370720000472,50.32370720000472,50.32370720000472,right,0.6003204000880942,50.94109470001422,50.94109470001422,None,,15,001,2025-12-23_15h58.53.939,2025C_exp1_comp,2022.2.4,59.96124107973505,
35.3,45,-1,1,0,23,23,42,50.94109470001422,50.94109470001422,51.44159760000184,51.508271700004116,51.55844829999842,51.55844829999842,51.55844829999842,51.55844829999842,51.60851310007274,51.60851310007274,51.60851310007274,51.60851310007274,51.60851310007274,51.60851310007274,51.60851310007274,51.60851310007274,51.60851310007274,right,0.5871837999438867,52.22566530003678,52.22566530003678,None,,15,001,2025-12-23_15h58.53.939,2025C_exp1_comp,2022.2.4,59.96124107973505,
15.7,315,-1,-1,0,24,24,82,52.22566530003678,52.22566530003678,52.72613550000824,52.79291329998523,52.84306280000601,52.84306280000601,52.84306280000601,52.84306280000601,52.892876800033264,52.892876800033264,52.892876800033264,52.892876800033264,52.892876800033264,52.892876800033264,52.892876800033264,52.892876800033264,52.892876800033264,right,0.7423840999836102,53.66043749998789,53.66043749998789,None,,15,001,2025-12-23_15h58.53.939,2025C_exp1_comp,2022.2.4,59.96124107973505,
42.7,45,1,1,0,25,25,62,53.66043749998789,53.66043749998789,54.16089659999125,54.22755640000105,54.27791309996974,54.27791309996974,54.27791309996974,54.27791309996974,54.32769529998768,54.32769529998768,54.32769529998768,54.32769529998768,54.32769529998768,54.32769529998768,54.32769529998768,54.32769529998768,54.32769529998768,right,0.5796519999857992,54.92837390000932,54.92837390000932,None,,15,001,2025-12-23_15h58.53.939,2025C_exp1_comp,2022.2.4,59.96124107973505,
29.4,45,1,-1,0,26,26,95,54.92837390000932,54.92837390000932,55.42877190001309,55.49548300006427,55.545804399996996,55.545804399996996,55.545804399996996,55.545804399996996,55.5955919000553,55.5955919000553,55.5955919000553,55.5955919000553,55.5955919000553,55.5955919000553,55.5955919000553,55.5955919000553,55.5955919000553,right,0.5121176999527961,56.12945909996051,56.12945909996051,None,,15,001,2025-12-23_15h58.53.939,2025C_exp1_comp,2022.2.4,59.96124107973505,
35.3,315,-1,1,0,27,27,51,56.12945909996051,56.12945909996051,56.63001630001236,56.69685509998817,56.74703079997562,56.74703079997562,56.74703079997562,56.74703079997562,56.7968036000384,56.7968036000384,56.7968036000384,56.7968036000384,56.7968036000384,56.7968036000384,56.7968036000384,56.7968036000384,56.7968036000384,right,0.6305931999813765,57.447565800044686,57.447565800044686,None,,15,001,2025-12-23_15h58.53.939,2025C_exp1_comp,2022.2.4,59.96124107973505,
12.1,315,1,0,0,28,28,27,57.447565800044686,57.447565800044686,57.94807100004982,58.0147817999823,58.064969500061125,58.064969500061125,58.064969500061125,58.064969500061125,58.114777700044215,58.114777700044215,58.114777700044215,58.114777700044215,58.114777700044215,58.114777700044215,58.114777700044215,58.114777700044215,58.114777700044215,right,2.448562000063248,60.58390309999231,60.58390309999231,None,,15,001,2025-12-23_15h58.53.939,2025C_exp1_comp,2022.2.4,59.96124107973505,
15.7,45,1,0,0,29,29,19,60.58390309999231,60.58390309999231,61.08451119996607,61.1513011000352,61.201537400018424,61.201537400018424,61.201537400018424,61.201537400018424,61.251238299999386,61.251238299999386,61.251238299999386,61.251238299999386,61.251238299999386,61.251238299999386,61.251238299999386,61.251238299999386,61.251238299999386,left,0.6642476000124589,61.935381500050426,61.935381500050426,None,,15,001,2025-12-23_15h58.53.939,2025C_exp1_comp,2022.2.4,59.96124107973505,
39.2,45,1,-1,0,30,30,97,61.935381500050426,61.935381500050426,62.43584330007434,62.50295370002277,62.552791900001466,62.552791900001466,62.552791900001466,62.552791900001466,62.602602099999785,62.602602099999785,62.602602099999785,62.602602099999785,62.602602099999785,62.602602099999785,62.602602099999785,62.602602099999785,62.602602099999785,left,0.4488382999552414,63.06987120001577,63.06987120001577,None,,15,001,2025-12-23_15h58.53.939,2025C_exp1_comp,2022.2.4,59.96124107973505,
12.1,45,1,-1,0,31,31,90,63.06987120001577,63.06987120001577,63.57034310000017,63.637066500028595,63.687455800012685,63.687455800012685,63.687455800012685,63.687455800012685,63.73715429997537,63.73715429997537,63.73715429997537,63.73715429997537,63.73715429997537,63.73715429997537,63.73715429997537,63.73715429997537,63.73715429997537,left,0.4662788000423461,64.22098830004688,64.22098830004688,None,,15,001,2025-12-23_15h58.53.939,2025C_exp1_comp,2022.2.4,59.96124107973505,
15.7,315,-1,0,0,32,32,10,64.22098830004688,64.22098830004688,64.72138090000954,64.7882166999625,64.83857390005141,64.83857390005141,64.83857390005141,64.83857390005141,64.88834940001834,64.88834940001834,64.88834940001834,64.88834940001834,64.88834940001834,64.88834940001834,64.88834940001834,64.88834940001834,64.88834940001834,right,0.6834603999741375,65.58891300007235,65.58891300007235,None,,15,001,2025-12-23_15h58.53.939,2025C_exp1_comp,2022.2.4,59.96124107973505,
25.5,45,-1,-1,0,33,33,76,65.58891300007235,65.58891300007235,66.08943330007605,66.15626690001227,66.20654010004364,66.20654010004364,66.20654010004364,66.20654010004364,66.25645520002581,66.25645520002581,66.25645520002581,66.25645520002581,66.25645520002581,66.25645520002581,66.25645520002581,66.25645520002581,66.25645520002581,left,0.4749983000801876,66.75673710007686,66.75673710007686,None,,15,001,2025-12-23_15h58.53.939,2025C_exp1_comp,2022.2.4,59.96124107973505,
42.7,315,-1,0,0,34,34,17,66.75673710007686,66.75673710007686,67.25737000000663,67.32407580001745,67.37440269999206,67.37440269999206,67.37440269999206,67.37440269999206,67.42416649998631,67.42416649998631,67.42416649998631,67.42416649998631,67.42416649998631,67.42416649998631,67.42416649998631,67.42416649998631,67.42416649998631,right,0.5078425001120195,67.95803350000642,67.95803350000642,None,,15,001,2025-12-23_15h58.53.939,2025C_exp1_comp,2022.2.4,59.96124107973505,
15.7,315,1,1,0,35,35,64,67.95803350000642,67.95803350000642,68.45868430007249,68.52524590003304,68.57543930003885,68.57543930003885,68.57543930003885,68.57543930003885,68.62528190005105,68.62528190005105,68.62528190005105,68.62528190005105,68.62528190005105,68.62528190005105,68.62528190005105,68.62528190005105,68.62528190005105,left,0.5787510999944061,69.22586850007065,69.22586850007065,None,,15,001,2025-12-23_15h58.53.939,2025C_exp1_comp,2022.2.4,59.96124107973505,
19.6,45,1,0,0,36,36,20,69.22586850007065,69.22586850007065,69.7264264000114,69.79313110001385,69.8434054000536,69.8434054000536,69.8434054000536,69.8434054000536,69.89324580004904,69.89324580004904,69.89324580004904,69.89324580004904,69.89324580004904,69.89324580004904,69.89324580004904,69.89324580004904,69.89324580004904,left,0.4945676999632269,70.41038620006293,70.41038620006293,None,,15,001,2025-12-23_15h58.53.939,2025C_exp1_comp,2022.2.4,59.96124107973505,
39.2,45,-1,-1,0,37,37,79,70.41038620006293,70.41038620006293,70.91105360002257,70.9776678000344,71.02796900004614,71.02796900004614,71.02796900004614,71.02796900004614,71.07778799999505,71.07778799999505,71.07778799999505,71.07778799999505,71.07778799999505,71.07778799999505,71.07778799999505,71.07778799999505,71.07778799999505,left,0.4460321000078693,71.54499700001907,71.54499700001907,None,,15,001,2025-12-23_15h58.53.939,2025C_exp1_comp,2022.2.4,59.96124107973505,
35.3,45,1,1,0,38,38,60,71.54499700001907,71.54499700001907,72.04550140001811,72.1121478000423,72.16264570003841,72.16264570003841,72.16264570003841,72.16264570003841,72.2122754000593,72.2122754000593,72.2122754000593,72.2122754000593,72.2122754000593,72.2122754000593,72.2122754000593,72.2122754000593,72.2122754000593,right,0.7595243999967352,72.99635340005625,72.99635340005625,None,,15,001,2025-12-23_15h58.53.939,2025C_exp1_comp,2022.2.4,59.96124107973505,
25.5,315,1,-1,0,39,39,103,72.99635340005625,72.99635340005625,73.49682780005969,73.56365200004075,73.61408630001824,73.61408630001824,73.61408630001824,73.61408630001824,73.66365230001975,73.66365230001975,73.66365230001975,73.66365230001975,73.66365230001975,73.66365230001975,73.66365230001975,73.66365230001975,73.66365230001975,left,0.5721755999838933,74.26719060004689,74.26719060004689,None,,15,001,2025-12-23_15h58.53.939,2025C_exp1_comp,2022.2.4,59.96124107973505,
22.7,315,-1,0,0,40,40,12,74.26719060004689,74.26719060004689,74.76477290003095,74.83150650002062,74.8818555000471,74.8818555000471,74.8818555000471,74.8818555000471,74.93166480003856,74.93166480003856,74.93166480003856,74.93166480003856,74.93166480003856,74.93166480003856,74.9484030000167,74.9484030000167,74.9484030000167,right,0.5592816999414936,75.53251419996377,75.53251419996377,None,,15,001,2025-12-23_15h58.53.939,2025C_exp1_comp,2022.2.4,59.96124107973505,
29.4,45,1,1,0,41,41,59,75.53251419996377,75.53251419996377,76.03297469997779,76.09969080006704,76.15058750007302,76.15058750007302,76.15058750007302,76.15058750007302,76.1994991999818,76.1994991999818,76.1994991999818,76.1994991999818,76.1994991999818,76.1994991999818,76.1994991999818,76.1994991999818,76.1994991999818,left,0.507850999943912,76.7334741000086,76.7334741000086,None,,15,001,2025-12-23_15h58.53.939,2025C_exp1_comp,2022.2.4,59.96124107973505,
42.7,45,1,-1,0,42,42,98,76.7334741000086,76.7334741000086,77.23416860005818,77.30070250004064,77.35101320000831,77.35101320000831,77.35101320000831,77.35101320000831,77.40075989998877,77.40075989998877,77.40075989998877,77.40075989998877,77.40075989998877,77.40075989998877,77.40075989998877,77.40075989998877,77.40075989998877,left,0.5147982999915257,77.93457939999644,77.93457939999644,None,,15,001,2025-12-23_15h58.53.939,2025C_exp1_comp,2022.2.4,59.96124107973505,
22.7,45,1,-1,0,43,43,93,77.93457939999644,77.93457939999644,78.4350989999948,78.50196070002858,78.5522709999932,78.5522709999932,78.5522709999932,78.5522709999932,78.60193910007365,78.60193910007365,78.60193910007365,78.60193910007365,78.60193910007365,78.60193910007365,78.60193910007365,78.60193910007365,78.60193910007365,left,0.5138631999725476,79.13579550001305,79.13579550001305,None,,15,001,2025-12-23_15h58.53.939,2025C_exp1_comp,2022.2.4,59.96124107973505,
12.1,45,-1,-1,0,44,44,72,79.13579550001305,79.13579550001305,79.63632609997876,79.70304090005811,79.75335090002045,79.75335090002045,79.75335090002045,79.75335090002045,79.80389880004805,79.80389880004805,79.80389880004805,79.80389880004805,79.80389880004805,79.80389880004805,79.80389880004805,79.80389880004805,79.80389880004805,right,0.5752696999115869,80.40377279999666,80.40377279999666,None,,15,001,2025-12-23_15h58.53.939,2025C_exp1_comp,2022.2.4,59.96124107973505,
25.5,315,-1,-1,0,45,45,85,80.40377279999666,80.40377279999666,80.90427080006339,80.97098209999967,81.02123439998832,81.02123439998832,81.02123439998832,81.02123439998832,81.07108999998309,81.07108999998309,81.07108999998309,81.07108999998309,81.07108999998309,81.07108999998309,81.07108999998309,81.07108999998309,81.07108999998309,right,0.6124238999327645,81.70503409998491,81.70503409998491,None,,15,001,2025-12-23_15h58.53.939,2025C_exp1_comp,2022.2.4,59.96124107973505,
29.4,45,-1,1,0,46,46,41,81.70503409998491,81.70503409998491,82.20552970003337,82.2723479999695,82.32273070001975,82.32273070001975,82.32273070001975,82.32273070001975,82.37235590000637,82.37235590000637,82.37235590000637,82.37235590000637,82.37235590000637,82.37235590000637,82.37235590000637,82.37235590000637,82.37235590000637,right,0.6070051999995485,83.00645300000906,83.00645300000906,None,,15,001,2025-12-23_15h58.53.939,2025C_exp1_comp,2022.2.4,59.96124107973505,
29.4,45,1,0,0,47,47,23,83.00645300000906,83.00645300000906,83.50685880007222,83.57377120002639,83.62490980001166,83.62490980001166,83.62490980001166,83.62490980001166,83.67364250007086,83.67364250007086,83.67364250007086,83.67364250007086,83.67364250007086,83.67364250007086,83.67364250007086,83.67364250007086,83.67364250007086,left,0.6104171000188217,84.30837630003225,84.30837630003225,None,,15,001,2025-12-23_15h58.53.939,2025C_exp1_comp,2022.2.4,59.96124107973505,
19.6,45,1,-1,0,48,48,92,84.30837630003225,84.30837630003225,84.80830979999155,84.87483760004397,84.9251373000443,84.9251373000443,84.9251373000443,84.9251373000443,84.97500750003383,84.97500750003383,84.97500750003383,84.97500750003383,84.97500750003383,84.97500750003383,84.97500750003383,84.97500750003383,84.97500750003383,left,0.49267870001494884,85.49224359996151,85.49224359996151,None,,15,001,2025-12-23_15h58.53.939,2025C_exp1_comp,2022.2.4,59.96124107973505,
35.3,45,-1,0,0,49,49,6,85.49224359996151,85.49224359996151,85.99265360005666,86.05942880001385,86.10976480005775,86.10976480005775,86.10976480005775,86.10976480005775,86.15953699999955,86.15953699999955,86.15953699999955,86.15953699999955,86.15953699999955,86.15953699999955,86.15953699999955,86.15953699999955,86.15953699999955,right,0.5798219999996945,86.76009740005247,86.76009740005247,None,,15,001,2025-12-23_15h58.53.939,2025C_exp1_comp,2022.2.4,59.96124107973505,
19.6,45,-1,-1,0,50,50,74,86.76009740005247,86.76009740005247,87.26060400006827,87.32737169996835,87.37765559996478,87.37765559996478,87.37765559996478,87.37765559996478,87.42739870003425,87.42739870003425,87.42739870003425,87.42739870003425,87.42739870003425,87.42739870003425,87.42739870003425,87.42739870003425,87.42739870003425,right,0.6321219999808818,88.07819989998825,88.07819989998825,None,,15,001,2025-12-23_15h58.53.939,2025C_exp1_comp,2022.2.4,59.96124107973505,
29.4,45,-1,0,0,51,51,5,88.07819989998825,88.07819989998825,88.57865689997561,88.6452803000575,88.69556600006763,88.69556600006763,88.69556600006763,88.69556600006763,88.74544940004125,88.74544940004125,88.74544940004125,88.74544940004125,88.74544940004125,88.74544940004125,88.74544940004125,88.74544940004125,88.74544940004125,right,0.6260077999904752,89.39605580002535,89.39605580002535,None,,15,001,2025-12-23_15h58.53.939,2025C_exp1_comp,2022.2.4,59.96124107973505,
12.1,45,1,1,0,52,52,54,89.39605580002535,89.39605580002535,89.89653929998167,89.9632508000359,90.01362680003513,90.01362680003513,90.01362680003513,90.01362680003513,90.06339130003471,90.06339130003471,90.06339130003471,90.06339130003471,90.06339130003471,90.06339130003471,90.06339130003471,90.06339130003471,90.06339130003471,left,0.5318930000066757,90.6139440999832,90.6139440999832,None,,15,001,2025-12-23_15h58.53.939,2025C_exp1_comp,2022.2.4,59.96124107973505,
25.5,45,1,-1,0,53,53,94,90.6139440999832,90.6139440999832,91.11442050000187,91.18119370006025,91.23238379997201,91.23238379997201,91.23238379997201,91.23238379997201,91.28124829998706,91.28124829998706,91.28124829998706,91.28124829998706,91.28124829998706,91.28124829998706,91.28124829998706,91.28124829998706,91.28124829998706,left,0.4584711999632418,91.76515350001864,91.76515350001864,None,,15,001,2025-12-23_15h58.53.939,2025C_exp1_comp,2022.2.4,59.96124107973505,
25.5,45,1,1,0,54,54,58,91.76515350001864,91.76515350001864,92.26568000006955,92.33230570005253,92.38271719997283,92.38271719997283,92.38271719997283,92.38271719997283,92.43264330003876,92.43264330003876,92.43264330003876,92.43264330003876,92.43264330003876,92.43264330003876,92.43264330003876,92.43264330003876,92.43264330003876,left,0.5146817000349984,92.96625800000038,92.96625800000038,None,,15,001,2025-12-23_15h58.53.939,2025C_exp1_comp,2022.2.4,59.96124107973505,
39.2,45,-1,1,0,55,55,43,92.96625800000038,92.96625800000038,93.46685600001365,93.53353730007075,93.58385000005364,93.58385000005364,93.58385000005364,93.58385000005364,93.63375110004563,93.63375110004563,93.63375110004563,93.63375110004563,93.63375110004563,93.63375110004563,93.63375110004563,93.63375110004563,93.63375110004563,left,0.4897898000199348,94.15090230002534,94.15090230002534,None,,15,001,2025-12-23_15h58.53.939,2025C_exp1_comp,2022.2.4,59.96124107973505,
19.6,45,1,1,0,56,56,56,94.15090230002534,94.15090230002534,94.65141070005484,94.71808240003884,94.76867320004385,94.76867320004385,94.76867320004385,94.76867320004385,94.81817850004882,94.81817850004882,94.81817850004882,94.81817850004882,94.81817850004882,94.81817850004882,94.81817850004882,94.81817850004882,94.81817850004882,left,0.7696096999570727,95.61908079998102,95.61908079998102,None,,15,001,2025-12-23_15h58.53.939,2025C_exp1_comp,2022.2.4,59.96124107973505,
15.7,45,1,-1,0,57,57,91,95.61908079998102,95.61908079998102,96.11950819997583,96.18629710003734,96.2364319000626,96.2364319000626,96.2364319000626,96.2364319000626,96.28623940004036,96.28623940004036,96.28623940004036,96.28623940004036,96.28623940004036,96.28623940004036,96.28623940004036,96.28623940004036,96.28623940004036,left,0.4695898999925703,96.78685769997537,96.78685769997537,None,,15,001,2025-12-23_15h58.53.939,2025C_exp1_comp,2022.2.4,59.96124107973505,
35.3,315,1,1,0,58,58,69,96.78685769997537,96.78685769997537,97.28735790005885,97.35407740005758,97.40435540000908,97.40435540000908,97.40435540000908,97.40435540000908,97.45412440004293,97.45412440004293,97.45412440004293,97.45412440004293,97.45412440004293,97.45412440004293,97.45412440004293,97.45412440004293,97.45412440004293,left,0.46211680001579225,97.93799840006977,97.93799840006977,None,,15,001,2025-12-23_15h58.53.939,2025C_exp1_comp,2022.2.4,59.96124107973505,
12.1,315,1,-1,0,59,59,99,97.93799840006977,97.93799840006977,98.43901560001541,98.50571659998968,98.55578900000546,98.55578900000546,98.55578900000546,98.55578900000546,98.60566790006123,98.60566790006123,98.60566790006123,98.60566790006123,98.60566790006123,98.60566790006123,98.60566790006123,98.60566790006123,98.60566790006123,left,0.4539722999325022,99.0893914999906,99.0893914999906,None,,15,001,2025-12-23_15h58.53.939,2025C_exp1_comp,2022.2.4,59.96124107973505,
39.2,315,-1,0,0,60,60,16,99.0893914999906,99.0893914999906,99.58986249996815,99.65661549998913,99.70675999997184,99.70675999997184,99.70675999997184,99.70675999997184,99.75656370003708,99.75656370003708,99.75656370003708,99.75656370003708,99.75656370003708,99.75656370003708,99.75656370003708,99.75656370003708,99.75656370003708,left,0.6959080999949947,100.47404890006874,100.47404890006874,None,,15,001,2025-12-23_15h58.53.939,2025C_exp1_comp,2022.2.4,59.96124107973505,
35.3,45,1,0,0,61,61,24,100.47404890006874,100.47404890006874,100.97441939997952,101.04120530001819,101.09157879999839,101.09157879999839,101.09157879999839,101.09157879999839,101.14130490005482,101.14130490005482,101.14130490005482,101.14130490005482,101.14130490005482,101.14130490005482,101.14130490005482,101.14130490005482,101.14130490005482,right,0.5591816999949515,101.72534450003877,101.72534450003877,None,,15,001,2025-12-23_15h58.53.939,2025C_exp1_comp,2022.2.4,59.96124107973505,
42.7,315,1,0,0,62,62,35,101.72534450003877,101.72534450003877,102.22569380002096,102.29256009997334,102.34283500001766,102.34283500001766,102.34283500001766,102.34283500001766,102.39266680006403,102.39266680006403,102.39266680006403,102.39266680006403,102.39266680006403,102.39266680006403,102.39266680006403,102.39266680006403,102.39266680006403,left,0.5482637999812141,102.95997690001968,102.95997690001968,None,,15,001,2025-12-23_15h58.53.939,2025C_exp1_comp,2022.2.4,59.96124107973505,
35.3,315,-1,0,0,63,63,15,102.95997690001968,102.95997690001968,103.4603779000463,103.52723810006864,103.57757890003268,103.57757890003268,103.57757890003268,103.57757890003268,103.62729159998707,103.62729159998707,103.62729159998707,103.62729159998707,103.62729159998707,103.62729159998707,103.62729159998707,103.62729159998707,103.62729159998707,left,0.4092347000259906,104.06097059999593,104.06097059999593,None,,15,001,2025-12-23_15h58.53.939,2025C_exp1_comp,2022.2.4,59.96124107973505,
29.4,45,-1,-1,0,64,64,77,104.06097059999593,104.06097059999593,104.56150790001266,104.62817210005596,104.67858289997093,104.67858289997093,104.67858289997093,104.67858289997093,104.72817470005248,104.72817470005248,104.72817470005248,104.72817470005248,104.72817470005248,104.72817470005248,104.72817470005248,104.72817470005248,104.72817470005248,right,0.5557800000533462,105.31256920006126,105.31256920006126,None,,15,001,2025-12-23_15h58.53.939,2025C_exp1_comp,2022.2.4,59.96124107973505,
19.6,45,-1,0,0,65,65,2,105.31256920006126,105.31256920006126,105.81279590004124,105.87962530006189,105.92990830005147,105.92990830005147,105.92990830005147,105.92990830005147,105.97971530002542,105.97971530002542,105.97971530002542,105.97971530002542,105.97971530002542,105.97971530002542,105.97971530002542,105.97971530002542,105.97971530002542,right,0.5605682000750676,106.56353819998913,106.56353819998913,None,,15,001,2025-12-23_15h58.53.939,2025C_exp1_comp,2022.2.4,59.96124107973505,
35.3,315,-1,-1,0,66,66,87,106.56353819998913,106.56353819998913,107.06411879998632,107.13059089996386,107.18082959996536,107.18082959996536,107.18082959996536,107.18082959996536,107.23094140004832,107.23094140004832,107.23094140004832,107.23094140004832,107.23094140004832,107.23094140004832,107.23094140004832,107.23094140004832,107.23094140004832,left,0.5256683999905363,107.78144579997752,107.78144579997752,None,,15,001,2025-12-23_15h58.53.939,2025C_exp1_comp,2022.2.4,59.96124107973505,
19.6,45,-1,1,0,67,67,38,107.78144579997752,107.78144579997752,108.28183740004897,108.34853519999888,108.39897640002891,108.39897640002891,108.39897640002891,108.39897640002891,108.4486911999993,108.4486911999993,108.4486911999993,108.4486911999993,108.4486911999993,108.4486911999993,108.4486911999993,108.4486911999993,108.4486911999993,right,0.46660960000008345,108.93247280002106,108.93247280002106,None,,15,001,2025-12-23_15h58.53.939,2025C_exp1_comp,2022.2.4,59.96124107973505,
25.5,45,-1,1,0,68,68,40,108.93247280002106,108.93247280002106,109.43284100003075,109.49958379997406,109.54995939997025,109.54995939997025,109.54995939997025,109.54995939997025,109.59972609998658,109.59972609998658,109.59972609998658,109.59972609998658,109.59972609998658,109.59972609998658,109.59972609998658,109.59972609998658,109.59972609998658,right,0.4837043998995796,110.10036679997575,110.10036679997575,None,,15,001,2025-12-23_15h58.53.939,2025C_exp1_comp,2022.2.4,59.96124107973505,
42.7,315,-1,1,0,69,69,53,110.10036679997575,110.10036679997575,110.60092780005652,110.66748339997139,110.7178472999949,110.7178472999949,110.7178472999949,110.7178472999949,110.76773329998832,110.76773329998832,110.76773329998832,110.76773329998832,110.76773329998832,110.76773329998832,110.76773329998832,110.76773329998832,110.76773329998832,left,0.47658470005262643,111.26797050004825,111.26797050004825,None,,15,001,2025-12-23_15h58.53.939,2025C_exp1_comp,2022.2.4,59.96124107973505,
39.2,315,1,0,0,70,70,34,111.26797050004825,111.26797050004825,111.76874710002448,111.83538880001288,111.88580940000247,111.88580940000247,111.88580940000247,111.88580940000247,111.93557269999292,111.93557269999292,111.93557269999292,111.93557269999292,111.93557269999292,111.93557269999292,111.93557269999292,111.93557269999292,111.93557269999292,right,0.4770570000400767,112.43607769999653,112.43607769999653,None,,15,001,2025-12-23_15h58.53.939,2025C_exp1_comp,2022.2.4,59.96124107973505,
39.2,45,1,0,0,71,71,25,112.43607769999653,112.43607769999653,112.93654570006765,113.00319540000055,113.05347569996957,113.05347569996957,113.05347569996957,113.05347569996957,113.10322719998658,113.10322719998658,113.10322719998658,113.10322719998658,113.10322719998658,113.10322719998658,113.10322719998658,113.10322719998658,113.10322719998658,left,0.517047300003469,113.63714740006253,113.63714740006253,None,,15,001,2025-12-23_15h58.53.939,2025C_exp1_comp,2022.2.4,59.96124107973505,
42.7,45,1,0,0,72,72,26,113.63714740006253,113.63714740006253,114.1377415000461,114.20435740007088,114.25478209997527,114.25478209997527,114.25478209997527,114.25478209997527,114.3043822000036,114.3043822000036,114.3043822000036,114.3043822000036,114.3043822000036,114.3043822000036,114.3043822000036,114.3043822000036,114.3043822000036,right,0.4441422000527382,114.77170839998871,114.77170839998871,None,,15,001,2025-12-23_15h58.53.939,2025C_exp1_comp,2022.2.4,59.96124107973505,
29.4,315,-1,-1,0,73,73,86,114.77170839998871,114.77170839998871,115.2719263000181,115.33884290000424,115.38925640005618,115.38925640005618,115.38925640005618,115.38925640005618,115.4387216999894,115.4387216999894,115.4387216999894,115.4387216999894,115.4387216999894,115.4387216999894,115.4387216999894,115.4387216999894,115.4387216999894,right,0.6141852999571711,116.07293620007113,116.07293620007113,None,,15,001,2025-12-23_15h58.53.939,2025C_exp1_comp,2022.2.4,59.96124107973505,
19.6,315,-1,1,0,74,74,47,116.07293620007113,116.07293620007113,116.57324559998233,116.64009130001068,116.69030170002952,116.69030170002952,116.69030170002952,116.69030170002952,116.74005050002597,116.74005050002597,116.74005050002597,116.74005050002597,116.74005050002597,116.74005050002597,116.74005050002597,116.74005050002597,116.74005050002597,right,0.5992406000150368,117.35728780005593,117.35728780005593,None,,15,001,2025-12-23_15h58.53.939,2025C_exp1_comp,2022.2.4,59.96124107973505,
15.7,315,1,0,0,75,75,28,117.35728780005593,117.35728780005593,117.85787439998239,117.92462409997825,117.97492479998618,117.97492479998618,117.97492479998618,117.97492479998618,118.02490930003114,118.02490930003114,118.02490930003114,118.02490930003114,118.02490930003114,118.02490930003114,118.02490930003114,118.02490930003114,118.02490930003114,left,0.33928309998009354,118.39178349997383,118.39178349997383,None,,15,001,2025-12-23_15h58.53.939,2025C_exp1_comp,2022.2.4,59.96124107973505,
35.3,45,-1,-1,0,76,76,78,118.39178349997383,118.39178349997383,118.89228929998353,118.95899259997532,119.00973789999261,119.00973789999261,119.00973789999261,119.00973789999261,119.05899130005855,119.05899130005855,119.05899130005855,119.05899130005855,119.05899130005855,119.05899130005855,119.05899130005855,119.05899130005855,119.05899130005855,left,0.3765728999860585,119.4597453000024,119.4597453000024,None,,15,001,2025-12-23_15h58.53.939,2025C_exp1_comp,2022.2.4,59.96124107973505,
19.6,315,1,-1,0,77,77,101,119.4597453000024,119.4597453000024,119.9601432000054,120.02685879997443,120.07718140003271,120.07718140003271,120.07718140003271,120.07718140003271,120.12695760000497,120.12695760000497,120.12695760000497,120.12695760000497,120.12695760000497,120.12695760000497,120.12695760000497,120.12695760000497,120.12695760000497,left,0.5324305000249296,120.67746789997909,120.67746789997909,None,,15,001,2025-12-23_15h58.53.939,2025C_exp1_comp,2022.2.4,59.96124107973505,
29.4,315,1,1,0,78,78,68,120.67746789997909,120.67746789997909,121.17798100004438,121.24467939999886,121.29507620004006,121.29507620004006,121.29507620004006,121.29507620004006,121.3447153000161,121.3447153000161,121.3447153000161,121.3447153000161,121.3447153000161,121.3447153000161,121.3447153000161,121.3447153000161,121.3447153000161,right,0.5396926000248641,121.91216159996111,121.91216159996111,None,,15,001,2025-12-23_15h58.53.939,2025C_exp1_comp,2022.2.4,59.96124107973505,
35.3,315,1,0,0,79,79,33,121.91216159996111,121.91216159996111,122.41266430006362,122.47937119996641,122.52973030006979,122.52973030006979,122.52973030006979,122.52973030006979,122.57951060007326,122.57951060007326,122.57951060007326,122.57951060007326,122.57951060007326,122.57951060007326,122.57951060007326,122.57951060007326,122.57951060007326,right,0.6001426998991519,123.19677519996185,123.19677519996185,None,,15,001,2025-12-23_15h58.53.939,2025C_exp1_comp,2022.2.4,59.96124107973505,
39.2,45,-1,0,0,80,80,7,123.19677519996185,123.19677519996185,123.6972786000697,123.76377680001315,123.81435130001046,123.81435130001046,123.81435130001046,123.81435130001046,123.8641259999713,123.8641259999713,123.8641259999713,123.8641259999713,123.8641259999713,123.8641259999713,123.8641259999713,123.8641259999713,123.8641259999713,left,0.5322413999820128,124.41455470002256,124.41455470002256,None,,15,001,2025-12-23_15h58.53.939,2025C_exp1_comp,2022.2.4,59.96124107973505,
42.7,315,1,-1,0,81,81,107,124.41455470002256,124.41455470002256,124.91531730000861,124.98207330005243,125.03222619998269,125.03222619998269,125.03222619998269,125.03222619998269,125.08190250000916,125.08190250000916,125.08190250000916,125.08190250000916,125.08190250000916,125.08190250000916,125.08190250000916,125.08190250000916,125.08190250000916,right,0.6896164000499994,125.79908030002844,125.79908030002844,None,,15,001,2025-12-23_15h58.53.939,2025C_exp1_comp,2022.2.4,59.96124107973505,
25.5,315,1,0,0,82,82,31,125.79908030002844,125.79908030002844,126.29977210005745,126.36662410001736,126.4168658000417,126.4168658000417,126.4168658000417,126.4168658000417,126.46656770003028,126.46656770003028,126.46656770003028,126.46656770003028,126.46656770003028,126.46656770003028,126.46656770003028,126.46656770003028,126.46656770003028,left,0.4253947000252083,126.91681049996987,126.91681049996987,None,,15,001,2025-12-23_15h58.53.939,2025C_exp1_comp,2022.2.4,59.96124107973505,
12.1,315,-1,0,0,83,83,9,126.91681049996987,126.91681049996987,127.41797890001908,127.48415140004363,127.53465360007249,127.53465360007249,127.53465360007249,127.53465360007249,127.58448670001235,127.58448670001235,127.58448670001235,127.58448670001235,127.58448670001235,127.58448670001235,127.58448670001235,127.58448670001235,127.58448670001235,right,0.5953103000065312,128.2019169999985,128.2019169999985,None,,15,001,2025-12-23_15h58.53.939,2025C_exp1_comp,2022.2.4,59.96124107973505,
12.1,315,1,1,0,84,84,63,128.2019169999985,128.2019169999985,128.70229489996564,128.7690262000542,128.81935150001664,128.81935150001664,128.81935150001664,128.81935150001664,128.86900289996993,128.86900289996993,128.86900289996993,128.86900289996993,128.86900289996993,128.86900289996993,128.86900289996993,128.86900289996993,128.86900289996993,left,0.39934749994426966,129.28620950004552,129.28620950004552,None,,15,001,2025-12-23_15h58.53.939,2025C_exp1_comp,2022.2.4,59.96124107973505,
22.7,315,1,0,0,85,85,30,129.28620950004552,129.28620950004552,129.78674860007595,129.85345060005784,129.90385870006867,129.90385870006867,129.90385870006867,129.90385870006867,129.95359889999963,129.95359889999963,129.95359889999963,129.95359889999963,129.95359889999963,129.95359889999963,129.95359889999963,129.95359889999963,129.95359889999963,left,0.42697749997023493,130.40386359998956,130.40386359998956,None,,15,001,2025-12-23_15h58.53.939,2025C_exp1_comp,2022.2.4,59.96124107973505,
19.6,315,-1,-1,0,86,86,83,130.40386359998956,130.40386359998956,130.90452730003744,130.97127330000512,131.02142640005331,131.02142640005331,131.02142640005331,131.02142640005331,131.07134050002787,131.07134050002787,131.07134050002787,131.07134050002787,131.07134050002787,131.07134050002787,131.07134050002787,131.07134050002787,131.07134050002787,right,0.5172113999724388,131.6050372000318,131.6050372000318,None,,15,001,2025-12-23_15h58.53.939,2025C_exp1_comp,2022.2.4,59.96124107973505,
12.1,315,-1,1,0,87,87,45,131.6050372000318,131.6050372000318,132.10553279996384,132.1724106000038,132.22267779998947,132.22267779998947,132.22267779998947,132.22267779998947,132.27238089998718,132.27238089998718,132.27238089998718,132.27238089998718,132.27238089998718,132.27238089998718,132.27238089998718,132.27238089998718,132.27238089998718,right,0.5397803999949247,132.83973190002143,132.83973190002143,None,,15,001,2025-12-23_15h58.53.939,2025C_exp1_comp,2022.2.4,59.96124107973505,
15.7,315,1,-1,0,88,88,100,132.83973190002143,132.83973190002143,133.34023149998393,133.40694510005414,133.45710620004684,133.45710620004684,133.45710620004684,133.45710620004684,133.50695459998678,133.50695459998678,133.50695459998678,133.50695459998678,133.50695459998678,133.50695459998678,133.50695459998678,133.50695459998678,133.50695459998678,left,0.44193169998470694,133.9743375000544,133.9743375000544,None,,15,001,2025-12-23_15h58.53.939,2025C_exp1_comp,2022.2.4,59.96124107973505,
42.7,45,-1,-1,0,89,89,80,133.9743375000544,133.9743375000544,134.4748007999733,134.54137310001533,134.59179570002016,134.59179570002016,134.59179570002016,134.59179570002016,134.64154310000595,134.64154310000595,134.64154310000595,134.64154310000595,134.64154310000595,134.64154310000595,134.64154310000595,134.64154310000595,134.64154310000595,left,0.4266170000191778,135.09204030002002,135.09204030002002,None,,15,001,2025-12-23_15h58.53.939,2025C_exp1_comp,2022.2.4,59.96124107973505,
19.6,315,-1,0,0,90,90,11,135.09204030002002,135.09204030002002,135.59241400007159,135.65902799996547,135.7095774000045,135.7095774000045,135.7095774000045,135.7095774000045,135.75931200000923,135.75931200000923,135.75931200000923,135.75931200000923,135.75931200000923,135.75931200000923,135.75931200000923,135.75931200000923,135.75931200000923,right,0.5812045000493526,136.36018710001372,136.36018710001372,None,,15,001,2025-12-23_15h58.53.939,2025C_exp1_comp,2022.2.4,59.96124107973505,
15.7,315,-1,1,0,91,91,46,136.36018710001372,136.36018710001372,136.8604653000366,136.9270441000117,136.97720019996632,136.97720019996632,136.97720019996632,136.97720019996632,137.02731330005918,137.02731330005918,137.02731330005918,137.02731330005918,137.02731330005918,137.02731330005918,137.02731330005918,137.02731330005918,137.02731330005918,right,0.48884690005797893,137.54440740006976,137.54440740006976,None,,15,001,2025-12-23_15h58.53.939,2025C_exp1_comp,2022.2.4,59.96124107973505,
39.2,315,1,1,0,92,92,70,137.54440740006976,137.54440740006976,138.04482110007666,138.11167660006322,138.16198119998444,138.16198119998444,138.16198119998444,138.16198119998444,138.2117736999644,138.2117736999644,138.2117736999644,138.2117736999644,138.2117736999644,138.2117736999644,138.2117736999644,138.2117736999644,138.2117736999644,right,0.5128525999607518,138.74553429998923,138.74553429998923,None,,15,001,2025-12-23_15h58.53.939,2025C_exp1_comp,2022.2.4,59.96124107973505,
22.7,45,1,0,0,93,93,21,138.74553429998923,138.74553429998923,139.2461261000717,139.31297329999506,139.36326010001358,139.36326010001358,139.36326010001358,139.36326010001358,139.41293450002559,139.41293450002559,139.41293450002559,139.41293450002559,139.41293450002559,139.41293450002559,139.41293450002559,139.41293450002559,139.41293450002559,left,0.5993709999602288,140.03027840005234,140.03027840005234,None,,15,001,2025-12-23_15h58.53.939,2025C_exp1_comp,2022.2.4,59.96124107973505,
15.7,45,-1,1,0,94,94,37,140.03027840005234,140.03027840005234,140.5307344000321,140.59740670002066,140.6476435000077,140.6476435000077,140.6476435000077,140.6476435000077,140.69759220001288,140.69759220001288,140.69759220001288,140.69759220001288,140.69759220001288,140.69759220001288,140.69759220001288,140.69759220001288,140.69759220001288,right,0.5629638000391424,141.28152119996957,141.28152119996957,None,,15,001,2025-12-23_15h58.53.939,2025C_exp1_comp,2022.2.4,59.96124107973505,
42.7,315,-1,-1,0,95,95,89,141.28152119996957,141.28152119996957,141.78197929996531,141.8487169999862,141.8990825000219,141.8990825000219,141.8990825000219,141.8990825000219,141.94886520004366,141.94886520004366,141.94886520004366,141.94886520004366,141.94886520004366,141.94886520004366,141.94886520004366,141.94886520004366,141.94886520004366,left,0.5828783999895677,142.54948330007028,142.54948330007028,None,,15,001,2025-12-23_15h58.53.939,2025C_exp1_comp,2022.2.4,59.96124107973505,
39.2,315,-1,-1,0,96,96,88,142.54948330007028,142.54948330007028,143.04998160002287,143.11663269996643,143.166866100044,143.166866100044,143.166866100044,143.166866100044,143.21679340000264,143.21679340000264,143.21679340000264,143.21679340000264,143.21679340000264,143.21679340000264,143.21679340000264,143.21679340000264,143.21679340000264,left,0.507646800018847,143.75044279999565,143.75044279999565,None,,15,001,2025-12-23_15h58.53.939,2025C_exp1_comp,2022.2.4,59.96124107973505,
29.4,315,-1,0,0,97,97,14,143.75044279999565,143.75044279999565,144.25116260000505,144.31789790000767,144.36814140004572,144.36814140004572,144.36814140004572,144.36814140004572,144.41790700005367,144.41790700005367,144.41790700005367,144.41790700005367,144.41790700005367,144.41790700005367,144.41790700005367,144.41790700005367,144.41790700005367,right,0.37029549991711974,144.81836000003386,144.81836000003386,None,,15,001,2025-12-23_15h58.53.939,2025C_exp1_comp,2022.2.4,59.96124107973505,
12.1,45,1,0,0,98,98,18,144.81836000003386,144.81836000003386,145.3188243000768,145.3855201000115,145.4358558000531,145.4358558000531,145.4358558000531,145.4358558000531,145.485754000023,145.485754000023,145.485754000023,145.485754000023,145.485754000023,145.485754000023,145.485754000023,145.485754000023,145.485754000023,left,0.44672519993036985,145.952906099963,145.952906099963,None,,15,001,2025-12-23_15h58.53.939,2025C_exp1_comp,2022.2.4,59.96124107973505,
15.7,45,-1,0,0,99,99,1,145.952906099963,145.952906099963,146.45336400007363,146.51993750000838,146.57032230007462,146.57032230007462,146.57032230007462,146.57032230007462,146.6199424000224,146.6199424000224,146.6199424000224,146.6199424000224,146.6199424000224,146.6199424000224,146.6199424000224,146.6199424000224,146.6199424000224,right,0.5127272000536323,147.1541603000369,147.1541603000369,None,,15,001,2025-12-23_15h58.53.939,2025C_exp1_comp,2022.2.4,59.96124107973505,
42.7,45,-1,1,0,100,100,44,147.1541603000369,147.1541603000369,147.65439509996213,147.7212831999641,147.77157610002905,147.77157610002905,147.77157610002905,147.77157610002905,147.82123310002498,147.82123310002498,147.82123310002498,147.82123310002498,147.82123310002498,147.82123310002498,147.82123310002498,147.82123310002498,147.82123310002498,right,0.5184871000237763,148.37205680005718,148.37205680005718,None,,15,001,2025-12-23_15h58.53.939,2025C_exp1_comp,2022.2.4,59.96124107973505,
22.7,315,1,-1,0,101,101,102,148.37205680005718,148.37205680005718,148.87234820006415,148.9391520000063,148.9894098000368,148.9894098000368,148.9894098000368,148.9894098000368,149.03932550002355,149.03932550002355,149.03932550002355,149.03932550002355,149.03932550002355,149.03932550002355,149.03932550002355,149.03932550002355,149.03932550002355,left,0.3572135000722483,149.42297830001917,149.42297830001917,None,,15,001,2025-12-23_15h58.53.939,2025C_exp1_comp,2022.2.4,59.96124107973505,
19.6,315,1,1,0,102,102,65,149.42297830001917,149.42297830001917,149.92351110000163,149.9902036000276,150.04051530000288,150.04051530000288,150.04051530000288,150.04051530000288,150.090303300065,150.090303300065,150.090303300065,150.090303300065,150.090303300065,150.090303300065,150.090303300065,150.090303300065,150.090303300065,left,0.4255598000017926,150.540634999983,150.540634999983,None,,15,001,2025-12-23_15h58.53.939,2025C_exp1_comp,2022.2.4,59.96124107973505,
19.6,315,1,0,0,103,103,29,150.540634999983,150.540634999983,151.04140590003226,151.10797800007276,151.15818080003373,151.15818080003373,151.15818080003373,151.15818080003373,151.2079738000175,151.2079738000175,151.2079738000175,151.2079738000175,151.2079738000175,151.2079738000175,151.2079738000175,151.2079738000175,151.2079738000175,left,0.4352019000798464,151.67508439999074,151.67508439999074,None,,15,001,2025-12-23_15h58.53.939,2025C_exp1_comp,2022.2.4,59.96124107973505,
39.2,315,1,-1,0,104,104,106,151.67508439999074,151.67508439999074,152.1757034000475,152.2424330000067,152.29277000005823,152.29277000005823,152.29277000005823,152.29277000005823,152.34241799998563,152.34241799998563,152.34241799998563,152.34241799998563,152.34241799998563,152.34241799998563,152.34241799998563,152.34241799998563,152.34241799998563,left,0.8694839999079704,153.24334140005521,153.24334140005521,None,,15,001,2025-12-23_15h58.53.939,2025C_exp1_comp,2022.2.4,59.96124107973505,
25.5,315,-1,1,0,105,105,49,153.24334140005521,153.24334140005521,153.7440018999623,153.81057910004165,153.86101990006864,153.86101990006864,153.86101990006864,153.86101990006864,153.910807200009,153.910807200009,153.910807200009,153.910807200009,153.910807200009,153.910807200009,153.910807200009,153.910807200009,153.910807200009,right,0.5020483999978751,154.4444997999817,154.4444997999817,None,,15,001,2025-12-23_15h58.53.939,2025C_exp1_comp,2022.2.4,59.96124107973505,
29.4,315,1,-1,0,106,106,104,154.4444997999817,154.4444997999817,154.94489589997102,155.0119586000219,155.06216099997982,155.06216099997982,155.06216099997982,155.06216099997982,155.11199290002696,155.11199290002696,155.11199290002696,155.11199290002696,155.11199290002696,155.11199290002696,155.11199290002696,155.11199290002696,155.11199290002696,left,0.5322838000720367,155.66241190000437,155.66241190000437,None,,15,001,2025-12-23_15h58.53.939,2025C_exp1_comp,2022.2.4,59.96124107973505,
29.4,315,-1,1,0,107,107,50,155.66241190000437,155.66241190000437,156.16368170001078,156.22976540005766,156.27986880007666,156.27986880007666,156.27986880007666,156.27986880007666,156.32987550005782,156.32987550005782,156.32987550005782,156.32987550005782,156.32987550005782,156.32987550005782,156.32987550005782,156.32987550005782,156.32987550005782,right,0.4660410999786109,156.81899770000018,156.81899770000018,space,2.128282199962996,15,001,2025-12-23_15h58.53.939,2025C_exp1_comp,2022.2.4,59.96124107973505,
42.7,45,-1,-1,1,0,108,80,158.96570549998432,158.96570549998432,159.4663771999767,159.53299440001138,159.58333479997236,159.58333479997236,159.58333479997236,159.58333479997236,159.6331619999837,159.6331619999837,159.6331619999837,159.6331619999837,159.6331619999837,159.6331619999837,159.6331619999837,159.6331619999837,159.6331619999837,left,0.5463435999117792,160.20029080007225,160.20029080007225,None,,15,001,2025-12-23_15h58.53.939,2025C_exp1_comp,2022.2.4,59.96124107973505,
25.5,315,-1,1,1,1,109,49,160.20029080007225,160.20029080007225,160.70098279998638,160.76777559996117,160.8178506999975,160.8178506999975,160.8178506999975,160.8178506999975,160.86789320001844,160.86789320001844,160.86789320001844,160.86789320001844,160.86789320001844,160.86789320001844,160.86789320001844,160.86789320001844,160.86789320001844,right,0.5282382000004873,161.41826259996742,161.41826259996742,None,,15,001,2025-12-23_15h58.53.939,2025C_exp1_comp,2022.2.4,59.96124107973505,
15.7,315,-1,0,1,2,110,10,161.41826259996742,161.41826259996742,161.91881719999947,161.98545170004945,162.03576750005595,162.03576750005595,162.03576750005595,162.03576750005595,162.0853290000232,162.0853290000232,162.0853290000232,162.0853290000232,162.0853290000232,162.0853290000232,162.0853290000232,162.0853290000232,162.0853290000232,right,0.5263314000330865,162.63619730004575,162.63619730004575,None,,15,001,2025-12-23_15h58.53.939,2025C_exp1_comp,2022.2.4,59.96124107973505,
19.6,45,1,0,1,3,111,20,162.63619730004575,162.63619730004575,163.13654470001347,163.2034368000459,163.25344090000726,163.25344090000726,163.25344090000726,163.25344090000726,163.3033931000391,163.3033931000391,163.3033931000391,163.3033931000391,163.3033931000391,163.3033931000391,163.3033931000391,163.3033931000391,163.3033931000391,left,0.7568738999543712,164.08755980001297,164.08755980001297,None,,15,001,2025-12-23_15h58.53.939,2025C_exp1_comp,2022.2.4,59.96124107973505,
15.7,45,-1,1,1,4,112,37,164.08755980001297,164.08755980001297,164.58828540006652,164.65500080003403,164.70530609996058,164.70530609996058,164.70530609996058,164.70530609996058,164.75500570004806,164.75500570004806,164.75500570004806,164.75500570004806,164.75500570004806,164.75500570004806,164.75500570004806,164.75500570004806,164.75500570004806,right,0.6170393999200314,165.3889253999805,165.3889253999805,None,,15,001,2025-12-23_15h58.53.939,2025C_exp1_comp,2022.2.4,59.96124107973505,
19.6,315,1,-1,1,5,113,101,165.3889253999805,165.3889253999805,165.8896869000746,165.95636229997035,166.0066252000397,166.0066252000397,166.0066252000397,166.0066252000397,166.05645959998947,166.05645959998947,166.05645959998947,166.05645959998947,166.05645959998947,166.05645959998947,166.05645959998947,166.05645959998947,166.05645959998947,right,0.5308018999639899,166.6068408000283,166.6068408000283,None,,15,001,2025-12-23_15h58.53.939,2025C_exp1_comp,2022.2.4,59.96124107973505,
12.1,315,1,-1,1,6,114,99,166.6068408000283,166.6068408000283,167.10734440002125,167.17394650005735,167.22432390006725,167.22432390006725,167.22432390006725,167.22432390006725,167.27387909998652,167.27387909998652,167.27387909998652,167.27387909998652,167.27387909998652,167.27387909998652,167.27387909998652,167.27387909998652,167.27387909998652,left,0.4825318999355659,167.7747407000279,167.7747407000279,None,,15,001,2025-12-23_15h58.53.939,2025C_exp1_comp,2022.2.4,59.96124107973505,
42.7,315,1,-1,1,7,115,107,167.7747407000279,167.7747407000279,168.27500919997692,168.3418698000023,168.3921269000275,168.3921269000275,168.3921269000275,168.3921269000275,168.44181470002513,168.44181470002513,168.44181470002513,168.44181470002513,168.44181470002513,168.44181470002513,168.44181470002513,168.44181470002513,168.44181470002513,right,0.514692600001581,168.97578360000625,168.97578360000625,None,,15,001,2025-12-23_15h58.53.939,2025C_exp1_comp,2022.2.4,59.96124107973505,
12.1,45,1,1,1,8,116,54,168.97578360000625,168.97578360000625,169.47615180001594,169.54295490006916,169.59335980005562,169.59335980005562,169.59335980005562,169.59335980005562,169.64317920000758,169.64317920000758,169.64317920000758,169.64317920000758,169.64317920000758,169.64317920000758,169.64317920000758,169.64317920000758,169.64317920000758,left,0.5447312000906095,170.21039939997718,170.21039939997718,None,,15,001,2025-12-23_15h58.53.939,2025C_exp1_comp,2022.2.4,59.96124107973505,
12.1,45,-1,-1,1,9,117,72,170.21039939997718,170.21039939997718,170.71090499998536,170.77753089996986,170.8279465000378,170.8279465000378,170.8279465000378,170.8279465000378,170.87760350003373,170.87760350003373,170.87760350003373,170.87760350003373,170.87760350003373,170.87760350003373,170.87760350003373,170.87760350003373,170.87760350003373,right,0.4950211000395939,171.39480330003425,171.39480330003425,None,,15,001,2025-12-23_15h58.53.939,2025C_exp1_comp,2022.2.4,59.96124107973505,
25.5,45,1,-1,1,10,118,94,171.39480330003425,171.39480330003425,171.89559570001438,171.96239580004476,172.01257380004972,172.01257380004972,172.01257380004972,172.01257380004972,172.06245530000888,172.06245530000888,172.06245530000888,172.06245530000888,172.06245530000888,172.06245530000888,172.06245530000888,172.06245530000888,172.06245530000888,left,0.4860389999812469,172.57956290000584,172.57956290000584,None,,15,001,2025-12-23_15h58.53.939,2025C_exp1_comp,2022.2.4,59.96124107973505,
19.6,315,-1,-1,1,11,119,83,172.57956290000584,172.57956290000584,173.07996030000504,173.14665240002796,173.19690330000594,173.19690330000594,173.19690330000594,173.19690330000594,173.2468262000475,173.2468262000475,173.2468262000475,173.2468262000475,173.2468262000475,173.2468262000475,173.2468262000475,173.2468262000475,173.2468262000475,right,0.5249004000797868,173.79745650000405,173.79745650000405,None,,15,001,2025-12-23_15h58.53.939,2025C_exp1_comp,2022.2.4,59.96124107973505,
35.3,45,1,0,1,12,120,24,173.79745650000405,173.79745650000405,174.29811049997807,174.3643151000142,174.4148788000457,174.4148788000457,174.4148788000457,174.4148788000457,174.4646443000529,174.4646443000529,174.4646443000529,174.4646443000529,174.4646443000529,174.4646443000529,174.4646443000529,174.4646443000529,174.4646443000529,right,0.5950946999946609,175.08196690003388,175.08196690003388,None,,15,001,2025-12-23_15h58.53.939,2025C_exp1_comp,2022.2.4,59.96124107973505,
25.5,315,1,-1,1,13,121,103,175.08196690003388,175.08196690003388,175.5825124999974,175.64910260005854,175.69952680007555,175.69952680007555,175.69952680007555,175.69952680007555,175.74902450002264,175.74902450002264,175.74902450002264,175.74902450002264,175.74902450002264,175.74902450002264,175.74902450002264,175.74902450002264,175.74902450002264,left,0.5984637000365183,176.36657219997142,176.36657219997142,None,,15,001,2025-12-23_15h58.53.939,2025C_exp1_comp,2022.2.4,59.96124107973505,
25.5,45,-1,0,1,14,122,4,176.36657219997142,176.36657219997142,176.86705250001978,176.9337504999712,176.9841899999883,176.9841899999883,176.9841899999883,176.9841899999883,177.03387899999507,177.03387899999507,177.03387899999507,177.03387899999507,177.03387899999507,177.03387899999507,177.03387899999507,177.03387899999507,177.03387899999507,right,0.594927900005132,177.65129369997885,177.65129369997885,None,,15,001,2025-12-23_15h58.53.939,2025C_exp1_comp,2022.2.4,59.96124107973505,
29.4,315,-1,1,1,15,123,50,177.65129369997885,177.65129369997885,178.15206400002353,178.21869939996395,178.26886179996654,178.26886179996654,178.26886179996654,178.26886179996654,178.31873180007096,178.31873180007096,178.31873180007096,178.31873180007096,178.31873180007096,178.31873180007096,178.31873180007096,178.31873180007096,178.31873180007096,right,0.5655244000954553,178.90236100007314,178.90236100007314,None,,15,001,2025-12-23_15h58.53.939,2025C_exp1_comp,2022.2.4,59.96124107973505,
29.4,45,-1,-1,1,16,124,77,178.90236100007314,178.90236100007314,179.40293890004978,179.46962610003538,179.51995079999324,179.51995079999324,179.51995079999324,179.51995079999324,179.5697269999655,179.5697269999655,179.5697269999655,179.5697269999655,179.5697269999655,179.5697269999655,179.5697269999655,179.5697269999655,179.5697269999655,right,0.5627626000205055,180.15372210007627,180.15372210007627,None,,15,001,2025-12-23_15h58.53.939,2025C_exp1_comp,2022.2.4,59.96124107973505,
35.3,315,1,-1,1,17,125,105,180.15372210007627,180.15372210007627,180.65410250006244,180.72081339999568,180.77125200000592,180.77125200000592,180.77125200000592,180.77125200000592,180.82108230004087,180.82108230004087,180.82108230004087,180.82108230004087,180.82108230004087,180.82108230004087,180.82108230004087,180.82108230004087,180.82108230004087,right,0.6075631999410689,181.4550274000503,181.4550274000503,None,,15,001,2025-12-23_15h58.53.939,2025C_exp1_comp,2022.2.4,59.96124107973505,
19.6,45,1,-1,1,18,126,92,181.4550274000503,181.4550274000503,181.9556388000492,182.02204569999594,182.07222390000243,182.07222390000243,182.07222390000243,182.07222390000243,182.12224539997987,182.12224539997987,182.12224539997987,182.12224539997987,182.12224539997987,182.12224539997987,182.12224539997987,182.12224539997987,182.12224539997987,left,0.48218499997165054,182.62265989999287,182.62265989999287,None,,15,001,2025-12-23_15h58.53.939,2025C_exp1_comp,2022.2.4,59.96124107973505,
15.7,45,1,-1,1,19,127,91,182.62265989999287,182.62265989999287,183.12343430006877,183.19007160002366,183.2404970000498,183.2404970000498,183.2404970000498,183.2404970000498,183.2902736000251,183.2902736000251,183.2902736000251,183.2902736000251,183.2902736000251,183.2902736000251,183.2902736000251,183.2902736000251,183.2902736000251,left,0.3779189999913797,183.69045660004485,183.69045660004485,None,,15,001,2025-12-23_15h58.53.939,2025C_exp1_comp,2022.2.4,59.96124107973505,
35.3,315,-1,0,1,20,128,15,183.69045660004485,183.69045660004485,184.1909658999648,184.25791380007286,184.3080900000641,184.3080900000641,184.3080900000641,184.3080900000641,184.35788070003036,184.35788070003036,184.35788070003036,184.35788070003036,184.35788070003036,184.35788070003036,184.35788070003036,184.35788070003036,184.35788070003036,right,0.6946744000306353,185.07504560006782,185.07504560006782,None,,15,001,2025-12-23_15h58.53.939,2025C_exp1_comp,2022.2.4,59.96124107973505,
42.7,315,-1,-1,1,21,129,89,185.07504560006782,185.07504560006782,185.57577640004456,185.64247429999523,185.6928022999782,185.6928022999782,185.6928022999782,185.6928022999782,185.74261219997425,185.74261219997425,185.74261219997425,185.74261219997425,185.74261219997425,185.74261219997425,185.74261219997425,185.74261219997425,185.74261219997425,right,0.9736508000642061,186.74358710006345,186.74358710006345,None,,15,001,2025-12-23_15h58.53.939,2025C_exp1_comp,2022.2.4,59.96124107973505,
29.4,45,1,1,1,22,130,59,186.74358710006345,186.74358710006345,187.24400519998744,187.31084060005378,187.3610477000475,187.3610477000475,187.3610477000475,187.3610477000475,187.41082280001137,187.41082280001137,187.41082280001137,187.41082280001137,187.41082280001137,187.41082280001137,187.41082280001137,187.41082280001137,187.41082280001137,right,0.584638400003314,188.02806729997974,188.02806729997974,None,,15,001,2025-12-23_15h58.53.939,2025C_exp1_comp,2022.2.4,59.96124107973505,
35.3,45,1,1,1,23,131,60,188.02806729997974,188.02806729997974,188.52868770004716,188.59538770001382,188.6457217000425,188.6457217000425,188.6457217000425,188.6457217000425,188.69540970004164,188.69540970004164,188.69540970004164,188.69540970004164,188.69540970004164,188.69540970004164,188.69540970004164,188.69540970004164,188.69540970004164,right,0.62083100003656,189.34627199999522,189.34627199999522,None,,15,001,2025-12-23_15h58.53.939,2025C_exp1_comp,2022.2.4,59.96124107973505,
12.1,315,1,0,1,24,132,27,189.34627199999522,189.34627199999522,189.84669210005086,189.9133973000571,189.96360979997553,189.96360979997553,189.96360979997553,189.96360979997553,190.01352789998055,190.01352789998055,190.01352789998055,190.01352789998055,190.01352789998055,190.01352789998055,190.01352789998055,190.01352789998055,190.01352789998055,left,0.5104182999348268,190.54757709999103,190.54757709999103,None,,15,001,2025-12-23_15h58.53.939,2025C_exp1_comp,2022.2.4,59.96124107973505,
39.2,45,-1,1,1,25,133,43,190.54757709999103,190.54757709999103,191.04779780004174,191.1147406999953,191.16506540006958,191.16506540006958,191.16506540006958,191.16506540006958,191.2148694000207,191.2148694000207,191.2148694000207,191.2148694000207,191.2148694000207,191.2148694000207,191.2148694000207,191.2148694000207,191.2148694000207,right,0.604933200054802,191.84868010005448,191.84868010005448,None,,15,001,2025-12-23_15h58.53.939,2025C_exp1_comp,2022.2.4,59.96124107973505,
22.7,45,-1,-1,1,26,134,75,191.84868010005448,191.84868010005448,192.34910480002873,192.41567590006161,192.46588989999145,192.46588989999145,192.46588989999145,192.46588989999145,192.51607320003677,192.51607320003677,192.51607320003677,192.51607320003677,192.51607320003677,192.51607320003677,192.51607320003677,192.51607320003677,192.51607320003677,right,0.5679549999767914,193.11662730004173,193.11662730004173,None,,15,001,2025-12-23_15h58.53.939,2025C_exp1_comp,2022.2.4,59.96124107973505,
35.3,315,1,1,1,27,135,69,193.11662730004173,193.11662730004173,193.61713719996624,193.68383009999525,193.73414650000632,193.73414650000632,193.73414650000632,193.73414650000632,193.78395970002748,193.78395970002748,193.78395970002748,193.78395970002748,193.78395970002748,193.78395970002748,193.78395970002748,193.78395970002748,193.78395970002748,right,0.5476505999686196,194.3510993999662,194.3510993999662,None,,15,001,2025-12-23_15h58.53.939,2025C_exp1_comp,2022.2.4,59.96124107973505,
15.7,315,-1,1,1,28,136,46,194.3510993999662,194.3510993999662,194.8516714000143,194.9183720999863,194.96869340003468,194.96869340003468,194.96869340003468,194.96869340003468,195.01851590001024,195.01851590001024,195.01851590001024,195.01851590001024,195.01851590001024,195.01851590001024,195.01851590001024,195.01851590001024,195.01851590001024,right,0.4579646000638604,195.50233909999952,195.50233909999952,None,,15,001,2025-12-23_15h58.53.939,2025C_exp1_comp,2022.2.4,59.96124107973505,
39.2,315,-1,1,1,29,137,52,195.50233909999952,195.50233909999952,196.00275370001327,196.06961000000592,196.11984110006597,196.11984110006597,196.11984110006597,196.11984110006597,196.16970029997174,196.16970029997174,196.16970029997174,196.16970029997174,196.16970029997174,196.16970029997174,196.16970029997174,196.16970029997174,196.16970029997174,right,0.5140227000229061,196.70327699999325,196.70327699999325,None,,15,001,2025-12-23_15h58.53.939,2025C_exp1_comp,2022.2.4,59.96124107973505,
42.7,315,-1,1,1,30,138,53,196.70327699999325,196.70327699999325,197.20372340001632,197.27147490007337,197.32086730003357,197.32086730003357,197.32086730003357,197.32086730003357,197.37060470005963,197.37060470005963,197.37060470005963,197.37060470005963,197.37060470005963,197.37060470005963,197.37060470005963,197.37060470005963,197.37060470005963,left,0.49739899998530746,197.8882966999663,197.8882966999663,None,,15,001,2025-12-23_15h58.53.939,2025C_exp1_comp,2022.2.4,59.96124107973505,
12.1,315,1,1,1,31,139,63,197.8882966999663,197.8882966999663,198.3889090999728,198.45552219997626,198.50586989999283,198.50586989999283,198.50586989999283,198.50586989999283,198.555464199977,198.555464199977,198.555464199977,198.555464199977,198.555464199977,198.555464199977,198.555464199977,198.555464199977,198.555464199977,right,0.5522169999312609,199.13932209997438,199.13932209997438,None,,15,001,2025-12-23_15h58.53.939,2025C_exp1_comp,2022.2.4,59.96124107973505,
12.1,45,1,0,1,32,140,18,199.13932209997438,199.13932209997438,199.63980979996268,199.7065102000488,199.7568350000074,199.7568350000074,199.7568350000074,199.7568350000074,199.80663969996385,199.80663969996385,199.80663969996385,199.80663969996385,199.80663969996385,199.80663969996385,199.80663969996385,199.80663969996385,199.80663969996385,right,0.8619833999546245,200.6908655000152,200.6908655000152,None,,15,001,2025-12-23_15h58.53.939,2025C_exp1_comp,2022.2.4,59.96124107973505,
15.7,45,1,0,1,33,141,19,200.6908655000152,200.6908655000152,201.19128430006094,201.2579940999858,201.30842320004012,201.30842320004012,201.30842320004012,201.30842320004012,201.35809800005518,201.35809800005518,201.35809800005518,201.35809800005518,201.35809800005518,201.35809800005518,201.35809800005518,201.35809800005518,201.35809800005518,right,0.549433899926953,201.9253250999609,201.9253250999609,None,,15,001,2025-12-23_15h58.53.939,2025C_exp1_comp,2022.2.4,59.96124107973505,
22.7,315,-1,1,1,34,142,48,201.9253250999609,201.9253250999609,202.425957200001,202.492612299975,202.54292520007584,202.54292520007584,202.54292520007584,202.54292520007584,202.59279550006613,202.59279550006613,202.59279550006613,202.59279550006613,202.59279550006613,202.59279550006613,202.59279550006613,202.59279550006613,202.59279550006613,right,0.6117410999722779,203.22673850005958,203.22673850005958,None,,15,001,2025-12-23_15h58.53.939,2025C_exp1_comp,2022.2.4,59.96124107973505,
22.7,315,-1,0,1,35,143,12,203.22673850005958,203.22673850005958,203.727283300017,203.79386480001267,203.84426300006453,203.84426300006453,203.84426300006453,203.84426300006453,203.8940045000054,203.8940045000054,203.8940045000054,203.8940045000054,203.8940045000054,203.8940045000054,203.8940045000054,203.8940045000054,203.8940045000054,right,0.4544012000551447,204.37789420003537,204.37789420003537,None,,15,001,2025-12-23_15h58.53.939,2025C_exp1_comp,2022.2.4,59.96124107973505,
39.2,315,-1,0,1,36,144,16,204.37789420003537,204.37789420003537,204.8782884000102,204.94485109997913,204.99545839999337,204.99545839999337,204.99545839999337,204.99545839999337,205.04522259999067,205.04522259999067,205.04522259999067,205.04522259999067,205.04522259999067,205.04522259999067,205.04522259999067,205.04522259999067,205.04522259999067,left,0.6632334999740124,205.72908449999522,205.72908449999522,None,,15,001,2025-12-23_15h58.53.939,2025C_exp1_comp,2022.2.4,59.96124107973505,
29.4,315,1,0,1,37,145,32,205.72908449999522,205.72908449999522,206.22972940001637,206.29643480002414,206.34658939996734,206.34658939996734,206.34658939996734,206.34658939996734,206.39653979998548,206.39653979998548,206.39653979998548,206.39653979998548,206.39653979998548,206.39653979998548,206.39653979998548,206.39653979998548,206.39653979998548,right,0.39100039994809777,206.81375630002003,206.81375630002003,None,,15,001,2025-12-23_15h58.53.939,2025C_exp1_comp,2022.2.4,59.96124107973505,
19.6,315,1,0,1,38,146,29,206.81375630002003,206.81375630002003,207.31438730005175,207.38111409998965,207.43140740005765,207.43140740005765,207.43140740005765,207.43140740005765,207.4810742000118,207.4810742000118,207.4810742000118,207.4810742000118,207.4810742000118,207.4810742000118,207.4810742000118,207.4810742000118,207.4810742000118,left,0.37140230007935315,207.88159880007152,207.88159880007152,None,,15,001,2025-12-23_15h58.53.939,2025C_exp1_comp,2022.2.4,59.96124107973505,
22.7,315,-1,-1,1,39,147,84,207.88159880007152,207.88159880007152,208.38188140001148,208.44858860003296,208.49887899996247,208.49887899996247,208.49887899996247,208.49887899996247,208.54856829997152,208.54856829997152,208.54856829997152,208.54856829997152,208.54856829997152,208.54856829997152,208.54856829997152,208.54856829997152,208.54856829997152,right,0.5186204999918118,209.09897719998844,209.09897719998844,None,,15,001,2025-12-23_15h58.53.939,2025C_exp1_comp,2022.2.4,59.96124107973505,
15.7,45,1,1,1,40,148,55,209.09897719998844,209.09897719998844,209.59991530003026,209.66653990000486,209.71699179999996,209.71699179999996,209.71699179999996,209.71699179999996,209.76650729996618,209.76650729996618,209.76650729996618,209.76650729996618,209.76650729996618,209.76650729996618,209.76650729996618,209.76650729996618,209.76650729996618,left,0.5170044000260532,210.3004749000538,210.3004749000538,None,,15,001,2025-12-23_15h58.53.939,2025C_exp1_comp,2022.2.4,59.96124107973505,
15.7,45,-1,-1,1,41,149,73,210.3004749000538,210.3004749000538,210.80104559997562,210.8677166000707,210.9179336000234,210.9179336000234,210.9179336000234,210.9179336000234,210.9678380000405,210.9678380000405,210.9678380000405,210.9678380000405,210.9678380000405,210.9678380000405,210.9678380000405,210.9678380000405,210.9678380000405,right,0.476235399954021,211.46824880002532,211.46824880002532,None,,15,001,2025-12-23_15h58.53.939,2025C_exp1_comp,2022.2.4,59.96124107973505,
25.5,315,-1,-1,1,42,150,85,211.46824880002532,211.46824880002532,211.96876000007614,212.0352453000378,212.08579609997105,212.08579609997105,212.08579609997105,212.08579609997105,212.1356166000478,212.1356166000478,212.1356166000478,212.1356166000478,212.1356166000478,212.1356166000478,212.1356166000478,212.1356166000478,212.1356166000478,right,0.5482991000171751,212.70306139998138,212.70306139998138,None,,15,001,2025-12-23_15h58.53.939,2025C_exp1_comp,2022.2.4,59.96124107973505,
22.7,315,1,1,1,43,151,66,212.70306139998138,212.70306139998138,213.20310889999382,213.27006210002583,213.32065670005977,213.32065670005977,213.32065670005977,213.32065670005977,213.37030710000545,213.37030710000545,213.37030710000545,213.37030710000545,213.37030710000545,213.37030710000545,213.37030710000545,213.37030710000545,213.37030710000545,right,0.45782750006765127,213.8540350999683,213.8540350999683,None,,15,001,2025-12-23_15h58.53.939,2025C_exp1_comp,2022.2.4,59.96124107973505,
39.2,45,1,1,1,44,152,61,213.8540350999683,213.8540350999683,214.35453100001905,214.42125959997065,214.4715549000539,214.4715549000539,214.4715549000539,214.4715549000539,214.5213333000429,214.5213333000429,214.5213333000429,214.5213333000429,214.5213333000429,214.5213333000429,214.5213333000429,214.5213333000429,214.5213333000429,right,0.5462094999384135,215.0885750000598,215.0885750000598,None,,15,001,2025-12-23_15h58.53.939,2025C_exp1_comp,2022.2.4,59.96124107973505,
12.1,45,1,-1,1,45,153,90,215.0885750000598,215.0885750000598,215.58934199996293,215.6559227000689,215.70622549997643,215.70622549997643,215.70622549997643,215.70622549997643,215.75576379999984,215.75576379999984,215.75576379999984,215.75576379999984,215.75576379999984,215.75576379999984,215.75576379999984,215.75576379999984,215.75576379999984,left,0.5836407000897452,216.35645720001776,216.35645720001776,None,,15,001,2025-12-23_15h58.53.939,2025C_exp1_comp,2022.2.4,59.96124107973505,
29.4,315,-1,0,1,46,154,14,216.35645720001776,216.35645720001776,216.85717620002106,216.92383730004076,216.97405630000867,216.97405630000867,216.97405630000867,216.97405630000867,217.02385620004497,217.02385620004497,217.02385620004497,217.02385620004497,217.02385620004497,217.02385620004497,217.02385620004497,217.02385620004497,217.02385620004497,right,0.6682714999187738,217.72441909997724,217.72441909997724,None,,15,001,2025-12-23_15h58.53.939,2025C_exp1_comp,2022.2.4,59.96124107973505,
19.6,45,-1,-1,1,47,155,74,217.72441909997724,217.72441909997724,218.22494300000835,218.29181419999804,218.34211760002654,218.34211760002654,218.34211760002654,218.34211760002654,218.39194070000667,218.39194070000667,218.39194070000667,218.39194070000667,218.39194070000667,218.39194070000667,218.39194070000667,218.39194070000667,218.39194070000667,right,0.4837108999490738,218.8922488000244,218.8922488000244,None,,15,001,2025-12-23_15h58.53.939,2025C_exp1_comp,2022.2.4,59.96124107973505,
19.6,315,-1,0,1,48,156,11,218.8922488000244,218.8922488000244,219.39271879999433,219.45928209996782,219.50962679996155,219.50962679996155,219.50962679996155,219.50962679996155,219.55975110002328,219.55975110002328,219.55975110002328,219.55975110002328,219.55975110002328,219.55975110002328,219.55975110002328,219.55975110002328,219.55975110002328,right,0.5964570000069216,220.1769903000677,220.1769903000677,None,,15,001,2025-12-23_15h58.53.939,2025C_exp1_comp,2022.2.4,59.96124107973505,
22.7,315,1,0,1,49,157,30,220.1769903000677,220.1769903000677,220.6775015000021,220.74423229997046,220.79447680001613,220.79447680001613,220.79447680001613,220.79447680001613,220.8441629000008,220.8441629000008,220.8441629000008,220.8441629000008,220.8441629000008,220.8441629000008,220.8441629000008,220.8441629000008,220.8441629000008,left,0.5440302999923006,221.41143290000036,221.41143290000036,None,,15,001,2025-12-23_15h58.53.939,2025C_exp1_comp,2022.2.4,59.96124107973505,
29.4,45,-1,0,1,50,158,5,221.41143290000036,221.41143290000036,221.91195590002462,221.9787586000748,222.0290929999901,222.0290929999901,222.0290929999901,222.0290929999901,222.07887830003165,222.07887830003165,222.07887830003165,222.07887830003165,222.07887830003165,222.07887830003165,222.07887830003165,222.07887830003165,222.07887830003165,right,0.6217399999732152,222.72953250003047,222.72953250003047,None,,15,001,2025-12-23_15h58.53.939,2025C_exp1_comp,2022.2.4,59.96124107973505,
42.7,45,1,1,1,51,159,62,222.72953250003047,222.72953250003047,223.23026109999046,223.29690980003215,223.34722280001733,223.34722280001733,223.34722280001733,223.34722280001733,223.39669269998558,223.39669269998558,223.39669269998558,223.39669269998558,223.39669269998558,223.39669269998558,223.39669269998558,223.39669269998558,223.39669269998558,right,0.4638927999185398,223.8808167000534,223.8808167000534,None,,15,001,2025-12-23_15h58.53.939,2025C_exp1_comp,2022.2.4,59.96124107973505,
35.3,45,-1,0,1,52,160,6,223.8808167000534,223.8808167000534,224.3812965999823,224.4480293999659,224.49821250000969,224.49821250000969,224.49821250000969,224.49821250000969,224.54803209996317,224.54803209996317,224.54803209996317,224.54803209996317,224.54803209996317,224.54803209996317,224.54803209996317,224.54803209996317,224.54803209996317,right,0.4723879999946803,225.04849940002896,225.04849940002896,None,,15,001,2025-12-23_15h58.53.939,2025C_exp1_comp,2022.2.4,59.96124107973505,
12.1,315,-1,1,1,53,161,45,225.04849940002896,225.04849940002896,225.54893659998197,225.61576259997673,225.6660521000158,225.6660521000158,225.6660521000158,225.6660521000158,225.71555840002839,225.71555840002839,225.71555840002839,225.71555840002839,225.71555840002839,225.71555840002839,225.71555840002839,225.71555840002839,225.71555840002839,right,0.4248767999233678,226.1662771999836,226.1662771999836,None,,15,001,2025-12-23_15h58.53.939,2025C_exp1_comp,2022.2.4,59.96124107973505,
15.7,45,-1,0,1,54,162,1,226.1662771999836,226.1662771999836,226.66674210003112,226.73354390007444,226.78381260007154,226.78381260007154,226.78381260007154,226.78381260007154,226.83364630001597,226.83364630001597,226.83364630001597,226.83364630001597,226.83364630001597,226.83364630001597,226.83364630001597,226.83364630001597,226.83364630001597,right,0.4668735000304878,227.3174603000516,227.3174603000516,None,,15,001,2025-12-23_15h58.53.939,2025C_exp1_comp,2022.2.4,59.96124107973505,
22.7,45,-1,0,1,55,163,3,227.3174603000516,227.3174603000516,227.81777119997423,227.8843434000155,227.93501839996316,227.93501839996316,227.93501839996316,227.93501839996316,227.98463520000223,227.98463520000223,227.98463520000223,227.98463520000223,227.98463520000223,227.98463520000223,227.98463520000223,227.98463520000223,227.98463520000223,right,0.43543730000965297,228.45187890005764,228.45187890005764,None,,15,001,2025-12-23_15h58.53.939,2025C_exp1_comp,2022.2.4,59.96124107973505,
22.7,45,-1,1,1,56,164,39,228.45187890005764,228.45187890005764,228.95258450007532,229.0192163999891,229.0693415000569,229.0693415000569,229.0693415000569,229.0693415000569,229.11925520002842,229.11925520002842,229.11925520002842,229.11925520002842,229.11925520002842,229.11925520002842,229.11925520002842,229.11925520002842,229.11925520002842,right,0.5323063000105321,229.66965860000346,229.66965860000346,None,,15,001,2025-12-23_15h58.53.939,2025C_exp1_comp,2022.2.4,59.96124107973505,
35.3,315,-1,-1,1,57,165,87,229.66965860000346,229.66965860000346,230.1702898000367,230.23694950004574,230.2872988000745,230.2872988000745,230.2872988000745,230.2872988000745,230.3371538000647,230.3371538000647,230.3371538000647,230.3371538000647,230.3371538000647,230.3371538000647,230.3371538000647,230.3371538000647,230.3371538000647,right,0.39531260007061064,230.75426010007504,230.75426010007504,None,,15,001,2025-12-23_15h58.53.939,2025C_exp1_comp,2022.2.4,59.96124107973505,
12.1,315,-1,0,1,58,166,9,230.75426010007504,230.75426010007504,231.2547822999768,231.3214902000036,231.37179480004124,231.37179480004124,231.37179480004124,231.37179480004124,231.42160940007307,231.42160940007307,231.42160940007307,231.42160940007307,231.42160940007307,231.42160940007307,231.42160940007307,231.42160940007307,231.42160940007307,right,0.40623080008663237,231.85550279996824,231.85550279996824,None,,15,001,2025-12-23_15h58.53.939,2025C_exp1_comp,2022.2.4,59.96124107973505,
15.7,315,1,-1,1,59,167,100,231.85550279996824,231.85550279996824,232.35581680003088,232.4225366000319,232.47281760000624,232.47281760000624,232.47281760000624,232.47281760000624,232.52250059996732,232.52250059996732,232.52250059996732,232.52250059996732,232.52250059996732,232.52250059996732,232.52250059996732,232.52250059996732,232.52250059996732,left,0.5941461999900639,233.14005370007362,233.14005370007362,None,,15,001,2025-12-23_15h58.53.939,2025C_exp1_comp,2022.2.4,59.96124107973505,
25.5,315,-1,0,1,60,168,13,233.14005370007362,233.14005370007362,233.64027640002314,233.7074305000715,233.7577172999736,233.7577172999736,233.7577172999736,233.7577172999736,233.807491100044,233.807491100044,233.807491100044,233.807491100044,233.807491100044,233.807491100044,233.807491100044,233.807491100044,233.807491100044,right,0.6362452999455854,234.47462350002024,234.47462350002024,None,,15,001,2025-12-23_15h58.53.939,2025C_exp1_comp,2022.2.4,59.96124107973505,
29.4,315,1,1,1,61,169,68,234.47462350002024,234.47462350002024,234.97511010000017,235.04183440003544,235.09212849999312,235.09212849999312,235.09212849999312,235.09212849999312,235.14175349997822,235.14175349997822,235.14175349997822,235.14175349997822,235.14175349997822,235.14175349997822,235.14175349997822,235.14175349997822,235.14175349997822,right,0.5257351999171078,235.6922082999954,235.6922082999954,None,,15,001,2025-12-23_15h58.53.939,2025C_exp1_comp,2022.2.4,59.96124107973505,
42.7,315,1,0,1,62,170,35,235.6922082999954,235.6922082999954,236.1927066000644,236.25974410003982,236.3099169000052,236.3099169000052,236.3099169000052,236.3099169000052,236.35983159998432,236.35983159998432,236.35983159998432,236.35983159998432,236.35983159998432,236.35983159998432,236.35983159998432,236.35983159998432,236.35983159998432,right,0.5715132000623271,236.96039170003496,236.96039170003496,None,,15,001,2025-12-23_15h58.53.939,2025C_exp1_comp,2022.2.4,59.96124107973505,
42.7,45,-1,1,1,63,171,44,236.96039170003496,236.96039170003496,237.46094789996278,237.527803300065,237.57807769998908,237.57807769998908,237.57807769998908,237.57807769998908,237.62780240003485,237.62780240003485,237.62780240003485,237.62780240003485,237.62780240003485,237.62780240003485,237.62780240003485,237.62780240003485,237.62780240003485,right,0.39270620001479983,238.04484560003038,238.04484560003038,None,,15,001,2025-12-23_15h58.53.939,2025C_exp1_comp,2022.2.4,59.96124107973505,
39.2,315,-1,-1,1,64,172,88,238.04484560003038,238.04484560003038,238.54546890000347,238.61230989999603,238.66262930002995,238.66262930002995,238.66262930002995,238.66262930002995,238.71241799998097,238.71241799998097,238.71241799998097,238.71241799998097,238.71241799998097,238.71241799998097,238.71241799998097,238.71241799998097,238.71241799998097,left,0.4431265000021085,239.17918670002837,239.17918670002837,None,,15,001,2025-12-23_15h58.53.939,2025C_exp1_comp,2022.2.4,59.96124107973505,
12.1,45,-1,0,1,65,173,0,239.17918670002837,239.17918670002837,239.67983430007007,239.74652140005492,239.79664850002155,239.79664850002155,239.79664850002155,239.79664850002155,239.84647860005498,239.84647860005498,239.84647860005498,239.84647860005498,239.84647860005498,239.84647860005498,239.84647860005498,239.84647860005498,239.84647860005498,right,0.5573426999617368,240.43072689999826,240.43072689999826,None,,15,001,2025-12-23_15h58.53.939,2025C_exp1_comp,2022.2.4,59.96124107973505,
15.7,315,-1,-1,1,66,174,82,240.43072689999826,240.43072689999826,240.93130339996424,240.9979922999628,241.04814920003992,241.04814920003992,241.04814920003992,241.04814920003992,241.09793160005938,241.09793160005938,241.09793160005938,241.09793160005938,241.09793160005938,241.09793160005938,241.09793160005938,241.09793160005938,241.09793160005938,right,0.3627246000105515,241.48154050006997,241.48154050006997,None,,15,001,2025-12-23_15h58.53.939,2025C_exp1_comp,2022.2.4,59.96124107973505,
15.7,315,1,1,1,67,175,64,241.48154050006997,241.48154050006997,241.98196390003432,242.04882919997908,242.09910650004167,242.09910650004167,242.09910650004167,242.09910650004167,242.14864330005366,242.14864330005366,242.14864330005366,242.14864330005366,242.14864330005366,242.14864330005366,242.14864330005366,242.14864330005366,242.14864330005366,right,0.6873102000681683,242.86660840001423,242.86660840001423,None,,15,001,2025-12-23_15h58.53.939,2025C_exp1_comp,2022.2.4,59.96124107973505,
19.6,45,1,1,1,68,176,56,242.86660840001423,242.86660840001423,243.36696879996452,243.4336859000614,243.4850945000071,243.4850945000071,243.4850945000071,243.4850945000071,243.5339030000614,243.5339030000614,243.5339030000614,243.5339030000614,243.5339030000614,243.5339030000614,243.5339030000614,243.5339030000614,243.5339030000614,left,0.4466723999939859,244.00071080005728,244.00071080005728,None,,15,001,2025-12-23_15h58.53.939,2025C_exp1_comp,2022.2.4,59.96124107973505,
35.3,45,-1,1,1,69,177,42,244.00071080005728,244.00071080005728,244.5011261999607,244.567925499985,244.61856540001463,244.61856540001463,244.61856540001463,244.61856540001463,244.66833340004086,244.66833340004086,244.66833340004086,244.66833340004086,244.66833340004086,244.66833340004086,244.66833340004086,244.66833340004086,244.66833340004086,left,0.6149663999676704,245.3017175999703,245.3017175999703,None,,15,001,2025-12-23_15h58.53.939,2025C_exp1_comp,2022.2.4,59.96124107973505,
22.7,45,1,-1,1,70,178,93,245.3017175999703,245.3017175999703,245.80263389996253,245.86907710006926,245.91958910005633,245.91958910005633,245.91958910005633,245.91958910005633,245.96930560003966,245.96930560003966,245.96930560003966,245.96930560003966,245.96930560003966,245.96930560003966,245.96930560003966,245.96930560003966,245.96930560003966,left,0.474147200002335,246.46974940004293,246.46974940004293,None,,15,001,2025-12-23_15h58.53.939,2025C_exp1_comp,2022.2.4,59.96124107973505,
29.4,45,1,-1,1,71,179,95,246.46974940004293,246.46974940004293,246.97017960005905,247.03683470003307,247.0871291999938,247.0871291999938,247.0871291999938,247.0871291999938,247.13694820005912,247.13694820005912,247.13694820005912,247.13694820005912,247.13694820005912,247.13694820005912,247.13694820005912,247.13694820005912,247.13694820005912,left,0.3313265999313444,247.48745839996263,247.48745839996263,None,,15,001,2025-12-23_15h58.53.939,2025C_exp1_comp,2022.2.4,59.96124107973505,
25.5,315,1,1,1,72,180,67,247.48745839996263,247.48745839996263,247.98799030005466,248.05457460007165,248.10514700005297,248.10514700005297,248.10514700005297,248.10514700005297,248.15485250006896,248.15485250006896,248.15485250006896,248.15485250006896,248.15485250006896,248.15485250006896,248.15485250006896,248.15485250006896,248.15485250006896,right,0.5526675999863073,248.73883190006018,248.73883190006018,None,,15,001,2025-12-23_15h58.53.939,2025C_exp1_comp,2022.2.4,59.96124107973505,
29.4,45,1,0,1,73,181,23,248.73883190006018,248.73883190006018,249.23942280001938,249.30615079996642,249.35638630005997,249.35638630005997,249.35638630005997,249.35638630005997,249.40611410001293,249.40611410001293,249.40611410001293,249.40611410001293,249.40611410001293,249.40611410001293,249.40611410001293,249.40611410001293,249.40611410001293,left,0.4143771999515593,249.8398898000596,249.8398898000596,None,,15,001,2025-12-23_15h58.53.939,2025C_exp1_comp,2022.2.4,59.96124107973505,
42.7,315,-1,0,1,74,182,17,249.8398898000596,249.8398898000596,250.34064179996494,250.40731529996265,250.45760480000172,250.45760480000172,250.45760480000172,250.45760480000172,250.50715159997344,250.50715159997344,250.50715159997344,250.50715159997344,250.50715159997344,250.50715159997344,250.50715159997344,250.50715159997344,250.50715159997344,left,0.4161755000241101,250.9409592000302,250.9409592000302,None,,15,001,2025-12-23_15h58.53.939,2025C_exp1_comp,2022.2.4,59.96124107973505,
25.5,45,1,0,1,75,183,22,250.9409592000302,250.9409592000302,251.44159629999194,251.50814980000723,251.5586170000024,251.5586170000024,251.5586170000024,251.5586170000024,251.60842940001749,251.60842940001749,251.60842940001749,251.60842940001749,251.60842940001749,251.60842940001749,251.60842940001749,251.60842940001749,251.60842940001749,left,0.49164769996423274,252.1256116000004,252.1256116000004,None,,15,001,2025-12-23_15h58.53.939,2025C_exp1_comp,2022.2.4,59.96124107973505,
25.5,45,-1,-1,1,76,184,76,252.1256116000004,252.1256116000004,252.6260895000305,252.69283970003016,252.7431259000441,252.7431259000441,252.7431259000441,252.7431259000441,252.7927975000348,252.7927975000348,252.7927975000348,252.7927975000348,252.7927975000348,252.7927975000348,252.7927975000348,252.7927975000348,252.7927975000348,left,0.5635148000437766,253.37677960004658,253.37677960004658,None,,15,001,2025-12-23_15h58.53.939,2025C_exp1_comp,2022.2.4,59.96124107973505,
19.6,315,1,1,1,77,185,65,253.37677960004658,253.37677960004658,253.8773901000386,253.94392250000965,253.9943774000276,253.9943774000276,253.9943774000276,253.9943774000276,254.04398299998138,254.04398299998138,254.04398299998138,254.04398299998138,254.04398299998138,254.04398299998138,254.04398299998138,254.04398299998138,254.04398299998138,left,0.5676054999930784,254.62797000003047,254.62797000003047,None,,15,001,2025-12-23_15h58.53.939,2025C_exp1_comp,2022.2.4,59.96124107973505,
39.2,315,1,1,1,78,186,70,254.62797000003047,254.62797000003047,255.1285518000368,255.19516260002274,255.24557829997502,255.24557829997502,255.24557829997502,255.24557829997502,255.2953946000198,255.2953946000198,255.2953946000198,255.2953946000198,255.2953946000198,255.2953946000198,255.2953946000198,255.2953946000198,255.2953946000198,right,0.5320906999986619,255.84596559999045,255.84596559999045,None,,15,001,2025-12-23_15h58.53.939,2025C_exp1_comp,2022.2.4,59.96124107973505,
39.2,45,1,0,1,79,187,25,255.84596559999045,255.84596559999045,256.3464354000753,256.413164800033,256.4634594999952,256.4634594999952,256.4634594999952,256.4634594999952,256.5132968999678,256.5132968999678,256.5132968999678,256.5132968999678,256.5132968999678,256.5132968999678,256.5132968999678,256.5132968999678,256.5132968999678,right,0.4905526000075042,257.03032080002595,257.03032080002595,None,,15,001,2025-12-23_15h58.53.939,2025C_exp1_comp,2022.2.4,59.96124107973505,
25.5,45,-1,1,1,80,188,40,257.03032080002595,257.03032080002595,257.53111970005557,257.59766750002746,257.6479787999997,257.6479787999997,257.6479787999997,257.6479787999997,257.6977102999808,257.6977102999808,257.6977102999808,257.6977102999808,257.6977102999808,257.6977102999808,257.6977102999808,257.6977102999808,257.6977102999808,right,0.4502766999648884,258.16494669998065,258.16494669998065,None,,15,001,2025-12-23_15h58.53.939,2025C_exp1_comp,2022.2.4,59.96124107973505,
42.7,45,-1,0,1,81,189,8,258.16494669998065,258.16494669998065,258.6654586000368,258.73218789999373,258.7823519000085,258.7823519000085,258.7823519000085,258.7823519000085,258.832271900028,258.832271900028,258.832271900028,258.832271900028,258.832271900028,258.832271900028,258.832271900028,258.832271900028,258.832271900028,right,0.49230169993825257,259.34947959997226,259.34947959997226,None,,15,001,2025-12-23_15h58.53.939,2025C_exp1_comp,2022.2.4,59.96124107973505,
15.7,315,1,0,1,82,190,28,259.34947959997226,259.34947959997226,259.8499333000509,259.91664579999633,259.9669542000629,259.9669542000629,259.9669542000629,259.9669542000629,260.0166889000684,260.0166889000684,260.0166889000684,260.0166889000684,260.0166889000684,260.0166889000684,260.0166889000684,260.0166889000684,260.0166889000684,left,0.4669526999350637,260.50040190003347,260.50040190003347,None,,15,001,2025-12-23_15h58.53.939,2025C_exp1_comp,2022.2.4,59.96124107973505,
39.2,315,1,-1,1,83,191,106,260.50040190003347,260.50040190003347,261.0011190000223,261.0680020999862,261.1182902000146,261.1182902000146,261.1182902000146,261.1182902000146,261.1676805000752,261.1676805000752,261.1676805000752,261.1676805000752,261.1676805000752,261.1676805000752,261.1676805000752,261.1676805000752,261.1676805000752,right,0.4684601000044495,261.6685137000168,261.6685137000168,None,,15,001,2025-12-23_15h58.53.939,2025C_exp1_comp,2022.2.4,59.96124107973505,
35.3,45,-1,-1,1,84,192,78,261.6685137000168,261.6685137000168,262.16900410002563,262.2354184000287,262.2859414999839,262.2859414999839,262.2859414999839,262.2859414999839,262.3356150999898,262.3356150999898,262.3356150999898,262.3356150999898,262.3356150999898,262.3356150999898,262.3356150999898,262.3356150999898,262.3356150999898,right,0.3966774999862537,262.75299800001085,262.75299800001085,None,,15,001,2025-12-23_15h58.53.939,2025C_exp1_comp,2022.2.4,59.96124107973505,
42.7,315,1,1,1,85,193,71,262.75299800001085,262.75299800001085,263.25323480006773,263.3202589000575,263.37038340000436,263.37038340000436,263.37038340000436,263.37038340000436,263.4201340000145,263.4201340000145,263.4201340000145,263.4201340000145,263.4201340000145,263.4201340000145,263.4201340000145,263.4201340000145,263.4201340000145,right,0.5201598000712693,263.970716400072,263.970716400072,None,,15,001,2025-12-23_15h58.53.939,2025C_exp1_comp,2022.2.4,59.96124107973505,
35.3,315,1,0,1,86,194,33,263.970716400072,263.970716400072,264.4712669000728,264.53797910001595,264.5882339000236,264.5882339000236,264.5882339000236,264.5882339000236,264.63811369996984,264.63811369996984,264.63811369996984,264.63811369996984,264.63811369996984,264.63811369996984,264.63811369996984,264.63811369996984,264.63811369996984,left,0.4378464000765234,265.1052408000687,265.1052408000687,None,,15,001,2025-12-23_15h58.53.939,2025C_exp1_comp,2022.2.4,59.96124107973505,
25.5,45,1,1,1,87,195,58,265.1052408000687,265.1052408000687,265.6055794999702,265.6723157999804,265.722711600014,265.722711600014,265.722711600014,265.722711600014,265.77251320006326,265.77251320006326,265.77251320006326,265.77251320006326,265.77251320006326,265.77251320006326,265.77251320006326,265.77251320006326,265.77251320006326,right,0.4708153000101447,266.2728674999671,266.2728674999671,None,,15,001,2025-12-23_15h58.53.939,2025C_exp1_comp,2022.2.4,59.96124107973505,
39.2,45,-1,0,1,88,196,7,266.2728674999671,266.2728674999671,266.7735619000159,266.84040119999554,266.8907355000265,266.8907355000265,266.8907355000265,266.8907355000265,266.94033350003883,266.94033350003883,266.94033350003883,266.94033350003883,266.94033350003883,266.94033350003883,266.94033350003883,266.94033350003883,266.94033350003883,left,0.5354129000334069,267.5076226000674,267.5076226000674,None,,15,001,2025-12-23_15h58.53.939,2025C_exp1_comp,2022.2.4,59.96124107973505,
19.6,315,-1,1,1,89,197,47,267.5076226000674,267.5076226000674,268.0082888000179,268.0746670999797,268.12510439998005,268.12510439998005,268.12510439998005,268.12510439998005,268.1749122000765,268.1749122000765,268.1749122000765,268.1749122000765,268.1749122000765,268.1749122000765,268.1749122000765,268.1749122000765,268.1749122000765,right,0.40436679997947067,268.608540300047,268.608540300047,None,,15,001,2025-12-23_15h58.53.939,2025C_exp1_comp,2022.2.4,59.96124107973505,
39.2,45,1,-1,1,90,198,97,268.608540300047,268.608540300047,269.10918030003086,269.17586139997,269.2260745000094,269.2260745000094,269.2260745000094,269.2260745000094,269.2759124999866,269.2759124999866,269.2759124999866,269.2759124999866,269.2759124999866,269.2759124999866,269.2759124999866,269.2759124999866,269.2759124999866,right,0.4874281999655068,269.7929080000613,269.7929080000613,None,,15,001,2025-12-23_15h58.53.939,2025C_exp1_comp,2022.2.4,59.96124107973505,
12.1,315,-1,-1,1,91,199,81,269.7929080000613,269.7929080000613,270.293706699973,270.36056419997476,270.41043889999855,270.41043889999855,270.41043889999855,270.41043889999855,270.4605469000526,270.4605469000526,270.4605469000526,270.4605469000526,270.4605469000526,270.4605469000526,270.4605469000526,270.4605469000526,270.4605469000526,right,0.49635170004330575,270.9777588000288,270.9777588000288,None,,15,001,2025-12-23_15h58.53.939,2025C_exp1_comp,2022.2.4,59.96124107973505,
29.4,45,-1,1,1,92,200,41,270.9777588000288,270.9777588000288,271.4783768999623,271.54466300003696,271.5953026000643,271.5953026000643,271.5953026000643,271.5953026000643,271.64510520000476,271.64510520000476,271.64510520000476,271.64510520000476,271.64510520000476,271.64510520000476,271.64510520000476,271.64510520000476,271.64510520000476,right,0.5501088999444619,272.2122739000479,272.2122739000479,None,,15,001,2025-12-23_15h58.53.939,2025C_exp1_comp,2022.2.4,59.96124107973505,
19.6,45,-1,0,1,93,201,2,272.2122739000479,272.2122739000479,272.71278130006976,272.7795055999886,272.829795800033,272.829795800033,272.829795800033,272.829795800033,272.87961070006713,272.87961070006713,272.87961070006713,272.87961070006713,272.87961070006713,272.87961070006713,272.87961070006713,272.87961070006713,272.87961070006713,right,0.451798600028269,273.36340450006537,273.36340450006537,None,,15,001,2025-12-23_15h58.53.939,2025C_exp1_comp,2022.2.4,59.96124107973505,
29.4,315,1,-1,1,94,202,104,273.36340450006537,273.36340450006537,273.86403040005825,273.93072820000816,273.9808542999672,273.9808542999672,273.9808542999672,273.9808542999672,274.0308017999632,274.0308017999632,274.0308017999632,274.0308017999632,274.0308017999632,274.0308017999632,274.0308017999632,274.0308017999632,274.0308017999632,right,0.37352919997647405,274.43109379999805,274.43109379999805,None,,15,001,2025-12-23_15h58.53.939,2025C_exp1_comp,2022.2.4,59.96124107973505,
39.2,45,-1,-1,1,95,203,79,274.43109379999805,274.43109379999805,274.93164930003695,274.9985771999927,275.0486194000114,275.0486194000114,275.0486194000114,275.0486194000114,275.0985391000286,275.0985391000286,275.0985391000286,275.0985391000286,275.0985391000286,275.0985391000286,275.0985391000286,275.0985391000286,275.0985391000286,right,0.5377395999385044,275.66573820007034,275.66573820007034,None,,15,001,2025-12-23_15h58.53.939,2025C_exp1_comp,2022.2.4,59.96124107973505,
42.7,45,1,0,1,96,204,26,275.66573820007034,275.66573820007034,276.1662490000017,276.2331887000473,276.28320760000497,276.28320760000497,276.28320760000497,276.28320760000497,276.333063500002,276.333063500002,276.333063500002,276.333063500002,276.333063500002,276.333063500002,276.333063500002,276.333063500002,276.333063500002,right,0.3667697000782937,276.71665049996227,276.71665049996227,None,,15,001,2025-12-23_15h58.53.939,2025C_exp1_comp,2022.2.4,59.96124107973505,
22.7,45,1,0,1,97,205,21,276.71665049996227,276.71665049996227,277.2171656000428,277.2838859000476,277.3343115000753,277.3343115000753,277.3343115000753,277.3343115000753,277.3839807000477,277.3839807000477,277.3839807000477,277.3839807000477,277.3839807000477,277.3839807000477,277.3839807000477,277.3839807000477,277.3839807000477,right,0.3725747000426054,277.78452980006114,277.78452980006114,None,,15,001,2025-12-23_15h58.53.939,2025C_exp1_comp,2022.2.4,59.96124107973505,
