contrast,ori,lefttarget,righttarget,postcue,precue,trials.thisRepN,trials.thisTrialN,trials.thisN,trials.thisIndex,fix1.started,fix2.started,precue_2.started,precue_2.stopped,left_grating.started,right_grating.started,noise_left.started,noise_right.started,fix1.stopped,fix2.stopped,left_grating.stopped,right_grating.stopped,noise_left.stopped,noise_right.stopped,key_resp.started,postcue_2.started,fix1_2.started,fix2_2.started,key_resp.keys,key_resp.rt,key_resp_2.started,break_text_2.started,key_resp_2.keys,key_resp_2.rt,participant,session,date,expName,psychopyVersion,frameRate,
29.4,45,1,1,-1,1,0,0,0,347,41.159519399981946,41.159519399981946,41.63771209993865,41.70443109993357,41.76351079996675,41.76351079996675,41.76351079996675,41.76351079996675,41.80491459998302,41.80491459998302,41.80491459998302,41.80491459998302,41.80491459998302,41.80491459998302,41.82160779996775,41.82160779996775,41.82160779996775,41.82160779996775,num_1,2.675039399997331,44.52408020000439,44.52408020000439,None,,16,001,2025-12-23_17h04.53.057,2025C_exp1_detect,2022.2.4,59.83624017087449,
39.2,45,0,0,-1,0,0,1,1,7,44.52408020000439,44.52408020000439,45.0247349999845,45.09144440002274,45.141484900028445,45.141484900028445,45.141484900028445,45.141484900028445,45.19151539995801,45.19151539995801,45.19151539995801,45.19151539995801,45.19151539995801,45.19151539995801,45.19151539995801,45.19151539995801,45.19151539995801,45.19151539995801,num_3,1.538088700035587,46.75966790004168,46.75966790004168,None,,16,001,2025-12-23_17h04.53.057,2025C_exp1_detect,2022.2.4,59.83624017087449,
12.1,315,1,1,-1,1,0,2,2,351,46.75966790004168,46.75966790004168,47.260336600011215,47.327048099949025,47.377080200007185,47.377080200007185,47.377080200007185,47.377080200007185,47.42723539995495,47.42723539995495,47.42723539995495,47.42723539995495,47.42723539995495,47.42723539995495,47.42723539995495,47.42723539995495,47.42723539995495,47.42723539995495,num_3,0.9267274000449106,48.37806220003404,48.37806220003404,None,,16,001,2025-12-23_17h04.53.057,2025C_exp1_detect,2022.2.4,59.83624017087449,
15.7,45,1,1,-1,0,0,3,3,55,48.37806220003404,48.37806220003404,48.87856710003689,48.945334199932404,48.99561730003916,48.99561730003916,48.99561730003916,48.99561730003916,49.04548510001041,49.04548510001041,49.04548510001041,49.04548510001041,49.04548510001041,49.04548510001041,49.04548510001041,49.04548510001041,49.04548510001041,49.04548510001041,num_1,0.8922274999786168,49.96298670000397,49.96298670000397,None,,16,001,2025-12-23_17h04.53.057,2025C_exp1_detect,2022.2.4,59.83624017087449,
15.7,45,0,1,-1,-1,0,4,4,181,49.96298670000397,49.96298670000397,50.463453399948776,50.53022349998355,50.58057510002982,50.58057510002982,50.58057510002982,50.58057510002982,50.63029490003828,50.63029490003828,50.63029490003828,50.63029490003828,50.63029490003828,50.63029490003828,50.63029490003828,50.63029490003828,50.63029490003828,50.63029490003828,num_1,0.8342629999388009,51.481236599967815,51.481236599967815,None,,16,001,2025-12-23_17h04.53.057,2025C_exp1_detect,2022.2.4,59.83624017087449,
39.2,315,1,1,1,-1,0,5,5,286,51.481236599967815,51.481236599967815,51.98167669994291,52.04844639997464,52.09896390000358,52.09896390000358,52.09896390000358,52.09896390000358,52.14847389992792,52.14847389992792,52.14847389992792,52.14847389992792,52.14847389992792,52.14847389992792,52.14847389992792,52.14847389992792,52.14847389992792,52.14847389992792,num_1,71.98052879993338,124.15348999993876,124.15348999993876,None,,16,001,2025-12-23_17h04.53.057,2025C_exp1_detect,2022.2.4,59.83624017087449,
22.7,45,1,1,1,0,0,6,6,129,124.15348999993876,124.15348999993876,124.65430389996618,124.72102459997404,124.77133090002462,124.77133090002462,124.77133090002462,124.77133090002462,124.82120100001339,124.82120100001339,124.82120100001339,124.82120100001339,124.82120100001339,124.82120100001339,124.82120100001339,124.82120100001339,124.82120100001339,124.82120100001339,num_1,0.8606354999355972,125.70527649996802,125.70527649996802,None,,16,001,2025-12-23_17h04.53.057,2025C_exp1_detect,2022.2.4,59.83624017087449,
15.7,315,0,1,1,1,0,7,7,406,125.70527649996802,125.70527649996802,126.20582809997723,126.2725250000367,126.3230035000015,126.3230035000015,126.3230035000015,126.3230035000015,126.37291349994484,126.37291349994484,126.37291349994484,126.37291349994484,126.37291349994484,126.37291349994484,126.37291349994484,126.37291349994484,126.37291349994484,126.37291349994484,num_3,1.5724616000661626,127.97400049993303,127.97400049993303,None,,16,001,2025-12-23_17h04.53.057,2025C_exp1_detect,2022.2.4,59.83624017087449,
19.6,45,1,1,1,-1,0,8,8,272,127.97400049993303,127.97400049993303,128.47474999993574,128.5414931999985,128.59179830003995,128.59179830003995,128.59179830003995,128.59179830003995,128.64150979998522,128.64150979998522,128.64150979998522,128.64150979998522,128.64150979998522,128.64150979998522,128.64150979998522,128.64150979998522,128.64150979998522,128.64150979998522,num_1,2.295715200016275,130.96031220001169,130.96031220001169,None,,16,001,2025-12-23_17h04.53.057,2025C_exp1_detect,2022.2.4,59.83624017087449,
12.1,45,0,1,-1,-1,0,9,9,180,130.96031220001169,130.96031220001169,131.46135350002442,131.52803619997576,131.57833699998446,131.57833699998446,131.57833699998446,131.57833699998446,131.62823549995665,131.62823549995665,131.62823549995665,131.62823549995665,131.62823549995665,131.62823549995665,131.62823549995665,131.62823549995665,131.62823549995665,131.62823549995665,num_1,5.740635400055908,137.40008019993547,137.40008019993547,None,,16,001,2025-12-23_17h04.53.057,2025C_exp1_detect,2022.2.4,59.83624017087449,
39.2,45,0,1,1,-1,0,10,10,259,137.40008019993547,137.40008019993547,137.90113849996123,137.96772509999573,138.01770159997977,138.01770159997977,138.01770159997977,138.01770159997977,138.06770949997008,138.06770949997008,138.06770949997008,138.06770949997008,138.06770949997008,138.06770949997008,138.06770949997008,138.06770949997008,138.06770949997008,138.06770949997008,num_3,3.357795500080101,141.454111799947,141.454111799947,None,,16,001,2025-12-23_17h04.53.057,2025C_exp1_detect,2022.2.4,59.83624017087449,
22.7,315,1,1,1,0,0,11,11,138,141.454111799947,141.454111799947,141.9548933999613,142.0216178999981,142.07188019994646,142.07188019994646,142.07188019994646,142.07188019994646,142.12152699998114,142.12152699998114,142.12152699998114,142.12152699998114,142.12152699998114,142.12152699998114,142.12152699998114,142.12152699998114,142.12152699998114,142.12152699998114,num_1,0.9678690999280661,143.10599199996796,143.10599199996796,None,,16,001,2025-12-23_17h04.53.057,2025C_exp1_detect,2022.2.4,59.83624017087449,
39.2,315,0,0,-1,-1,0,12,12,160,143.10599199996796,143.10599199996796,143.60641819995362,143.67337600002065,143.72368279995862,143.72368279995862,143.72368279995862,143.72368279995862,143.7734559000237,143.7734559000237,143.7734559000237,143.7734559000237,143.7734559000237,143.7734559000237,143.7734559000237,143.7734559000237,143.7734559000237,143.7734559000237,num_3,0.9551464000251144,144.75741830002517,144.75741830002517,None,,16,001,2025-12-23_17h04.53.057,2025C_exp1_detect,2022.2.4,59.83624017087449,
15.7,45,0,0,1,-1,0,13,13,217,144.75741830002517,144.75741830002517,145.25795829994604,145.3248978999909,145.37512690003496,145.37512690003496,145.37512690003496,145.37512690003496,145.4250981999794,145.4250981999794,145.4250981999794,145.4250981999794,145.4250981999794,145.4250981999794,145.4250981999794,145.4250981999794,145.4250981999794,145.4250981999794,num_3,1.6729501000372693,147.12655939999968,147.12655939999968,None,,16,001,2025-12-23_17h04.53.057,2025C_exp1_detect,2022.2.4,59.83624017087449,
42.7,45,1,1,1,1,0,14,14,422,147.12655939999968,147.12655939999968,147.62727960001212,147.6939797999803,147.74432699999306,147.74432699999306,147.74432699999306,147.74432699999306,147.7941271000309,147.7941271000309,147.7941271000309,147.7941271000309,147.7941271000309,147.7941271000309,147.7941271000309,147.7941271000309,147.7941271000309,147.7941271000309,num_1,6.094804299995303,153.9166287999833,153.9166287999833,None,,16,001,2025-12-23_17h04.53.057,2025C_exp1_detect,2022.2.4,59.83624017087449,
39.2,45,0,1,-1,0,0,15,15,43,153.9166287999833,153.9166287999833,154.41720789996907,154.48406309995335,154.53439059993252,154.53439059993252,154.53439059993252,154.53439059993252,154.58417809999082,154.58417809999082,154.58417809999082,154.58417809999082,154.58417809999082,154.58417809999082,154.58417809999082,154.58417809999082,154.58417809999082,154.58417809999082,num_1,5.680535899940878,160.28976059996057,160.28976059996057,None,,16,001,2025-12-23_17h04.53.057,2025C_exp1_detect,2022.2.4,59.83624017087449,
35.3,45,1,0,1,-1,0,16,16,240,160.28976059996057,160.28976059996057,160.79009140003473,160.8567861999618,160.90712210000493,160.90712210000493,160.90712210000493,160.90712210000493,160.9569813000271,160.9569813000271,160.9569813000271,160.9569813000271,160.9569813000271,160.9569813000271,160.9569813000271,160.9569813000271,160.9569813000271,160.9569813000271,num_1,1.2837709999876097,162.25824340002146,162.25824340002146,None,,16,001,2025-12-23_17h04.53.057,2025C_exp1_detect,2022.2.4,59.83624017087449,
39.2,315,0,1,1,0,0,17,17,124,162.25824340002146,162.25824340002146,162.75869509996846,162.82545989996288,162.87599450000562,162.87599450000562,162.87599450000562,162.87599450000562,162.92569099995308,162.92569099995308,162.92569099995308,162.92569099995308,162.92569099995308,162.92569099995308,162.92569099995308,162.92569099995308,162.92569099995308,162.92569099995308,num_1,0.8755390000296757,163.82645589997992,163.82645589997992,None,,16,001,2025-12-23_17h04.53.057,2025C_exp1_detect,2022.2.4,59.83624017087449,
19.6,315,0,0,-1,-1,0,18,18,155,163.82645589997992,163.82645589997992,164.32693690003362,164.39382280001882,164.44399980001617,164.44399980001617,164.44399980001617,164.44399980001617,164.49379430001136,164.49379430001136,164.49379430001136,164.49379430001136,164.49379430001136,164.49379430001136,164.49379430001136,164.49379430001136,164.49379430001136,164.49379430001136,num_1,1.6744810999371111,166.19553070003167,166.19553070003167,None,,16,001,2025-12-23_17h04.53.057,2025C_exp1_detect,2022.2.4,59.83624017087449,
35.3,45,1,0,1,1,0,19,19,384,166.19553070003167,166.19553070003167,166.6961049999809,166.76300569996238,166.81319849996362,166.81319849996362,166.81319849996362,166.81319849996362,166.86305359995458,166.86305359995458,166.86305359995458,166.86305359995458,166.86305359995458,166.86305359995458,166.86305359995458,166.86305359995458,166.86305359995458,166.86305359995458,num_1,1.0815606999676675,167.96407049999107,167.96407049999107,None,,16,001,2025-12-23_17h04.53.057,2025C_exp1_detect,2022.2.4,59.83624017087449,
22.7,45,0,1,-1,-1,0,20,20,183,167.96407049999107,167.96407049999107,168.4647735999897,168.53136389993597,168.58175220002886,168.58175220002886,168.58175220002886,168.58175220002886,168.63139039999805,168.63139039999805,168.63139039999805,168.63139039999805,168.63139039999805,168.63139039999805,168.63139039999805,168.63139039999805,168.63139039999805,168.63139039999805,num_1,2.162004999932833,170.81683000002522,170.81683000002522,None,,16,001,2025-12-23_17h04.53.057,2025C_exp1_detect,2022.2.4,59.83624017087449,
29.4,315,0,1,1,1,0,21,21,410,170.81683000002522,170.81683000002522,171.3176017999649,171.384307899978,171.4345142999664,171.4345142999664,171.4345142999664,171.4345142999664,171.48447259992827,171.48447259992827,171.48447259992827,171.48447259992827,171.48447259992827,171.48447259992827,171.48447259992827,171.48447259992827,171.48447259992827,171.48447259992827,num_1,1.4602936001028866,172.96919490001164,172.96919490001164,None,,16,001,2025-12-23_17h04.53.057,2025C_exp1_detect,2022.2.4,59.83624017087449,
25.5,45,1,0,1,0,0,22,22,94,172.96919490001164,172.96919490001164,173.46982040000148,173.53624849999323,173.58674429997336,173.58674429997336,173.58674429997336,173.58674429997336,173.63660820003133,173.63660820003133,173.63660820003133,173.63660820003133,173.63660820003133,173.63660820003133,173.63660820003133,173.63660820003133,173.63660820003133,173.63660820003133,num_1,4.883941599982791,178.54116759996396,178.54116759996396,None,,16,001,2025-12-23_17h04.53.057,2025C_exp1_detect,2022.2.4,59.83624017087449,
25.5,315,1,0,-1,-1,0,23,23,175,178.54116759996396,178.54116759996396,179.0419327999698,179.10842870001215,179.1586836000206,179.1586836000206,179.1586836000206,179.1586836000206,179.20869629993103,179.20869629993103,179.20869629993103,179.20869629993103,179.20869629993103,179.20869629993103,179.20869629993103,179.20869629993103,179.20869629993103,179.20869629993103,num_1,1.2639487999258563,180.49347949994262,180.49347949994262,None,,16,001,2025-12-23_17h04.53.057,2025C_exp1_detect,2022.2.4,59.83624017087449,
15.7,315,1,1,-1,1,0,24,24,352,180.49347949994262,180.49347949994262,180.99389699997846,181.06059459992684,181.11088609998114,181.11088609998114,181.11088609998114,181.11088609998114,181.16064429993276,181.16064429993276,181.16064429993276,181.16064429993276,181.16064429993276,181.16064429993276,181.16064429993276,181.16064429993276,181.16064429993276,181.16064429993276,num_3,2.5039922000141814,183.6966073999647,183.6966073999647,None,,16,001,2025-12-23_17h04.53.057,2025C_exp1_detect,2022.2.4,59.83624017087449,
29.4,45,0,1,1,-1,0,25,25,257,183.6966073999647,183.6966073999647,184.19696269999258,184.2637983999448,184.31414529995527,184.31414529995527,184.31414529995527,184.31414529995527,184.3640154999448,184.3640154999448,184.3640154999448,184.3640154999448,184.3640154999448,184.3640154999448,184.3640154999448,184.3640154999448,184.3640154999448,184.3640154999448,num_1,2.132570600020699,186.51580179994926,186.51580179994926,None,,16,001,2025-12-23_17h04.53.057,2025C_exp1_detect,2022.2.4,59.83624017087449,
15.7,315,0,0,-1,-1,0,26,26,154,186.51580179994926,186.51580179994926,187.01644509995822,187.08331849996466,187.13351970002986,187.13351970002986,187.13351970002986,187.13351970002986,187.18347069993615,187.18347069993615,187.18347069993615,187.18347069993615,187.18347069993615,187.18347069993615,187.18347069993615,187.18347069993615,187.18347069993615,187.18347069993615,num_1,101.67380099999718,288.8847706000088,288.8847706000088,None,,16,001,2025-12-23_17h04.53.057,2025C_exp1_detect,2022.2.4,59.83624017087449,
39.2,45,1,1,-1,-1,0,27,27,205,288.8847706000088,288.8847706000088,289.38546319992747,289.4523181000259,289.50266350002494,289.50266350002494,289.50266350002494,289.50266350002494,289.55251820001286,289.55251820001286,289.55251820001286,289.55251820001286,289.55251820001286,289.55251820001286,289.55251820001286,289.55251820001286,289.55251820001286,289.55251820001286,num_3,2.3442901999223977,291.9210841000313,291.9210841000313,None,,16,001,2025-12-23_17h04.53.057,2025C_exp1_detect,2022.2.4,59.83624017087449,
12.1,45,1,0,1,0,0,28,28,90,291.9210841000313,291.9210841000313,292.4218694999581,292.48851599998306,292.53891589993145,292.53891589993145,292.53891589993145,292.53891589993145,292.58862339996267,292.58862339996267,292.58862339996267,292.58862339996267,292.58862339996267,292.58862339996267,292.58862339996267,292.58862339996267,292.58862339996267,292.58862339996267,num_3,1.9409924000501633,294.5571185000008,294.5571185000008,None,,16,001,2025-12-23_17h04.53.057,2025C_exp1_detect,2022.2.4,59.83624017087449,
25.5,45,0,1,-1,-1,0,29,29,184,294.5571185000008,294.5571185000008,295.0578741999343,295.12458850000985,295.17477699997835,295.17477699997835,295.17477699997835,295.17477699997835,295.22476779995486,295.22476779995486,295.22476779995486,295.22476779995486,295.22476779995486,295.22476779995486,295.22476779995486,295.22476779995486,295.22476779995486,295.22476779995486,num_3,1.2397714999970049,296.4922649000073,296.4922649000073,None,,16,001,2025-12-23_17h04.53.057,2025C_exp1_detect,2022.2.4,59.83624017087449,
35.3,315,1,1,-1,0,0,30,30,69,296.4922649000073,296.4922649000073,296.9930873999838,297.0598223999841,297.11011459992733,297.11011459992733,297.11011459992733,297.11011459992733,297.15986399992835,297.15986399992835,297.15986399992835,297.15986399992835,297.15986399992835,297.15986399992835,297.15986399992835,297.15986399992835,297.15986399992835,297.15986399992835,num_3,0.8485413999296725,298.02723080001306,298.02723080001306,None,,16,001,2025-12-23_17h04.53.057,2025C_exp1_detect,2022.2.4,59.83624017087449,
42.7,315,1,0,-1,1,0,31,31,323,298.02723080001306,298.02723080001306,298.5279484000057,298.59483239997644,298.64501600002404,298.64501600002404,298.64501600002404,298.64501600002404,298.69500159996096,298.69500159996096,298.69500159996096,298.69500159996096,298.69500159996096,298.69500159996096,298.69500159996096,298.69500159996096,298.69500159996096,298.69500159996096,num_1,1.0266210000263527,299.7458791999379,299.7458791999379,None,,16,001,2025-12-23_17h04.53.057,2025C_exp1_detect,2022.2.4,59.83624017087449,
25.5,315,0,0,-1,1,0,32,32,301,299.7458791999379,299.7458791999379,300.24631019996013,300.31310739996843,300.3633456999669,300.3633456999669,300.3633456999669,300.3633456999669,300.413197799935,300.413197799935,300.413197799935,300.413197799935,300.413197799935,300.413197799935,300.413197799935,300.413197799935,300.413197799935,300.413197799935,num_1,1.5234339999733493,301.96451369998977,301.96451369998977,None,,16,001,2025-12-23_17h04.53.057,2025C_exp1_detect,2022.2.4,59.83624017087449,
42.7,45,0,0,-1,-1,0,33,33,152,301.96451369998977,301.96451369998977,302.46536209993064,302.53195720002986,302.5821600999916,302.5821600999916,302.5821600999916,302.5821600999916,302.63215469999705,302.63215469999705,302.63215469999705,302.63215469999705,302.63215469999705,302.63215469999705,302.63215469999705,302.63215469999705,302.63215469999705,302.63215469999705,num_3,4.792280900059268,307.4533255000133,307.4533255000133,None,,16,001,2025-12-23_17h04.53.057,2025C_exp1_detect,2022.2.4,59.83624017087449,
25.5,315,1,0,1,0,0,34,34,103,307.4533255000133,307.4533255000133,307.9538380999584,308.02075699996203,308.07077390002087,308.07077390002087,308.07077390002087,308.07077390002087,308.1210170999402,308.1210170999402,308.1210170999402,308.1210170999402,308.1210170999402,308.1210170999402,308.1210170999402,308.1210170999402,308.1210170999402,308.1210170999402,num_3,1.5039446000009775,309.65552799997386,309.65552799997386,None,,16,001,2025-12-23_17h04.53.057,2025C_exp1_detect,2022.2.4,59.83624017087449,
42.7,45,0,0,1,-1,0,35,35,224,309.65552799997386,309.65552799997386,310.15629670000635,310.222998799989,310.27326689998154,310.27326689998154,310.27326689998154,310.27326689998154,310.3231746000238,310.3231746000238,310.3231746000238,310.3231746000238,310.3231746000238,310.3231746000238,310.3231746000238,310.3231746000238,310.3231746000238,310.3231746000238,num_3,2.133636899990961,312.47496839996893,312.47496839996893,None,,16,001,2025-12-23_17h04.53.057,2025C_exp1_detect,2022.2.4,59.83624017087449,
22.7,45,0,1,-1,1,0,36,36,327,312.47496839996893,312.47496839996893,312.9757789999712,313.0423506000079,313.0927598000271,313.0927598000271,313.0927598000271,313.0927598000271,313.14265329996124,313.14265329996124,313.14265329996124,313.14265329996124,313.14265329996124,313.14265329996124,313.14265329996124,313.14265329996124,313.14265329996124,313.14265329996124,num_3,0.8980084999930114,314.0598872000119,314.0598872000119,None,,16,001,2025-12-23_17h04.53.057,2025C_exp1_detect,2022.2.4,59.83624017087449,
19.6,45,1,1,1,0,0,37,37,128,314.0598872000119,314.0598872000119,314.5606298999628,314.62734469992574,314.6775031000143,314.6775031000143,314.6775031000143,314.6775031000143,314.72754220000934,314.72754220000934,314.72754220000934,314.72754220000934,314.72754220000934,314.72754220000934,314.72754220000934,314.72754220000934,314.72754220000934,314.72754220000934,num_3,0.817157999961637,315.56146500003524,315.56146500003524,None,,16,001,2025-12-23_17h04.53.057,2025C_exp1_detect,2022.2.4,59.83624017087449,
35.3,45,1,1,-1,-1,0,38,38,204,315.56146500003524,315.56146500003524,316.06221090001054,316.12895759998355,316.17910449998453,316.17910449998453,316.17910449998453,316.17910449998453,316.2287613999797,316.2287613999797,316.2287613999797,316.2287613999797,316.2287613999797,316.2287613999797,316.2287613999797,316.2287613999797,316.2287613999797,316.2287613999797,num_1,0.7160606000106782,316.96288969996385,316.96288969996385,None,,16,001,2025-12-23_17h04.53.057,2025C_exp1_detect,2022.2.4,59.83624017087449,
22.7,315,0,1,-1,1,0,39,39,336,316.96288969996385,316.96288969996385,317.46354319993407,317.53026229992975,317.58056149992626,317.58056149992626,317.58056149992626,317.58056149992626,317.630421299953,317.630421299953,317.630421299953,317.630421299953,317.630421299953,317.630421299953,317.630421299953,317.630421299953,317.630421299953,317.630421299953,num_3,1.5059905999805778,319.16882909997366,319.16882909997366,None,,16,001,2025-12-23_17h04.53.057,2025C_exp1_detect,2022.2.4,59.83624017087449,
19.6,315,1,1,-1,0,0,40,40,65,319.16882909997366,319.16882909997366,319.6657736999914,319.73233189992607,319.78270520002116,319.78270520002116,319.78270520002116,319.78270520002116,319.83257059997413,319.83257059997413,319.83257059997413,319.83257059997413,319.83257059997413,319.83257059997413,319.84935849998146,319.84935849998146,319.84935849998146,319.84935849998146,num_3,0.6470532999373972,320.5165822999552,320.5165822999552,None,,16,001,2025-12-23_17h04.53.057,2025C_exp1_detect,2022.2.4,59.83624017087449,
39.2,315,1,0,-1,-1,0,41,41,178,320.5165822999552,320.5165822999552,321.0171227999963,321.08372470003087,321.13408580003306,321.13408580003306,321.13408580003306,321.13408580003306,321.18404379999265,321.18404379999265,321.18404379999265,321.18404379999265,321.18404379999265,321.18404379999265,321.18404379999265,321.18404379999265,321.18404379999265,321.18404379999265,num_3,0.8489228000398725,322.05117699992843,322.05117699992843,None,,16,001,2025-12-23_17h04.53.057,2025C_exp1_detect,2022.2.4,59.83624017087449,
35.3,45,0,1,1,0,0,42,42,114,322.05117699992843,322.05117699992843,322.55170920002274,322.61869469995145,322.66897220001556,322.66897220001556,322.66897220001556,322.66897220001556,322.71888409997337,322.71888409997337,322.71888409997337,322.71888409997337,322.71888409997337,322.71888409997337,322.71888409997337,322.71888409997337,322.71888409997337,322.71888409997337,num_3,1.4735485999844968,324.2199842999689,324.2199842999689,None,,16,001,2025-12-23_17h04.53.057,2025C_exp1_detect,2022.2.4,59.83624017087449,
12.1,315,0,1,1,1,0,43,43,405,324.2199842999689,324.2199842999689,324.7208160000155,324.787521500024,324.8379694999894,324.8379694999894,324.8379694999894,324.8379694999894,324.8876876999857,324.8876876999857,324.8876876999857,324.8876876999857,324.8876876999857,324.8876876999857,324.8876876999857,324.8876876999857,324.8876876999857,324.8876876999857,num_1,1.0412028999999166,325.95525450003333,325.95525450003333,None,,16,001,2025-12-23_17h04.53.057,2025C_exp1_detect,2022.2.4,59.83624017087449,
35.3,45,0,0,1,0,0,44,44,78,325.95525450003333,325.95525450003333,326.45604509999976,326.52265910001006,326.57279300002847,326.57279300002847,326.57279300002847,326.57279300002847,326.62277969997376,326.62277969997376,326.62277969997376,326.62277969997376,326.62277969997376,326.62277969997376,326.62277969997376,326.62277969997376,326.62277969997376,326.62277969997376,num_1,1.8421906000003219,328.4909748999635,328.4909748999635,None,,16,001,2025-12-23_17h04.53.057,2025C_exp1_detect,2022.2.4,59.83624017087449,
19.6,315,1,1,1,-1,0,45,45,281,328.4909748999635,328.4909748999635,328.9917251999723,329.0584133999655,329.1089359000325,329.1089359000325,329.1089359000325,329.1089359000325,329.1586628999794,329.1586628999794,329.1586628999794,329.1586628999794,329.1586628999794,329.1586628999794,329.1586628999794,329.1586628999794,329.1586628999794,329.1586628999794,num_3,1.4503147000214085,330.62643679999746,330.62643679999746,None,,16,001,2025-12-23_17h04.53.057,2025C_exp1_detect,2022.2.4,59.83624017087449,
22.7,45,0,0,1,-1,0,46,46,219,330.62643679999746,330.62643679999746,331.1272089999402,331.1939226000104,331.2442306999583,331.2442306999583,331.2442306999583,331.2442306999583,331.29406490002293,331.29406490002293,331.29406490002293,331.29406490002293,331.29406490002293,331.29406490002293,331.29406490002293,331.29406490002293,331.29406490002293,331.29406490002293,num_1,1.0829355999594554,332.3949115999276,332.3949115999276,None,,16,001,2025-12-23_17h04.53.057,2025C_exp1_detect,2022.2.4,59.83624017087449,
19.6,315,1,0,1,-1,0,47,47,245,332.3949115999276,332.3949115999276,332.89533059997484,332.96231640002225,333.01292559993453,333.01292559993453,333.01292559993453,333.01292559993453,333.06276599993,333.06276599993,333.06276599993,333.06276599993,333.06276599993,333.06276599993,333.06276599993,333.06276599993,333.06276599993,333.06276599993,num_3,1.6344127000775188,334.7139506000094,334.7139506000094,None,,16,001,2025-12-23_17h04.53.057,2025C_exp1_detect,2022.2.4,59.83624017087449,
42.7,315,1,1,1,1,0,48,48,431,334.7139506000094,334.7139506000094,335.2146048999857,335.28131709992886,335.3315735999495,335.3315735999495,335.3315735999495,335.3315735999495,335.3815102999797,335.3815102999797,335.3815102999797,335.3815102999797,335.3815102999797,335.3815102999797,335.3815102999797,335.3815102999797,335.3815102999797,335.3815102999797,num_1,2.3550477999961004,337.7669098000042,337.7669098000042,None,,16,001,2025-12-23_17h04.53.057,2025C_exp1_detect,2022.2.4,59.83624017087449,
22.7,45,1,1,-1,1,0,49,49,345,337.7669098000042,337.7669098000042,338.2673859000206,338.33438060001936,338.3847886000294,338.3847886000294,338.3847886000294,338.3847886000294,338.4347518000286,338.4347518000286,338.4347518000286,338.4347518000286,338.4347518000286,338.4347518000286,338.4347518000286,338.4347518000286,338.4347518000286,338.4347518000286,num_3,1.0939907999709249,339.5520594000118,339.5520594000118,None,,16,001,2025-12-23_17h04.53.057,2025C_exp1_detect,2022.2.4,59.83624017087449,
22.7,315,1,0,-1,0,0,50,50,30,339.5520594000118,339.5520594000118,340.05275060003623,340.1194050000049,340.1697883999441,340.1697883999441,340.1697883999441,340.1697883999441,340.2197232999606,340.2197232999606,340.2197232999606,340.2197232999606,340.2197232999606,340.2197232999606,340.2197232999606,340.2197232999606,340.2197232999606,340.2197232999606,num_1,1.8616847000084817,342.10461299994495,342.10461299994495,None,,16,001,2025-12-23_17h04.53.057,2025C_exp1_detect,2022.2.4,59.83624017087449,
19.6,45,1,0,1,1,0,51,51,380,342.10461299994495,342.10461299994495,342.6052041000221,342.6720710999798,342.72227889997885,342.72227889997885,342.72227889997885,342.72227889997885,342.77222239994444,342.77222239994444,342.77222239994444,342.77222239994444,342.77222239994444,342.77222239994444,342.77222239994444,342.77222239994444,342.77222239994444,342.77222239994444,num_3,1.1721415999345481,343.97313609998673,343.97313609998673,None,,16,001,2025-12-23_17h04.53.057,2025C_exp1_detect,2022.2.4,59.83624017087449,
35.3,315,0,1,-1,0,0,52,52,51,343.97313609998673,343.97313609998673,344.4738878000062,344.54049779998604,344.59078019997105,344.59078019997105,344.59078019997105,344.59078019997105,344.6407851999393,344.6407851999393,344.6407851999393,344.6407851999393,344.6407851999393,344.6407851999393,344.6407851999393,344.6407851999393,344.6407851999393,344.6407851999393,num_3,1.4802822000347078,346.14190789998975,346.14190789998975,None,,16,001,2025-12-23_17h04.53.057,2025C_exp1_detect,2022.2.4,59.83624017087449,
42.7,315,0,1,-1,0,0,53,53,53,346.14190789998975,346.14190789998975,346.64269879995845,346.7093931999989,346.7596363000339,346.7596363000339,346.7596363000339,346.7596363000339,346.80944560002536,346.80944560002536,346.80944560002536,346.80944560002536,346.80944560002536,346.80944560002536,346.80944560002536,346.80944560002536,346.80944560002536,346.80944560002536,num_3,0.8311660001054406,347.6601171999937,347.6601171999937,None,,16,001,2025-12-23_17h04.53.057,2025C_exp1_detect,2022.2.4,59.83624017087449,
35.3,45,0,0,-1,0,0,54,54,6,347.6601171999937,347.6601171999937,348.1608483999735,348.2275781999342,348.2778960999567,348.2778960999567,348.2778960999567,348.2778960999567,348.32762580004055,348.32762580004055,348.32762580004055,348.32762580004055,348.32762580004055,348.32762580004055,348.32762580004055,348.32762580004055,348.32762580004055,348.32762580004055,num_3,0.6337514999322593,348.97819829999935,348.97819829999935,None,,16,001,2025-12-23_17h04.53.057,2025C_exp1_detect,2022.2.4,59.83624017087449,
42.7,45,0,0,1,0,0,55,55,80,348.97819829999935,348.97819829999935,349.4788818999659,349.54559080000035,349.5957554000197,349.5957554000197,349.5957554000197,349.5957554000197,349.64573390001897,349.64573390001897,349.64573390001897,349.64573390001897,349.64573390001897,349.64573390001897,349.64573390001897,349.64573390001897,349.64573390001897,349.64573390001897,num_1,0.8192823999561369,350.49641729996074,350.49641729996074,None,,16,001,2025-12-23_17h04.53.057,2025C_exp1_detect,2022.2.4,59.83624017087449,
22.7,45,1,0,-1,0,0,56,56,21,350.49641729996074,350.49641729996074,350.9970536000328,351.06380080000963,351.1139989999356,351.1139989999356,351.1139989999356,351.1139989999356,351.1639390999917,351.1639390999917,351.1639390999917,351.1639390999917,351.1639390999917,351.1639390999917,351.1639390999917,351.1639390999917,351.1639390999917,351.1639390999917,num_3,2.340801200014539,353.5326353999553,353.5326353999553,None,,16,001,2025-12-23_17h04.53.057,2025C_exp1_detect,2022.2.4,59.83624017087449,
15.7,315,0,1,1,-1,0,57,57,262,353.5326353999553,353.5326353999553,354.0334404000314,354.0998368000146,354.1502994999755,354.1502994999755,354.1502994999755,354.1502994999755,354.2002713000402,354.2002713000402,354.2002713000402,354.2002713000402,354.2002713000402,354.2002713000402,354.2002713000402,354.2002713000402,354.2002713000402,354.2002713000402,num_1,0.9842525999993086,355.2010211999295,355.2010211999295,None,,16,001,2025-12-23_17h04.53.057,2025C_exp1_detect,2022.2.4,59.83624017087449,
25.5,315,0,0,-1,-1,0,58,58,157,355.2010211999295,355.2010211999295,355.70175440004095,355.76858419994824,355.8188476000214,355.8188476000214,355.8188476000214,355.8188476000214,355.8683172999881,355.8683172999881,355.8683172999881,355.8683172999881,355.8683172999881,355.8683172999881,355.8683172999881,355.8683172999881,355.8683172999881,355.8683172999881,num_3,0.8440061999717727,356.7359841000289,356.7359841000289,None,,16,001,2025-12-23_17h04.53.057,2025C_exp1_detect,2022.2.4,59.83624017087449,
35.3,315,1,1,-1,-1,0,59,59,213,356.7359841000289,356.7359841000289,357.2366004999494,357.3033071999671,357.3536335999379,357.3536335999379,357.3536335999379,357.3536335999379,357.4034777999623,357.4034777999623,357.4034777999623,357.4034777999623,357.4034777999623,357.4034777999623,357.4034777999623,357.4034777999623,357.4034777999623,357.4034777999623,num_3,1.5573025998892263,358.9881745999446,358.9881745999446,None,,16,001,2025-12-23_17h04.53.057,2025C_exp1_detect,2022.2.4,59.83624017087449,
25.5,315,1,0,-1,1,0,60,60,319,358.9881745999446,358.9881745999446,359.4888601000421,359.5556207000045,359.6058775000274,359.6058775000274,359.6058775000274,359.6058775000274,359.65576110000256,359.65576110000256,359.65576110000256,359.65576110000256,359.65576110000256,359.65576110000256,359.65576110000256,359.65576110000256,359.65576110000256,359.65576110000256,num_1,1.0006389999762177,360.6731537999585,360.6731537999585,None,,16,001,2025-12-23_17h04.53.057,2025C_exp1_detect,2022.2.4,59.83624017087449,
22.7,315,0,0,-1,-1,0,61,61,156,360.6731537999585,360.6731537999585,361.17392480000854,361.2406620000256,361.29093190003186,361.29093190003186,361.29093190003186,361.29093190003186,361.3406583999749,361.3406583999749,361.3406583999749,361.3406583999749,361.3406583999749,361.3406583999749,361.3406583999749,361.3406583999749,361.3406583999749,361.3406583999749,num_1,1.4447011000011116,362.8085448000347,362.8085448000347,None,,16,001,2025-12-23_17h04.53.057,2025C_exp1_detect,2022.2.4,59.83624017087449,
35.3,315,0,1,-1,1,0,62,62,339,362.8085448000347,362.8085448000347,363.30935450003017,363.37607260001823,363.42634509992786,363.42634509992786,363.42634509992786,363.42634509992786,363.4762566999998,363.4762566999998,363.4762566999998,363.4762566999998,363.4762566999998,363.4762566999998,363.4762566999998,363.4762566999998,363.4762566999998,363.4762566999998,num_3,0.7641502000624314,364.2600645000348,364.2600645000348,None,,16,001,2025-12-23_17h04.53.057,2025C_exp1_detect,2022.2.4,59.83624017087449,
29.4,45,1,1,1,1,0,63,63,419,364.2600645000348,364.2600645000348,364.7607819000259,364.8274864000268,364.87772430002224,364.87772430002224,364.87772430002224,364.87772430002224,364.92768219998106,364.92768219998106,364.92768219998106,364.92768219998106,364.92768219998106,364.92768219998106,364.92768219998106,364.92768219998106,364.92768219998106,364.92768219998106,num_3,1.2332866000942886,366.1786566999508,366.1786566999508,None,,16,001,2025-12-23_17h04.53.057,2025C_exp1_detect,2022.2.4,59.83624017087449,
15.7,45,0,1,1,0,0,64,64,109,366.1786566999508,366.1786566999508,366.67948709998745,366.74621679994743,366.79648809996434,366.79648809996434,366.79648809996434,366.79648809996434,366.8462818999542,366.8462818999542,366.8462818999542,366.8462818999542,366.8462818999542,366.8462818999542,366.8462818999542,366.8462818999542,366.8462818999542,366.8462818999542,num_1,0.8103912000078708,367.68009619996883,367.68009619996883,None,,16,001,2025-12-23_17h04.53.057,2025C_exp1_detect,2022.2.4,59.83624017087449,
15.7,315,1,0,1,0,0,65,65,100,367.68009619996883,367.68009619996883,368.18087000004016,368.24759209994227,368.29777319997083,368.29777319997083,368.29777319997083,368.29777319997083,368.3474575999426,368.3474575999426,368.3474575999426,368.3474575999426,368.3474575999426,368.3474575999426,368.3474575999426,368.3474575999426,368.3474575999426,368.3474575999426,num_3,1.3413020999869332,369.7157858000137,369.7157858000137,None,,16,001,2025-12-23_17h04.53.057,2025C_exp1_detect,2022.2.4,59.83624017087449,
35.3,45,1,0,-1,1,0,66,66,312,369.7157858000137,369.7157858000137,370.21626040001865,370.2829506000271,370.3332467,370.3332467,370.3332467,370.3332467,370.3829637999879,370.3829637999879,370.3829637999879,370.3829637999879,370.3829637999879,370.3829637999879,370.3829637999879,370.3829637999879,370.3829637999879,370.3829637999879,num_3,2.4093594000441954,372.81887830002233,372.81887830002233,None,,16,001,2025-12-23_17h04.53.057,2025C_exp1_detect,2022.2.4,59.83624017087449,
22.7,315,0,1,-1,0,0,67,67,48,372.81887830002233,372.81887830002233,373.31945629999973,373.38617820001673,373.43654379993677,373.43654379993677,373.43654379993677,373.43654379993677,373.48635799996555,373.48635799996555,373.48635799996555,373.48635799996555,373.48635799996555,373.48635799996555,373.48635799996555,373.48635799996555,373.48635799996555,373.48635799996555,num_3,0.9465754000702873,374.4535200999817,374.4535200999817,None,,16,001,2025-12-23_17h04.53.057,2025C_exp1_detect,2022.2.4,59.83624017087449,
12.1,45,1,1,1,0,0,68,68,126,374.4535200999817,374.4535200999817,374.9543756999774,375.02096390002407,375.0712449999992,375.0712449999992,375.0712449999992,375.0712449999992,375.1211065000389,375.1211065000389,375.1211065000389,375.1211065000389,375.1211065000389,375.1211065000389,375.1211065000389,375.1211065000389,375.1211065000389,375.1211065000389,num_3,0.7120524001074955,375.8549975999631,375.8549975999631,None,,16,001,2025-12-23_17h04.53.057,2025C_exp1_detect,2022.2.4,59.83624017087449,
39.2,45,1,0,1,1,0,69,69,385,375.8549975999631,375.8549975999631,376.3557265000418,376.422618099954,376.472745200037,376.472745200037,376.472745200037,376.472745200037,376.52265449997503,376.52265449997503,376.52265449997503,376.52265449997503,376.52265449997503,376.52265449997503,376.52265449997503,376.52265449997503,376.52265449997503,376.52265449997503,num_3,0.6214528999989852,377.17300499998964,377.17300499998964,None,,16,001,2025-12-23_17h04.53.057,2025C_exp1_detect,2022.2.4,59.83624017087449,
35.3,315,0,1,-1,-1,0,70,70,195,377.17300499998964,377.17300499998964,377.6735861999914,377.7403020999627,377.79071169998497,377.79071169998497,377.79071169998497,377.79071169998497,377.8404665000271,377.8404665000271,377.8404665000271,377.8404665000271,377.8404665000271,377.8404665000271,377.8404665000271,377.8404665000271,377.8404665000271,377.8404665000271,num_3,0.552475499920547,378.42437419993803,378.42437419993803,None,,16,001,2025-12-23_17h04.53.057,2025C_exp1_detect,2022.2.4,59.83624017087449,
35.3,45,1,1,1,-1,0,71,71,276,378.42437419993803,378.42437419993803,378.92463190003764,378.9913450999884,379.04162939998787,379.04162939998787,379.04162939998787,379.04162939998787,379.09151209995616,379.09151209995616,379.09151209995616,379.09151209995616,379.09151209995616,379.09151209995616,379.09151209995616,379.09151209995616,379.09151209995616,379.09151209995616,num_3,0.8690557999070734,379.99266520002857,379.99266520002857,None,,16,001,2025-12-23_17h04.53.057,2025C_exp1_detect,2022.2.4,59.83624017087449,
15.7,45,0,0,-1,0,0,72,72,1,379.99266520002857,379.99266520002857,380.49310790002346,380.55988780001644,380.6102179000154,380.6102179000154,380.6102179000154,380.6102179000154,380.6599887999473,380.6599887999473,380.6599887999473,380.6599887999473,380.6599887999473,380.6599887999473,380.6599887999473,380.6599887999473,380.6599887999473,380.6599887999473,num_3,0.9095772999571636,381.5939716999419,381.5939716999419,None,,16,001,2025-12-23_17h04.53.057,2025C_exp1_detect,2022.2.4,59.83624017087449,
42.7,315,0,1,-1,1,0,73,73,341,381.5939716999419,381.5939716999419,382.0947830999503,382.16147479997016,382.2118083999958,382.2118083999958,382.2118083999958,382.2118083999958,382.26166129997,382.26166129997,382.26166129997,382.26166129997,382.26166129997,382.26166129997,382.26166129997,382.26166129997,382.26166129997,382.26166129997,num_3,0.683455100050196,382.96234379999805,382.96234379999805,None,,16,001,2025-12-23_17h04.53.057,2025C_exp1_detect,2022.2.4,59.83624017087449,
29.4,45,0,0,1,-1,0,74,74,221,382.96234379999805,382.96234379999805,383.4630991999293,383.529510900029,383.5797769000055,383.5797769000055,383.5797769000055,383.5797769000055,383.62969319999684,383.62969319999684,383.62969319999684,383.62969319999684,383.62969319999684,383.62969319999684,383.62969319999684,383.62969319999684,383.62969319999684,383.62969319999684,num_1,0.7869291000533849,384.44682279997505,384.44682279997505,None,,16,001,2025-12-23_17h04.53.057,2025C_exp1_detect,2022.2.4,59.83624017087449,
22.7,45,1,0,1,1,0,75,75,381,384.44682279997505,384.44682279997505,384.94764369993936,385.0140731999418,385.06461959995795,385.06461959995795,385.06461959995795,385.06461959995795,385.1144972000038,385.1144972000038,385.1144972000038,385.1144972000038,385.1144972000038,385.1144972000038,385.1144972000038,385.1144972000038,385.1144972000038,385.1144972000038,num_3,1.038370699970983,386.1819698000327,386.1819698000327,None,,16,001,2025-12-23_17h04.53.057,2025C_exp1_detect,2022.2.4,59.83624017087449,
42.7,315,1,0,1,0,0,76,76,107,386.1819698000327,386.1819698000327,386.68286039994564,386.7494305999717,386.79963749996386,386.79963749996386,386.79963749996386,386.79963749996386,386.8494902999373,386.8494902999373,386.8494902999373,386.8494902999373,386.8494902999373,386.8494902999373,386.8494902999373,386.8494902999373,386.8494902999373,386.8494902999373,num_3,1.4319738999474794,388.3006660999963,388.3006660999963,None,,16,001,2025-12-23_17h04.53.057,2025C_exp1_detect,2022.2.4,59.83624017087449,
19.6,315,0,1,-1,1,0,77,77,335,388.3006660999963,388.3006660999963,388.8014603999909,388.8684136000229,388.9187042999547,388.9187042999547,388.9187042999547,388.9187042999547,388.9685421999311,388.9685421999311,388.9685421999311,388.9685421999311,388.9685421999311,388.9685421999311,388.9685421999311,388.9685421999311,388.9685421999311,388.9685421999311,num_3,1.3609934999840334,390.3527831999818,390.3527831999818,None,,16,001,2025-12-23_17h04.53.057,2025C_exp1_detect,2022.2.4,59.83624017087449,
42.7,315,1,0,1,-1,0,78,78,251,390.3527831999818,390.3527831999818,390.85330229997635,390.9202556000091,390.97054340003524,390.97054340003524,390.97054340003524,390.97054340003524,391.0202748000156,391.0202748000156,391.0202748000156,391.0202748000156,391.0202748000156,391.0202748000156,391.0202748000156,391.0202748000156,391.0202748000156,391.0202748000156,num_3,0.6286090000066906,391.6707817999413,391.6707817999413,None,,16,001,2025-12-23_17h04.53.057,2025C_exp1_detect,2022.2.4,59.83624017087449,
39.2,315,0,0,1,1,0,79,79,376,391.6707817999413,391.6707817999413,392.1716347000329,392.2382990999613,392.28865749994293,392.28865749994293,392.28865749994293,392.28865749994293,392.3385497999843,392.3385497999843,392.3385497999843,392.3385497999843,392.3385497999843,392.3385497999843,392.3385497999843,392.3385497999843,392.3385497999843,392.3385497999843,num_1,0.8057038999395445,393.1722694999771,393.1722694999771,None,,16,001,2025-12-23_17h04.53.057,2025C_exp1_detect,2022.2.4,59.83624017087449,
29.4,45,0,0,1,0,0,80,80,77,393.1722694999771,393.1722694999771,393.67289089993574,393.7397101999959,393.78993890003767,393.78993890003767,393.78993890003767,393.78993890003767,393.8399020000361,393.8399020000361,393.8399020000361,393.8399020000361,393.8399020000361,393.8399020000361,393.8399020000361,393.8399020000361,393.8399020000361,393.8399020000361,num_3,1.6893746999558061,395.5579915000126,395.5579915000126,None,,16,001,2025-12-23_17h04.53.057,2025C_exp1_detect,2022.2.4,59.83624017087449,
22.7,45,1,0,1,0,0,81,81,93,395.5579915000126,395.5579915000126,396.05874340003356,396.12543330003973,396.1758645999944,396.1758645999944,396.1758645999944,396.1758645999944,396.22561600001063,396.22561600001063,396.22561600001063,396.22561600001063,396.22561600001063,396.22561600001063,396.22561600001063,396.22561600001063,396.22561600001063,396.22561600001063,num_3,0.9595888999756426,397.21006359998137,397.21006359998137,None,,16,001,2025-12-23_17h04.53.057,2025C_exp1_detect,2022.2.4,59.83624017087449,
22.7,315,0,1,1,0,0,82,82,120,397.21006359998137,397.21006359998137,397.71025200001895,397.77710720000323,397.8273855999578,397.8273855999578,397.8273855999578,397.8273855999578,397.87726610002574,397.87726610002574,397.87726610002574,397.87726610002574,397.87726610002574,397.87726610002574,397.87726610002574,397.87726610002574,397.87726610002574,397.87726610002574,num_1,0.8276044999947771,398.72776909999084,398.72776909999084,None,,16,001,2025-12-23_17h04.53.057,2025C_exp1_detect,2022.2.4,59.83624017087449,
15.7,45,0,1,-1,0,0,83,83,37,398.72776909999084,398.72776909999084,399.2287939999951,399.29540629999246,399.3458167000208,399.3458167000208,399.3458167000208,399.3458167000208,399.395580100012,399.395580100012,399.395580100012,399.395580100012,399.395580100012,399.395580100012,399.395580100012,399.395580100012,399.395580100012,399.395580100012,num_3,1.6697194000007585,401.09682670002803,401.09682670002803,None,,16,001,2025-12-23_17h04.53.057,2025C_exp1_detect,2022.2.4,59.83624017087449,
25.5,45,1,1,-1,0,0,84,84,58,401.09682670002803,401.09682670002803,401.59754019998945,401.66430639999453,401.71436400001403,401.71436400001403,401.71436400001403,401.71436400001403,401.7642717999406,401.7642717999406,401.7642717999406,401.7642717999406,401.7642717999406,401.7642717999406,401.7642717999406,401.7642717999406,401.7642717999406,401.7642717999406,num_3,1.1327337000984699,402.91530270001385,402.91530270001385,None,,16,001,2025-12-23_17h04.53.057,2025C_exp1_detect,2022.2.4,59.83624017087449,
22.7,45,0,0,-1,1,0,85,85,291,402.91530270001385,402.91530270001385,403.4160890999483,403.48281990003306,403.53312359994743,403.53312359994743,403.53312359994743,403.53312359994743,403.58290559996385,403.58290559996385,403.58290559996385,403.58290559996385,403.58290559996385,403.58290559996385,403.58290559996385,403.58290559996385,403.58290559996385,403.58290559996385,num_1,2.7056318999966606,406.3186566999648,406.3186566999648,None,,16,001,2025-12-23_17h04.53.057,2025C_exp1_detect,2022.2.4,59.83624017087449,
12.1,315,0,1,-1,0,0,86,86,45,406.3186566999648,406.3186566999648,406.8193224000279,406.8861701999558,406.93645769997966,406.93645769997966,406.93645769997966,406.93645769997966,406.98636400001124,406.98636400001124,406.98636400001124,406.98636400001124,406.98636400001124,406.98636400001124,406.98636400001124,406.98636400001124,406.98636400001124,406.98636400001124,num_3,0.822723799967207,407.83694329997525,407.83694329997525,None,,16,001,2025-12-23_17h04.53.057,2025C_exp1_detect,2022.2.4,59.83624017087449,
25.5,315,0,1,1,-1,0,87,87,265,407.83694329997525,407.83694329997525,408.33758469996974,408.4042601999827,408.4546093000099,408.4546093000099,408.4546093000099,408.4546093000099,408.5044474999886,408.5044474999886,408.5044474999886,408.5044474999886,408.5044474999886,408.5044474999886,408.5044474999886,408.5044474999886,408.5044474999886,408.5044474999886,num_1,0.7437665000325069,409.2716979000252,409.2716979000252,None,,16,001,2025-12-23_17h04.53.057,2025C_exp1_detect,2022.2.4,59.83624017087449,
22.7,45,1,0,-1,1,0,88,88,309,409.2716979000252,409.2716979000252,409.7723443999421,409.83901360002346,409.8894530000398,409.8894530000398,409.8894530000398,409.8894530000398,409.9393209000118,409.9393209000118,409.9393209000118,409.9393209000118,409.9393209000118,409.9393209000118,409.9393209000118,409.9393209000118,409.9393209000118,409.9393209000118,num_1,2.3660322999348864,412.32473480002955,412.32473480002955,None,,16,001,2025-12-23_17h04.53.057,2025C_exp1_detect,2022.2.4,59.83624017087449,
22.7,315,1,0,1,-1,0,89,89,246,412.32473480002955,412.32473480002955,412.82550939999055,412.8921019999543,412.9423761999933,412.9423761999933,412.9423761999933,412.9423761999933,412.9924206000287,412.9924206000287,412.9924206000287,412.9924206000287,412.9924206000287,412.9924206000287,412.9924206000287,412.9924206000287,412.9924206000287,412.9924206000287,num_3,0.7931134999962524,413.8095055000158,413.8095055000158,None,,16,001,2025-12-23_17h04.53.057,2025C_exp1_detect,2022.2.4,59.83624017087449,
39.2,45,1,1,-1,1,0,90,90,349,413.8095055000158,413.8095055000158,414.3103204999352,414.3770783999935,414.4273581999587,414.4273581999587,414.4273581999587,414.4273581999587,414.47719000000507,414.47719000000507,414.47719000000507,414.47719000000507,414.47719000000507,414.47719000000507,414.47719000000507,414.47719000000507,414.47719000000507,414.47719000000507,num_3,1.387534899986349,415.89496209996287,415.89496209996287,None,,16,001,2025-12-23_17h04.53.057,2025C_exp1_detect,2022.2.4,59.83624017087449,
22.7,45,0,1,1,1,0,91,91,399,415.89496209996287,415.89496209996287,416.3955675000325,416.4624139999505,416.51262439996935,416.51262439996935,416.51262439996935,416.51262439996935,416.5626063999953,416.5626063999953,416.5626063999953,416.5626063999953,416.5626063999953,416.5626063999953,416.5626063999953,416.5626063999953,416.5626063999953,416.5626063999953,num_3,1.4790203999727964,418.0638480000198,418.0638480000198,None,,16,001,2025-12-23_17h04.53.057,2025C_exp1_detect,2022.2.4,59.83624017087449,
15.7,45,0,1,1,1,0,92,92,397,418.0638480000198,418.0638480000198,418.5647226999281,418.6314753999468,418.6814972999273,418.6814972999273,418.6814972999273,418.6814972999273,418.7316240000073,418.7316240000073,418.7316240000073,418.7316240000073,418.7316240000073,418.7316240000073,418.7316240000073,418.7316240000073,418.7316240000073,418.7316240000073,num_1,2.0531413999851793,420.81663999997545,420.81663999997545,None,,16,001,2025-12-23_17h04.53.057,2025C_exp1_detect,2022.2.4,59.83624017087449,
42.7,315,0,0,-1,0,0,93,93,17,420.81663999997545,420.81663999997545,421.3174803999718,421.38407309993636,421.43418139999267,421.43418139999267,421.43418139999267,421.43418139999267,421.48414620000403,421.48414620000403,421.48414620000403,421.48414620000403,421.48414620000403,421.48414620000403,421.48414620000403,421.48414620000403,421.48414620000403,421.48414620000403,num_3,2.3161291000433266,423.81956460000947,423.81956460000947,None,,16,001,2025-12-23_17h04.53.057,2025C_exp1_detect,2022.2.4,59.83624017087449,
15.7,45,1,0,-1,1,0,94,94,307,423.81956460000947,423.81956460000947,424.3204220000189,424.387160699931,424.4374023999553,424.4374023999553,424.4374023999553,424.4374023999553,424.48712980002165,424.48712980002165,424.48712980002165,424.48712980002165,424.48712980002165,424.48712980002165,424.48712980002165,424.48712980002165,424.48712980002165,424.48712980002165,num_1,2.9612429999979213,427.47319429996423,427.47319429996423,None,,16,001,2025-12-23_17h04.53.057,2025C_exp1_detect,2022.2.4,59.83624017087449,
12.1,45,0,0,1,-1,0,95,95,216,427.47319429996423,427.47319429996423,427.9739791000029,428.0406753999414,428.0908341000322,428.0908341000322,428.0908341000322,428.0908341000322,428.14076540002134,428.14076540002134,428.14076540002134,428.14076540002134,428.14076540002134,428.14076540002134,428.14076540002134,428.14076540002134,428.14076540002134,428.14076540002134,num_1,0.9715292999753729,429.1414392000297,429.1414392000297,None,,16,001,2025-12-23_17h04.53.057,2025C_exp1_detect,2022.2.4,59.83624017087449,
35.3,45,0,1,-1,1,0,96,96,330,429.1414392000297,429.1414392000297,429.6422935000155,429.7090373999672,429.7592093999265,429.7592093999265,429.7592093999265,429.7592093999265,429.8091678000055,429.8091678000055,429.8091678000055,429.8091678000055,429.8091678000055,429.8091678000055,429.8091678000055,429.8091678000055,429.8091678000055,429.8091678000055,num_3,0.7993720000376925,430.62658559996635,430.62658559996635,None,,16,001,2025-12-23_17h04.53.057,2025C_exp1_detect,2022.2.4,59.83624017087449,
29.4,315,1,1,-1,1,0,97,97,356,430.62658559996635,430.62658559996635,431.12696000002325,431.1938066999428,431.24410969996825,431.24410969996825,431.24410969996825,431.24410969996825,431.2939668999752,431.2939668999752,431.2939668999752,431.2939668999752,431.2939668999752,431.2939668999752,431.2939668999752,431.2939668999752,431.2939668999752,431.2939668999752,num_3,2.747361700050533,434.0632603999693,434.0632603999693,None,,16,001,2025-12-23_17h04.53.057,2025C_exp1_detect,2022.2.4,59.83624017087449,
25.5,315,1,1,-1,-1,0,98,98,211,434.0632603999693,434.0632603999693,434.5638659000397,434.6307115999516,434.6809688999783,434.6809688999783,434.6809688999783,434.6809688999783,434.7307717000367,434.7307717000367,434.7307717000367,434.7307717000367,434.7307717000367,434.7307717000367,434.7307717000367,434.7307717000367,434.7307717000367,434.7307717000367,num_3,0.8693059000652283,435.6315819999436,435.6315819999436,None,,16,001,2025-12-23_17h04.53.057,2025C_exp1_detect,2022.2.4,59.83624017087449,
12.1,315,1,0,1,0,0,99,99,99,435.6315819999436,435.6315819999436,436.1321982999798,436.1988930000225,436.2492518000072,436.2492518000072,436.2492518000072,436.2492518000072,436.2988999999361,436.2988999999361,436.2988999999361,436.2988999999361,436.2988999999361,436.2988999999361,436.2988999999361,436.2988999999361,436.2988999999361,436.2988999999361,num_3,0.9260080000385642,437.24966019997373,437.24966019997373,None,,16,001,2025-12-23_17h04.53.057,2025C_exp1_detect,2022.2.4,59.83624017087449,
25.5,45,1,0,1,-1,0,100,100,238,437.24966019997373,437.24966019997373,437.7503571000416,437.8170698999893,437.86731959995814,437.86731959995814,437.86731959995814,437.86731959995814,437.9171136999503,437.9171136999503,437.9171136999503,437.9171136999503,437.9171136999503,437.9171136999503,437.9171136999503,437.9171136999503,437.9171136999503,437.9171136999503,num_3,0.6115009000059217,438.5510148999747,438.5510148999747,None,,16,001,2025-12-23_17h04.53.057,2025C_exp1_detect,2022.2.4,59.83624017087449,
12.1,315,0,0,1,-1,0,101,101,225,438.5510148999747,438.5510148999747,439.0513445000397,439.1182525999611,439.16838229994755,439.16838229994755,439.16838229994755,439.16838229994755,439.21839799999725,439.21839799999725,439.21839799999725,439.21839799999725,439.21839799999725,439.21839799999725,439.21839799999725,439.21839799999725,439.21839799999725,439.21839799999725,num_3,0.7978079000022262,440.03596949996427,440.03596949996427,None,,16,001,2025-12-23_17h04.53.057,2025C_exp1_detect,2022.2.4,59.83624017087449,
29.4,315,0,0,1,0,0,102,102,86,440.03596949996427,440.03596949996427,440.53646500001196,440.60321199998725,440.6535084999632,440.6535084999632,440.6535084999632,440.6535084999632,440.7034508000361,440.7034508000361,440.7034508000361,440.7034508000361,440.7034508000361,440.7034508000361,440.7034508000361,440.7034508000361,440.7034508000361,440.7034508000361,num_1,1.0813836000161245,441.8044290000107,441.8044290000107,None,,16,001,2025-12-23_17h04.53.057,2025C_exp1_detect,2022.2.4,59.83624017087449,
29.4,315,0,1,1,0,0,103,103,122,441.8044290000107,441.8044290000107,442.3049256999511,442.3715955000371,442.4219242000254,442.4219242000254,442.4219242000254,442.4219242000254,442.47178859997075,442.47178859997075,442.47178859997075,442.47178859997075,442.47178859997075,442.47178859997075,442.47178859997075,442.47178859997075,442.47178859997075,442.47178859997075,num_1,0.6002296000951901,443.0889988000272,443.0889988000272,None,,16,001,2025-12-23_17h04.53.057,2025C_exp1_detect,2022.2.4,59.83624017087449,
12.1,45,1,1,1,-1,0,104,104,270,443.0889988000272,443.0889988000272,443.5897720999783,443.65649700001813,443.70670640002936,443.70670640002936,443.70670640002936,443.70670640002936,443.75656759995036,443.75656759995036,443.75656759995036,443.75656759995036,443.75656759995036,443.75656759995036,443.75656759995036,443.75656759995036,443.75656759995036,443.75656759995036,num_3,0.6919086000416428,444.4739125999622,444.4739125999622,None,,16,001,2025-12-23_17h04.53.057,2025C_exp1_detect,2022.2.4,59.83624017087449,
42.7,45,0,1,-1,1,0,105,105,332,444.4739125999622,444.4739125999622,444.9742980999872,445.041042799945,445.0912974999519,445.0912974999519,445.0912974999519,445.0912974999519,445.1410392000107,445.1410392000107,445.1410392000107,445.1410392000107,445.1410392000107,445.1410392000107,445.1410392000107,445.1410392000107,445.1410392000107,445.1410392000107,num_1,0.5240318999858573,445.6915024999762,445.6915024999762,None,,16,001,2025-12-23_17h04.53.057,2025C_exp1_detect,2022.2.4,59.83624017087449,
12.1,45,1,0,1,-1,0,106,106,234,445.6915024999762,445.6915024999762,446.19212250004057,446.25882139999885,446.30914190004114,446.30914190004114,446.30914190004114,446.30914190004114,446.35886459995527,446.35886459995527,446.35886459995527,446.35886459995527,446.35886459995527,446.35886459995527,446.35886459995527,446.35886459995527,446.35886459995527,446.35886459995527,num_3,1.1778849000111222,447.5598353999667,447.5598353999667,None,,16,001,2025-12-23_17h04.53.057,2025C_exp1_detect,2022.2.4,59.83624017087449,
22.7,45,1,0,1,-1,0,107,107,237,447.5598353999667,447.5598353999667,448.0606414999347,448.1273596000392,448.1776407000143,448.1776407000143,448.1776407000143,448.1776407000143,448.227568399976,448.227568399976,448.227568399976,448.227568399976,448.227568399976,448.227568399976,448.227568399976,448.227568399976,448.227568399976,448.227568399976,num_3,0.541018900112249,448.79469180002343,448.79469180002343,space,5.782358599943109,16,001,2025-12-23_17h04.53.057,2025C_exp1_detect,2022.2.4,59.83624017087449,
12.1,315,1,0,1,-1,0,108,108,243,454.60049770004116,454.60049770004116,455.1010435000062,455.16774790000636,455.21805879997555,455.21805879997555,455.21805879997555,455.21805879997555,455.26793059997726,455.26793059997726,455.26793059997726,455.26793059997726,455.26793059997726,455.26793059997726,455.26793059997726,455.26793059997726,455.26793059997726,455.26793059997726,num_1,2.021362900035456,457.31987440004013,457.31987440004013,None,,16,001,2025-12-23_17h04.53.057,2025C_exp1_detect,2022.2.4,59.83624017087449,
15.7,315,1,0,-1,1,0,109,109,316,457.31987440004013,457.31987440004013,457.8205130000133,457.88716669997666,457.93732110003475,457.93732110003475,457.93732110003475,457.93732110003475,457.9869938000338,457.9869938000338,457.9869938000338,457.9869938000338,457.9869938000338,457.9869938000338,457.9869938000338,457.9869938000338,457.9869938000338,457.9869938000338,num_3,1.0065215000649914,459.0215283000143,459.0215283000143,None,,16,001,2025-12-23_17h04.53.057,2025C_exp1_detect,2022.2.4,59.83624017087449,
42.7,315,0,1,1,1,0,110,110,413,459.0215283000143,459.0215283000143,459.52220120001584,459.58902680000756,459.63936020003166,459.63936020003166,459.63936020003166,459.63936020003166,459.6891042999923,459.6891042999923,459.6891042999923,459.6891042999923,459.6891042999923,459.6891042999923,459.6891042999923,459.6891042999923,459.6891042999923,459.6891042999923,num_1,1.2562912000576034,460.9735767999664,460.9735767999664,None,,16,001,2025-12-23_17h04.53.057,2025C_exp1_detect,2022.2.4,59.83624017087449,
39.2,45,1,0,1,-1,0,111,111,241,460.9735767999664,460.9735767999664,461.47398729994893,461.54081259993836,461.5912240999751,461.5912240999751,461.5912240999751,461.5912240999751,461.64112339995336,461.64112339995336,461.64112339995336,461.64112339995336,461.64112339995336,461.64112339995336,461.64112339995336,461.64112339995336,461.64112339995336,461.64112339995336,num_3,1.1123403999954462,462.77518350002356,462.77518350002356,None,,16,001,2025-12-23_17h04.53.057,2025C_exp1_detect,2022.2.4,59.83624017087449,
42.7,45,1,1,1,0,0,112,112,134,462.77518350002356,462.77518350002356,463.27584579994436,463.34261479997076,463.3930299000349,463.3930299000349,463.3930299000349,463.3930299000349,463.44288480002433,463.44288480002433,463.44288480002433,463.44288480002433,463.44288480002433,463.44288480002433,463.44288480002433,463.44288480002433,463.44288480002433,463.44288480002433,num_3,2.605431200005114,466.0786595999962,466.0786595999962,None,,16,001,2025-12-23_17h04.53.057,2025C_exp1_detect,2022.2.4,59.83624017087449,
22.7,45,1,1,-1,-1,0,113,113,201,466.0786595999962,466.0786595999962,466.5793066000333,466.6460401000222,466.6963460999541,466.6963460999541,466.6963460999541,466.6963460999541,466.74625450000167,466.74625450000167,466.74625450000167,466.74625450000167,466.74625450000167,466.74625450000167,466.74625450000167,466.74625450000167,466.74625450000167,466.74625450000167,num_1,1.3898739999858662,468.16396219993476,468.16396219993476,None,,16,001,2025-12-23_17h04.53.057,2025C_exp1_detect,2022.2.4,59.83624017087449,
15.7,315,1,0,1,1,0,114,114,388,468.16396219993476,468.16396219993476,468.6648552999832,468.7315494000213,468.781725000008,468.781725000008,468.781725000008,468.781725000008,468.8317184000043,468.8317184000043,468.8317184000043,468.8317184000043,468.8317184000043,468.8317184000043,468.8317184000043,468.8317184000043,468.8317184000043,468.8317184000043,num_3,0.9690596999134868,469.83249810000416,469.83249810000416,None,,16,001,2025-12-23_17h04.53.057,2025C_exp1_detect,2022.2.4,59.83624017087449,
19.6,45,0,0,-1,0,0,115,115,2,469.83249810000416,469.83249810000416,470.33275760000106,470.39962409995496,470.44963909999933,470.44963909999933,470.44963909999933,470.44963909999933,470.4995383999776,470.4995383999776,470.4995383999776,470.4995383999776,470.4995383999776,470.4995383999776,470.4995383999776,470.4995383999776,470.4995383999776,470.4995383999776,num_1,1.3813377000624314,471.9012643999886,471.9012643999886,None,,16,001,2025-12-23_17h04.53.057,2025C_exp1_detect,2022.2.4,59.83624017087449,
39.2,45,0,0,-1,-1,0,116,116,151,471.9012643999886,471.9012643999886,472.4014779999852,472.46834289992694,472.51839430001564,472.51839430001564,472.51839430001564,472.51839430001564,472.56821329996455,472.56821329996455,472.56821329996455,472.56821329996455,472.56821329996455,472.56821329996455,472.56821329996455,472.56821329996455,472.56821329996455,472.56821329996455,num_1,1.2572918999940157,473.8529395000078,473.8529395000078,None,,16,001,2025-12-23_17h04.53.057,2025C_exp1_detect,2022.2.4,59.83624017087449,
12.1,315,0,0,1,0,0,117,117,81,473.8529395000078,473.8529395000078,474.3535903999582,474.42003509995993,474.4705320999492,474.4705320999492,474.4705320999492,474.4705320999492,474.52047340001445,474.52047340001445,474.52047340001445,474.52047340001445,474.52047340001445,474.52047340001445,474.52047340001445,474.52047340001445,474.52047340001445,474.52047340001445,num_3,1.0402752000372857,475.58803510002326,475.58803510002326,None,,16,001,2025-12-23_17h04.53.057,2025C_exp1_detect,2022.2.4,59.83624017087449,
25.5,45,0,1,1,0,0,118,118,112,475.58803510002326,475.58803510002326,476.08863539993763,476.1553550999379,476.20566640002653,476.20566640002653,476.20566640002653,476.20566640002653,476.25552210002206,476.25552210002206,476.25552210002206,476.25552210002206,476.25552210002206,476.25552210002206,476.25552210002206,476.25552210002206,476.25552210002206,476.25552210002206,num_1,0.8891962999477983,477.17308159999084,477.17308159999084,None,,16,001,2025-12-23_17h04.53.057,2025C_exp1_detect,2022.2.4,59.83624017087449,
29.4,315,1,0,1,1,0,119,119,392,477.17308159999084,477.17308159999084,477.67347819998395,477.7402060999302,477.7905974999303,477.7905974999303,477.7905974999303,477.7905974999303,477.8403466999298,477.8403466999298,477.8403466999298,477.8403466999298,477.8403466999298,477.8403466999298,477.8403466999298,477.8403466999298,477.8403466999298,477.8403466999298,num_3,0.8238915998954326,478.6912524999352,478.6912524999352,None,,16,001,2025-12-23_17h04.53.057,2025C_exp1_detect,2022.2.4,59.83624017087449,
35.3,315,1,0,1,0,0,120,120,105,478.6912524999352,478.6912524999352,479.19164620002266,479.25836039998103,479.30880759994034,479.30880759994034,479.30880759994034,479.30880759994034,479.35867029998917,479.35867029998917,479.35867029998917,479.35867029998917,479.35867029998917,479.35867029998917,479.35867029998917,479.35867029998917,479.35867029998917,479.35867029998917,num_3,0.7304351000348106,480.1094357999973,480.1094357999973,None,,16,001,2025-12-23_17h04.53.057,2025C_exp1_detect,2022.2.4,59.83624017087449,
22.7,45,0,0,-1,-1,0,121,121,147,480.1094357999973,480.1094357999973,480.60982090001926,480.6765444999328,480.72691870003473,480.72691870003473,480.72691870003473,480.72691870003473,480.7768046000274,480.7768046000274,480.7768046000274,480.7768046000274,480.7768046000274,480.7768046000274,480.7768046000274,480.7768046000274,480.7768046000274,480.7768046000274,num_1,1.8964491999940947,482.69526940002106,482.69526940002106,None,,16,001,2025-12-23_17h04.53.057,2025C_exp1_detect,2022.2.4,59.83624017087449,
12.1,45,0,1,-1,1,0,122,122,324,482.69526940002106,482.69526940002106,483.1957546999911,483.26261620002333,483.3128839000128,483.3128839000128,483.3128839000128,483.3128839000128,483.3628926000092,483.3628926000092,483.3628926000092,483.3628926000092,483.3628926000092,483.3628926000092,483.3628926000092,483.3628926000092,483.3628926000092,483.3628926000092,num_3,1.1105771000729874,484.4970674000215,484.4970674000215,None,,16,001,2025-12-23_17h04.53.057,2025C_exp1_detect,2022.2.4,59.83624017087449,
19.6,315,0,1,1,0,0,123,123,119,484.4970674000215,484.4970674000215,484.99767439998686,485.06417279993184,485.1143435999984,485.1143435999984,485.1143435999984,485.1143435999984,485.16417000000365,485.16417000000365,485.16417000000365,485.16417000000365,485.16417000000365,485.16417000000365,485.16417000000365,485.16417000000365,485.16417000000365,485.16417000000365,num_1,1.0203861000481993,486.215423299931,486.215423299931,None,,16,001,2025-12-23_17h04.53.057,2025C_exp1_detect,2022.2.4,59.83624017087449,
15.7,45,0,0,-1,-1,0,124,124,145,486.215423299931,486.215423299931,486.71598360000644,486.7826590000186,486.8329828999704,486.8329828999704,486.8329828999704,486.8329828999704,486.8828408999834,486.8828408999834,486.8828408999834,486.8828408999834,486.8828408999834,486.8828408999834,486.8828408999834,486.8828408999834,486.8828408999834,486.8828408999834,num_3,1.7103591000195593,488.6176981999306,488.6176981999306,None,,16,001,2025-12-23_17h04.53.057,2025C_exp1_detect,2022.2.4,59.83624017087449,
19.6,45,0,1,1,1,0,125,125,398,488.6176981999306,488.6176981999306,489.1183355000103,489.1850548000075,489.2352532999357,489.2352532999357,489.2352532999357,489.2352532999357,489.28492759994697,489.28492759994697,489.28492759994697,489.28492759994697,489.28492759994697,489.28492759994697,489.28492759994697,489.28492759994697,489.28492759994697,489.28492759994697,num_1,1.5072967999149114,490.82003089995123,490.82003089995123,None,,16,001,2025-12-23_17h04.53.057,2025C_exp1_detect,2022.2.4,59.83624017087449,
42.7,315,0,0,-1,-1,0,126,126,161,490.82003089995123,490.82003089995123,491.32042649993673,491.38693849998526,491.4378329999745,491.4378329999745,491.4378329999745,491.4378329999745,491.4876455999911,491.4876455999911,491.4876455999911,491.4876455999911,491.4876455999911,491.4876455999911,491.4876455999911,491.4876455999911,491.4876455999911,491.4876455999911,num_1,0.7294068000046536,492.23801279999316,492.23801279999316,None,,16,001,2025-12-23_17h04.53.057,2025C_exp1_detect,2022.2.4,59.83624017087449,
15.7,45,1,1,-1,1,0,127,127,343,492.23801279999316,492.23801279999316,492.738411600003,492.8053409999702,492.8556254999712,492.8556254999712,492.8556254999712,492.8556254999712,492.9054232999915,492.9054232999915,492.9054232999915,492.9054232999915,492.9054232999915,492.9054232999915,492.9054232999915,492.9054232999915,492.9054232999915,492.9054232999915,num_3,0.9107135999947786,493.8395814000396,493.8395814000396,None,,16,001,2025-12-23_17h04.53.057,2025C_exp1_detect,2022.2.4,59.83624017087449,
12.1,45,0,1,1,0,0,128,128,108,493.8395814000396,493.8395814000396,494.34010050003417,494.4068998999428,494.45717700000387,494.45717700000387,494.45717700000387,494.45717700000387,494.50714979995973,494.50714979995973,494.50714979995973,494.50714979995973,494.50714979995973,494.50714979995973,494.50714979995973,494.50714979995973,494.50714979995973,494.50714979995973,num_1,1.117455800063908,495.64151099999435,495.64151099999435,None,,16,001,2025-12-23_17h04.53.057,2025C_exp1_detect,2022.2.4,59.83624017087449,
19.6,315,1,1,-1,1,0,129,129,353,495.64151099999435,495.64151099999435,496.14218319999054,496.20892909995746,496.2591886000009,496.2591886000009,496.2591886000009,496.2591886000009,496.30893950001337,496.30893950001337,496.30893950001337,496.30893950001337,496.30893950001337,496.30893950001337,496.30893950001337,496.30893950001337,496.30893950001337,496.30893950001337,num_3,0.7792713999515399,497.10963980003726,497.10963980003726,None,,16,001,2025-12-23_17h04.53.057,2025C_exp1_detect,2022.2.4,59.83624017087449,
42.7,315,0,0,1,0,0,130,130,89,497.10963980003726,497.10963980003726,497.610072499956,497.6768493000418,497.72707100003026,497.72707100003026,497.72707100003026,497.72707100003026,497.7770440999884,497.7770440999884,497.7770440999884,497.7770440999884,497.7770440999884,497.7770440999884,497.7770440999884,497.7770440999884,497.7770440999884,497.7770440999884,num_1,1.3834425000241026,499.1780576999299,499.1780576999299,None,,16,001,2025-12-23_17h04.53.057,2025C_exp1_detect,2022.2.4,59.83624017087449,
22.7,315,0,0,1,0,0,131,131,84,499.1780576999299,499.1780576999299,499.6786307999864,499.74553219997324,499.7959202999482,499.7959202999482,499.7959202999482,499.7959202999482,499.84550059994217,499.84550059994217,499.84550059994217,499.84550059994217,499.84550059994217,499.84550059994217,499.84550059994217,499.84550059994217,499.84550059994217,499.84550059994217,num_1,0.6758010000921786,500.54667429998517,500.54667429998517,None,,16,001,2025-12-23_17h04.53.057,2025C_exp1_detect,2022.2.4,59.83624017087449,
12.1,315,1,0,-1,1,0,132,132,315,500.54667429998517,500.54667429998517,501.04694679996464,501.11389529996086,501.1640924999956,501.1640924999956,501.1640924999956,501.1640924999956,501.2139507000102,501.2139507000102,501.2139507000102,501.2139507000102,501.2139507000102,501.2139507000102,501.2139507000102,501.2139507000102,501.2139507000102,501.2139507000102,num_3,0.7547376999864355,501.9978622000199,501.9978622000199,None,,16,001,2025-12-23_17h04.53.057,2025C_exp1_detect,2022.2.4,59.83624017087449,
19.6,315,0,0,1,0,0,133,133,83,501.9978622000199,501.9978622000199,502.49836289999075,502.56515619996935,502.6155194999883,502.6155194999883,502.6155194999883,502.6155194999883,502.66527939995285,502.66527939995285,502.66527939995285,502.66527939995285,502.66527939995285,502.66527939995285,502.66527939995285,502.66527939995285,502.66527939995285,502.66527939995285,num_1,0.775239699985832,503.4660252999747,503.4660252999747,None,,16,001,2025-12-23_17h04.53.057,2025C_exp1_detect,2022.2.4,59.83624017087449,
42.7,315,0,0,-1,1,0,134,134,305,503.4660252999747,503.4660252999747,503.9663481999887,504.03321309993044,504.0836829999462,504.0836829999462,504.0836829999462,504.0836829999462,504.1333665000275,504.1333665000275,504.1333665000275,504.1333665000275,504.1333665000275,504.1333665000275,504.1333665000275,504.1333665000275,504.1333665000275,504.1333665000275,num_3,1.539447799907066,505.7014118999941,505.7014118999941,None,,16,001,2025-12-23_17h04.53.057,2025C_exp1_detect,2022.2.4,59.83624017087449,
42.7,45,1,0,1,-1,0,135,135,242,505.7014118999941,505.7014118999941,506.20228399999905,506.26890989998356,506.3191360000055,506.3191360000055,506.3191360000055,506.3191360000055,506.369095299975,506.369095299975,506.369095299975,506.369095299975,506.369095299975,506.369095299975,506.369095299975,506.369095299975,506.369095299975,506.369095299975,num_3,3.847895000013523,510.2394341999898,510.2394341999898,None,,16,001,2025-12-23_17h04.53.057,2025C_exp1_detect,2022.2.4,59.83624017087449,
15.7,315,0,1,-1,1,0,136,136,334,510.2394341999898,510.2394341999898,510.73994210001547,510.8066667999374,510.8569499999285,510.8569499999285,510.8569499999285,510.8569499999285,510.90681289997883,510.90681289997883,510.90681289997883,510.90681289997883,510.90681289997883,510.90681289997883,510.90681289997883,510.90681289997883,510.90681289997883,510.90681289997883,num_3,0.9340201000450179,511.8577351999702,511.8577351999702,None,,16,001,2025-12-23_17h04.53.057,2025C_exp1_detect,2022.2.4,59.83624017087449,
25.5,315,1,0,1,-1,0,137,137,247,511.8577351999702,511.8577351999702,512.3582394999685,512.4249281999655,512.4752430999652,512.4752430999652,512.4752430999652,512.4752430999652,512.5251189999981,512.5251189999981,512.5251189999981,512.5251189999981,512.5251189999981,512.5251189999981,512.5251189999981,512.5251189999981,512.5251189999981,512.5251189999981,num_3,0.7951988000422716,513.3424803999951,513.3424803999951,None,,16,001,2025-12-23_17h04.53.057,2025C_exp1_detect,2022.2.4,59.83624017087449,
29.4,315,1,0,1,-1,0,138,138,248,513.3424803999951,513.3424803999951,513.8430401999503,513.9097416999284,513.9600673000095,513.9600673000095,513.9600673000095,513.9600673000095,514.0099504999816,514.0099504999816,514.0099504999816,514.0099504999816,514.0099504999816,514.0099504999816,514.0099504999816,514.0099504999816,514.0099504999816,514.0099504999816,num_3,0.527553700027056,514.5604205999989,514.5604205999989,None,,16,001,2025-12-23_17h04.53.057,2025C_exp1_detect,2022.2.4,59.83624017087449,
15.7,45,1,1,1,1,0,139,139,415,514.5604205999989,514.5604205999989,515.060929600033,515.1276167000178,515.1779575999826,515.1779575999826,515.1779575999826,515.1779575999826,515.2276980000315,515.2276980000315,515.2276980000315,515.2276980000315,515.2276980000315,515.2276980000315,515.2276980000315,515.2276980000315,515.2276980000315,515.2276980000315,num_1,0.7413667999207973,515.9950378999347,515.9950378999347,None,,16,001,2025-12-23_17h04.53.057,2025C_exp1_detect,2022.2.4,59.83624017087449,
25.5,315,0,1,-1,-1,0,140,140,193,515.9950378999347,515.9950378999347,516.4957733999472,516.5624006999424,516.6126336000161,516.6126336000161,516.6126336000161,516.6126336000161,516.6624973999569,516.6624973999569,516.6624973999569,516.6624973999569,516.6624973999569,516.6624973999569,516.6624973999569,516.6624973999569,516.6624973999569,516.6624973999569,num_3,1.7221316000213847,518.4142925000051,518.4142925000051,None,,16,001,2025-12-23_17h04.53.057,2025C_exp1_detect,2022.2.4,59.83624017087449,
39.2,45,0,0,1,0,0,141,141,79,518.4142925000051,518.4142925000051,518.9149360000156,518.9814156999346,519.0317401000066,519.0317401000066,519.0317401000066,519.0317401000066,519.0815948999953,519.0815948999953,519.0815948999953,519.0815948999953,519.0815948999953,519.0815948999953,519.0815948999953,519.0815948999953,519.0815948999953,519.0815948999953,num_1,1.1359931000042707,520.2493967999471,520.2493967999471,None,,16,001,2025-12-23_17h04.53.057,2025C_exp1_detect,2022.2.4,59.83624017087449,
25.5,315,1,0,-1,0,0,142,142,31,520.2493967999471,520.2493967999471,520.7499450999312,520.8165423999308,520.8669877999928,520.8669877999928,520.8669877999928,520.8669877999928,520.9168428999837,520.9168428999837,520.9168428999837,520.9168428999837,520.9168428999837,520.9168428999837,520.9168428999837,520.9168428999837,520.9168428999837,520.9168428999837,num_1,0.8353320000460371,521.7843262000242,521.7843262000242,None,,16,001,2025-12-23_17h04.53.057,2025C_exp1_detect,2022.2.4,59.83624017087449,
22.7,315,0,0,-1,0,0,143,143,12,521.7843262000242,521.7843262000242,522.2848144000163,522.3515401999466,522.401809199946,522.401809199946,522.401809199946,522.401809199946,522.4516091999831,522.4516091999831,522.4516091999831,522.4516091999831,522.4516091999831,522.4516091999831,522.4516091999831,522.4516091999831,522.4516091999831,522.4516091999831,num_1,0.7576110999798402,523.2360141000245,523.2360141000245,None,,16,001,2025-12-23_17h04.53.057,2025C_exp1_detect,2022.2.4,59.83624017087449,
12.1,315,1,0,-1,0,0,144,144,27,523.2360141000245,523.2360141000245,523.736168500036,523.8029687999515,523.8534121999983,523.8534121999983,523.8534121999983,523.8534121999983,523.9031422999687,523.9031422999687,523.9031422999687,523.9031422999687,523.9031422999687,523.9031422999687,523.9031422999687,523.9031422999687,523.9031422999687,523.9031422999687,num_1,0.6089100000681356,524.536897999933,524.536897999933,None,,16,001,2025-12-23_17h04.53.057,2025C_exp1_detect,2022.2.4,59.83624017087449,
25.5,45,0,0,-1,-1,0,145,145,148,524.536897999933,524.536897999933,525.0376335999463,525.1043334000278,525.1547365000006,525.1547365000006,525.1547365000006,525.1547365000006,525.2044556000037,525.2044556000037,525.2044556000037,525.2044556000037,525.2044556000037,525.2044556000037,525.2044556000037,525.2044556000037,525.2044556000037,525.2044556000037,num_1,1.2126261999364942,526.438941600034,526.438941600034,None,,16,001,2025-12-23_17h04.53.057,2025C_exp1_detect,2022.2.4,59.83624017087449,
19.6,45,1,1,-1,0,0,146,146,56,526.438941600034,526.438941600034,526.939570199931,527.0060974999797,527.0563831999898,527.0563831999898,527.0563831999898,527.0563831999898,527.1063529000385,527.1063529000385,527.1063529000385,527.1063529000385,527.1063529000385,527.1063529000385,527.1063529000385,527.1063529000385,527.1063529000385,527.1063529000385,num_3,0.7897379000205547,527.9236203000182,527.9236203000182,None,,16,001,2025-12-23_17h04.53.057,2025C_exp1_detect,2022.2.4,59.83624017087449,
35.3,45,0,1,-1,-1,0,147,147,186,527.9236203000182,527.9236203000182,528.4242458000081,528.4909876999445,528.5412208000198,528.5412208000198,528.5412208000198,528.5412208000198,528.5911632999778,528.5911632999778,528.5911632999778,528.5911632999778,528.5911632999778,528.5911632999778,528.5911632999778,528.5911632999778,528.5911632999778,528.5911632999778,num_1,1.2888401999371126,529.9090483000036,529.9090483000036,None,,16,001,2025-12-23_17h04.53.057,2025C_exp1_detect,2022.2.4,59.83624017087449,
12.1,45,1,1,-1,-1,0,148,148,198,529.9090483000036,529.9090483000036,530.4097296999535,530.476521100034,530.5268156999955,530.5268156999955,530.5268156999955,530.5268156999955,530.5765738999471,530.5765738999471,530.5765738999471,530.5765738999471,530.5765738999471,530.5765738999471,530.5765738999471,530.5765738999471,530.5765738999471,530.5765738999471,num_3,1.207789700012654,531.810985499993,531.810985499993,None,,16,001,2025-12-23_17h04.53.057,2025C_exp1_detect,2022.2.4,59.83624017087449,
42.7,315,0,1,1,0,0,149,149,125,531.810985499993,531.810985499993,532.3115454999497,532.3782330999384,532.4284629999893,532.4284629999893,532.4284629999893,532.4284629999893,532.478434999939,532.478434999939,532.478434999939,532.478434999939,532.478434999939,532.478434999939,532.478434999939,532.478434999939,532.478434999939,532.478434999939,num_1,0.7694617999950424,533.2789699999848,533.2789699999848,None,,16,001,2025-12-23_17h04.53.057,2025C_exp1_detect,2022.2.4,59.83624017087449,
35.3,315,1,0,1,1,0,150,150,393,533.2789699999848,533.2789699999848,533.7796059999382,533.846317699994,533.8966718999436,533.8966718999436,533.8966718999436,533.8966718999436,533.9465367000084,533.9465367000084,533.9465367000084,533.9465367000084,533.9465367000084,533.9465367000084,533.9465367000084,533.9465367000084,533.9465367000084,533.9465367000084,num_3,2.357509499997832,536.3320167999482,536.3320167999482,None,,16,001,2025-12-23_17h04.53.057,2025C_exp1_detect,2022.2.4,59.83624017087449,
39.2,315,0,1,-1,1,0,151,151,340,536.3320167999482,536.3320167999482,536.8325312000234,536.8993876000168,536.9496864000103,536.9496864000103,536.9496864000103,536.9496864000103,536.999570999993,536.999570999993,536.999570999993,536.999570999993,536.999570999993,536.999570999993,536.999570999993,536.999570999993,536.999570999993,536.999570999993,num_3,1.297313499962911,538.3174565000227,538.3174565000227,None,,16,001,2025-12-23_17h04.53.057,2025C_exp1_detect,2022.2.4,59.83624017087449,
29.4,315,0,1,-1,-1,0,152,152,194,538.3174565000227,538.3174565000227,538.8179621000309,538.8846822000341,538.9349999999395,538.9349999999395,538.9349999999395,538.9349999999395,538.9848440999631,538.9848440999631,538.9848440999631,538.9848440999631,538.9848440999631,538.9848440999631,538.9848440999631,538.9848440999631,538.9848440999631,538.9848440999631,num_3,0.6003735999111086,539.6021336000413,539.6021336000413,None,,16,001,2025-12-23_17h04.53.057,2025C_exp1_detect,2022.2.4,59.83624017087449,
19.6,45,1,1,-1,-1,0,153,153,200,539.6021336000413,539.6021336000413,540.1026282999665,540.169025399955,540.2196883999277,540.2196883999277,540.2196883999277,540.2196883999277,540.2696496000281,540.2696496000281,540.2696496000281,540.2696496000281,540.2696496000281,540.2696496000281,540.2696496000281,540.2696496000281,540.2696496000281,540.2696496000281,num_3,0.42799519991967827,540.7200446999632,540.7200446999632,None,,16,001,2025-12-23_17h04.53.057,2025C_exp1_detect,2022.2.4,59.83624017087449,
35.3,315,1,0,1,-1,0,154,154,249,540.7200446999632,540.7200446999632,541.220632600016,541.2872454000171,541.3375618000282,541.3375618000282,541.3375618000282,541.3375618000282,541.3874117999803,541.3874117999803,541.3874117999803,541.3874117999803,541.3874117999803,541.3874117999803,541.3874117999803,541.3874117999803,541.3874117999803,541.3874117999803,num_3,0.6057996000163257,542.0211727999849,542.0211727999849,None,,16,001,2025-12-23_17h04.53.057,2025C_exp1_detect,2022.2.4,59.83624017087449,
25.5,45,0,0,1,1,0,155,155,364,542.0211727999849,542.0211727999849,542.5215676999651,542.5884833999444,542.6388429999352,542.6388429999352,542.6388429999352,542.6388429999352,542.6887497999705,542.6887497999705,542.6887497999705,542.6887497999705,542.6887497999705,542.6887497999705,542.6887497999705,542.6887497999705,542.6887497999705,542.6887497999705,num_3,1.5286074000177905,544.2399559000041,544.2399559000041,None,,16,001,2025-12-23_17h04.53.057,2025C_exp1_detect,2022.2.4,59.83624017087449,
39.2,45,1,0,1,0,0,156,156,97,544.2399559000041,544.2399559000041,544.7404709999682,544.8073333000066,544.8575964999618,544.8575964999618,544.8575964999618,544.8575964999618,544.9074753000168,544.9074753000168,544.9074753000168,544.9074753000168,544.9074753000168,544.9074753000168,544.9074753000168,544.9074753000168,544.9074753000168,544.9074753000168,num_3,0.9966885999310762,545.9249110999517,545.9249110999517,None,,16,001,2025-12-23_17h04.53.057,2025C_exp1_detect,2022.2.4,59.83624017087449,
29.4,45,1,1,-1,-1,0,157,157,203,545.9249110999517,545.9249110999517,546.4255804999266,546.4923001999268,546.5426054999698,546.5426054999698,546.5426054999698,546.5426054999698,546.5923188999295,546.5923188999295,546.5923188999295,546.5923188999295,546.5923188999295,546.5923188999295,546.5923188999295,546.5923188999295,546.5923188999295,546.5923188999295,num_3,0.6000315999845043,547.2096612999449,547.2096612999449,None,,16,001,2025-12-23_17h04.53.057,2025C_exp1_detect,2022.2.4,59.83624017087449,
12.1,45,0,0,1,0,0,158,158,72,547.2096612999449,547.2096612999449,547.710115200025,547.7769504999742,547.8271687999368,547.8271687999368,547.8271687999368,547.8271687999368,547.8770101999398,547.8770101999398,547.8770101999398,547.8770101999398,547.8770101999398,547.8770101999398,547.8770101999398,547.8770101999398,547.8770101999398,547.8770101999398,num_1,0.8192995999706909,548.7278843999375,548.7278843999375,None,,16,001,2025-12-23_17h04.53.057,2025C_exp1_detect,2022.2.4,59.83624017087449,
29.4,315,1,1,1,-1,0,159,159,284,548.7278843999375,548.7278843999375,549.2283698000247,549.2950774999335,549.3453732000198,549.3453732000198,549.3453732000198,549.3453732000198,549.3952846999746,549.3952846999746,549.3952846999746,549.3952846999746,549.3952846999746,549.3952846999746,549.3952846999746,549.3952846999746,549.3952846999746,549.3952846999746,num_3,0.8135536999907345,550.2291252999566,550.2291252999566,None,,16,001,2025-12-23_17h04.53.057,2025C_exp1_detect,2022.2.4,59.83624017087449,
35.3,45,0,0,-1,-1,0,160,160,150,550.2291252999566,550.2291252999566,550.7300101999426,550.796733599971,550.84716200002,550.84716200002,550.84716200002,550.84716200002,550.8969242000021,550.8969242000021,550.8969242000021,550.8969242000021,550.8969242000021,550.8969242000021,550.8969242000021,550.8969242000021,550.8969242000021,550.8969242000021,num_3,1.2646048999158666,552.1815758999437,552.1815758999437,None,,16,001,2025-12-23_17h04.53.057,2025C_exp1_detect,2022.2.4,59.83624017087449,
22.7,45,0,0,1,0,0,161,161,75,552.1815758999437,552.1815758999437,552.6820580000058,552.7484114000108,552.7988595999777,552.7988595999777,552.7988595999777,552.7988595999777,552.8489992000395,552.8489992000395,552.8489992000395,552.8489992000395,552.8489992000395,552.8489992000395,552.8489992000395,552.8489992000395,552.8489992000395,552.8489992000395,num_3,4.047093800036237,556.9194012000225,556.9194012000225,None,,16,001,2025-12-23_17h04.53.057,2025C_exp1_detect,2022.2.4,59.83624017087449,
39.2,315,0,0,1,-1,0,162,162,232,556.9194012000225,556.9194012000225,557.419900799985,557.4866588999284,557.5369099000236,557.5369099000236,557.5369099000236,557.5369099000236,557.5865036000032,557.5865036000032,557.5865036000032,557.5865036000032,557.5865036000032,557.5865036000032,557.5865036000032,557.5865036000032,557.5865036000032,557.5865036000032,num_3,0.6869854999240488,558.3043567999266,558.3043567999266,None,,16,001,2025-12-23_17h04.53.057,2025C_exp1_detect,2022.2.4,59.83624017087449,
29.4,45,1,1,1,0,0,163,163,131,558.3043567999266,558.3043567999266,558.8042913000099,558.87101360003,558.9213143000379,558.9213143000379,558.9213143000379,558.9213143000379,558.9711875999346,558.9711875999346,558.9711875999346,558.9711875999346,558.9711875999346,558.9711875999346,558.9711875999346,558.9711875999346,558.9711875999346,558.9711875999346,num_3,0.7254510999191552,559.7221870999783,559.7221870999783,None,,16,001,2025-12-23_17h04.53.057,2025C_exp1_detect,2022.2.4,59.83624017087449,
35.3,45,1,0,-1,-1,0,164,164,168,559.7221870999783,559.7221870999783,560.2227869000053,560.2893679999979,560.3394829999888,560.3394829999888,560.3394829999888,560.3394829999888,560.3892890999559,560.3892890999559,560.3892890999559,560.3892890999559,560.3892890999559,560.3892890999559,560.3892890999559,560.3892890999559,560.3892890999559,560.3892890999559,num_1,1.2596460999920964,561.6741050999844,561.6741050999844,None,,16,001,2025-12-23_17h04.53.057,2025C_exp1_detect,2022.2.4,59.83624017087449,
22.7,315,0,1,1,1,0,165,165,408,561.6741050999844,561.6741050999844,562.1744297000114,562.2412329999497,562.2916785000125,562.2916785000125,562.2916785000125,562.2916785000125,562.3415103999432,562.3415103999432,562.3415103999432,562.3415103999432,562.3415103999432,562.3415103999432,562.3415103999432,562.3415103999432,562.3415103999432,562.3415103999432,num_1,1.0276411999948323,563.3924753000028,563.3924753000028,None,,16,001,2025-12-23_17h04.53.057,2025C_exp1_detect,2022.2.4,59.83624017087449,
15.7,315,1,1,1,-1,0,166,166,280,563.3924753000028,563.3924753000028,563.8930775999324,563.9597473000176,564.0100232999539,564.0100232999539,564.0100232999539,564.0100232999539,564.0598465999356,564.0598465999356,564.0598465999356,564.0598465999356,564.0598465999356,564.0598465999356,564.0598465999356,564.0598465999356,564.0598465999356,564.0598465999356,num_3,0.6773725000675768,564.760566300014,564.760566300014,None,,16,001,2025-12-23_17h04.53.057,2025C_exp1_detect,2022.2.4,59.83624017087449,
22.7,45,1,1,-1,0,0,167,167,57,564.760566300014,564.760566300014,565.2610480999574,565.3277888000011,565.3779661000008,565.3779661000008,565.3779661000008,565.3779661000008,565.427956999978,565.427956999978,565.427956999978,565.427956999978,565.427956999978,565.427956999978,565.427956999978,565.427956999978,565.427956999978,565.427956999978,num_1,1.5321725000394508,566.9794372000033,566.9794372000033,None,,16,001,2025-12-23_17h04.53.057,2025C_exp1_detect,2022.2.4,59.83624017087449,
12.1,315,1,1,1,0,0,168,168,135,566.9794372000033,566.9794372000033,567.4798195000039,567.5466904999921,567.5968494999688,567.5968494999688,567.5968494999688,567.5968494999688,567.6467387999874,567.6467387999874,567.6467387999874,567.6467387999874,567.6467387999874,567.6467387999874,567.6467387999874,567.6467387999874,567.6467387999874,567.6467387999874,num_3,0.7777605000883341,568.4472514999798,568.4472514999798,None,,16,001,2025-12-23_17h04.53.057,2025C_exp1_detect,2022.2.4,59.83624017087449,
42.7,45,1,0,-1,-1,0,169,169,170,568.4472514999798,568.4472514999798,568.9481163999299,569.0147827999899,569.065088900039,569.065088900039,569.065088900039,569.065088900039,569.1148433999624,569.1148433999624,569.1148433999624,569.1148433999624,569.1148433999624,569.1148433999624,569.1148433999624,569.1148433999624,569.1148433999624,569.1148433999624,num_1,0.7501670999918133,569.8822199000278,569.8822199000278,None,,16,001,2025-12-23_17h04.53.057,2025C_exp1_detect,2022.2.4,59.83624017087449,
19.6,45,0,0,1,-1,0,170,170,218,569.8822199000278,569.8822199000278,570.3827184999827,570.4492878000019,570.4996027000016,570.4996027000016,570.4996027000016,570.4996027000016,570.5497686000308,570.5497686000308,570.5497686000308,570.5497686000308,570.5497686000308,570.5497686000308,570.5497686000308,570.5497686000308,570.5497686000308,570.5497686000308,num_3,0.8915695999749005,571.4672731999308,571.4672731999308,None,,16,001,2025-12-23_17h04.53.057,2025C_exp1_detect,2022.2.4,59.83624017087449,
39.2,315,0,0,1,0,0,171,171,88,571.4672731999308,571.4672731999308,571.9679547999986,572.0344958000351,572.0848493999802,572.0848493999802,572.0848493999802,572.0848493999802,572.1345173999434,572.1345173999434,572.1345173999434,572.1345173999434,572.1345173999434,572.1345173999434,572.1345173999434,572.1345173999434,572.1345173999434,572.1345173999434,num_3,1.4177714000688866,573.5694019999355,573.5694019999355,None,,16,001,2025-12-23_17h04.53.057,2025C_exp1_detect,2022.2.4,59.83624017087449,
15.7,45,0,1,-1,1,0,172,172,325,573.5694019999355,573.5694019999355,574.0697705999482,574.1365057999501,574.1869499000022,574.1869499000022,574.1869499000022,574.1869499000022,574.2368010999635,574.2368010999635,574.2368010999635,574.2368010999635,574.2368010999635,574.2368010999635,574.2368010999635,574.2368010999635,574.2368010999635,574.2368010999635,num_3,0.6597675000084564,574.9206800999818,574.9206800999818,None,,16,001,2025-12-23_17h04.53.057,2025C_exp1_detect,2022.2.4,59.83624017087449,
39.2,45,1,1,1,1,0,173,173,421,574.9206800999818,574.9206800999818,575.4212081999285,575.4879343999783,575.5381259999704,575.5381259999704,575.5381259999704,575.5381259999704,575.588120499975,575.588120499975,575.588120499975,575.588120499975,575.588120499975,575.588120499975,575.588120499975,575.588120499975,575.588120499975,575.588120499975,num_1,0.7727388000348583,576.3888142999494,576.3888142999494,None,,16,001,2025-12-23_17h04.53.057,2025C_exp1_detect,2022.2.4,59.83624017087449,
19.6,45,0,1,-1,-1,0,174,174,182,576.3888142999494,576.3888142999494,576.889590100036,576.9562191999285,577.0065241999691,577.0065241999691,577.0065241999691,577.0065241999691,577.0563817999791,577.0563817999791,577.0563817999791,577.0563817999791,577.0563817999791,577.0563817999791,577.0563817999791,577.0563817999791,577.0563817999791,577.0563817999791,num_3,1.6483114999718964,578.7245143000036,578.7245143000036,None,,16,001,2025-12-23_17h04.53.057,2025C_exp1_detect,2022.2.4,59.83624017087449,
29.4,315,0,1,-1,1,0,175,175,338,578.7245143000036,578.7245143000036,579.2251318999333,579.2919788999716,579.3422725000419,579.3422725000419,579.3422725000419,579.3422725000419,579.3920451999875,579.3920451999875,579.3920451999875,579.3920451999875,579.3920451999875,579.3920451999875,579.3920451999875,579.3920451999875,579.3920451999875,579.3920451999875,num_3,0.8969750999240205,580.3093906999566,580.3093906999566,None,,16,001,2025-12-23_17h04.53.057,2025C_exp1_detect,2022.2.4,59.83624017087449,
12.1,315,0,0,-1,1,0,176,176,297,580.3093906999566,580.3093906999566,580.8100788999582,580.876364500029,580.9268534999574,580.9268534999574,580.9268534999574,580.9268534999574,580.9767407999607,580.9767407999607,580.9767407999607,580.9767407999607,580.9767407999607,580.9767407999607,580.9767407999607,580.9767407999607,580.9767407999607,580.9767407999607,num_3,1.1766891001025215,582.1780791999772,582.1780791999772,None,,16,001,2025-12-23_17h04.53.057,2025C_exp1_detect,2022.2.4,59.83624017087449,
25.5,45,0,0,1,0,0,177,177,76,582.1780791999772,582.1780791999772,582.6785801999504,582.7453082000138,582.7955749999965,582.7955749999965,582.7955749999965,582.7955749999965,582.8453445000341,582.8453445000341,582.8453445000341,582.8453445000341,582.8453445000341,582.8453445000341,582.8453445000341,582.8453445000341,582.8453445000341,582.8453445000341,num_1,0.8112669000402093,583.679191299947,583.679191299947,None,,16,001,2025-12-23_17h04.53.057,2025C_exp1_detect,2022.2.4,59.83624017087449,
42.7,315,1,0,1,1,0,178,178,395,583.679191299947,583.679191299947,584.1798266000114,584.2466580999317,584.2969759999542,584.2969759999542,584.2969759999542,584.2969759999542,584.346830299939,584.346830299939,584.346830299939,584.346830299939,584.346830299939,584.346830299939,584.346830299939,584.346830299939,584.346830299939,584.346830299939,num_1,0.8211679999949411,585.19762849994,585.19762849994,None,,16,001,2025-12-23_17h04.53.057,2025C_exp1_detect,2022.2.4,59.83624017087449,
29.4,315,1,1,-1,0,0,179,179,68,585.19762849994,585.19762849994,585.6983124000253,585.7646090999478,585.8151001000078,585.8151001000078,585.8151001000078,585.8151001000078,585.8650504000252,585.8650504000252,585.8650504000252,585.8650504000252,585.8650504000252,585.8650504000252,585.8650504000252,585.8650504000252,585.8650504000252,585.8650504000252,num_3,0.9989156000083312,586.8826389999595,586.8826389999595,None,,16,001,2025-12-23_17h04.53.057,2025C_exp1_detect,2022.2.4,59.83624017087449,
25.5,315,0,1,-1,0,0,180,180,49,586.8826389999595,586.8826389999595,587.3831712999381,587.449850999983,587.5001562000252,587.5001562000252,587.5001562000252,587.5001562000252,587.5500436000293,587.5500436000293,587.5500436000293,587.5500436000293,587.5500436000293,587.5500436000293,587.5500436000293,587.5500436000293,587.5500436000293,587.5500436000293,num_3,0.6018396000145003,588.183973700041,588.183973700041,None,,16,001,2025-12-23_17h04.53.057,2025C_exp1_detect,2022.2.4,59.83624017087449,
35.3,315,1,1,1,1,0,181,181,429,588.183973700041,588.183973700041,588.6844354999484,588.7511654000264,588.8014717999613,588.8014717999613,588.8014717999613,588.8014717999613,588.8513471999904,588.8513471999904,588.8513471999904,588.8513471999904,588.8513471999904,588.8513471999904,588.8513471999904,588.8513471999904,588.8513471999904,588.8513471999904,num_3,0.5418007998960093,589.4184976000106,589.4184976000106,None,,16,001,2025-12-23_17h04.53.057,2025C_exp1_detect,2022.2.4,59.83624017087449,
19.6,45,1,0,-1,1,0,182,182,308,589.4184976000106,589.4184976000106,589.9190566999605,589.9856447000057,590.035978400032,590.035978400032,590.035978400032,590.035978400032,590.0859220999992,590.0859220999992,590.0859220999992,590.0859220999992,590.0859220999992,590.0859220999992,590.0859220999992,590.0859220999992,590.0859220999992,590.0859220999992,num_1,1.0430693000089377,591.1536289999494,591.1536289999494,None,,16,001,2025-12-23_17h04.53.057,2025C_exp1_detect,2022.2.4,59.83624017087449,
29.4,45,1,0,-1,0,0,183,183,23,591.1536289999494,591.1536289999494,591.6541086999932,591.7208427999867,591.7711392999627,591.7711392999627,591.7711392999627,591.7711392999627,591.8210057000397,591.8210057000397,591.8210057000397,591.8210057000397,591.8210057000397,591.8210057000397,591.8210057000397,591.8210057000397,591.8210057000397,591.8210057000397,num_1,0.531766299973242,592.3713870999636,592.3713870999636,None,,16,001,2025-12-23_17h04.53.057,2025C_exp1_detect,2022.2.4,59.83624017087449,
29.4,45,0,0,-1,1,0,184,184,293,592.3713870999636,592.3713870999636,592.8720165999839,592.9386326000094,592.9888850999996,592.9888850999996,592.9888850999996,592.9888850999996,593.0387010000413,593.0387010000413,593.0387010000413,593.0387010000413,593.0387010000413,593.0387010000413,593.0387010000413,593.0387010000413,593.0387010000413,593.0387010000413,num_3,1.2336262000026181,594.2899949999992,594.2899949999992,None,,16,001,2025-12-23_17h04.53.057,2025C_exp1_detect,2022.2.4,59.83624017087449,
29.4,315,0,1,1,-1,0,185,185,266,594.2899949999992,594.2899949999992,594.790470100008,594.8573122000089,594.9074878999963,594.9074878999963,594.9074878999963,594.9074878999963,594.9574840000132,594.9574840000132,594.9574840000132,594.9574840000132,594.9574840000132,594.9574840000132,594.9574840000132,594.9574840000132,594.9574840000132,594.9574840000132,num_1,0.603217100026086,595.5914788999362,595.5914788999362,None,,16,001,2025-12-23_17h04.53.057,2025C_exp1_detect,2022.2.4,59.83624017087449,
12.1,45,1,1,1,1,0,186,186,414,595.5914788999362,595.5914788999362,596.0918552000076,596.1585794999264,596.2088874999899,596.2088874999899,596.2088874999899,596.2088874999899,596.2587733999826,596.2587733999826,596.2587733999826,596.2587733999826,596.2587733999826,596.2587733999826,596.2587733999826,596.2587733999826,596.2587733999826,596.2587733999826,num_1,0.8462761000264436,597.1262001999421,597.1262001999421,None,,16,001,2025-12-23_17h04.53.057,2025C_exp1_detect,2022.2.4,59.83624017087449,
29.4,315,0,0,-1,0,0,187,187,14,597.1262001999421,597.1262001999421,597.6267750000115,597.6934716999531,597.743793600006,597.743793600006,597.743793600006,597.743793600006,597.7935530999675,597.7935530999675,597.7935530999675,597.7935530999675,597.7935530999675,597.7935530999675,597.7935530999675,597.7935530999675,597.7935530999675,597.7935530999675,num_1,1.7353812999790534,599.5450249999994,599.5450249999994,None,,16,001,2025-12-23_17h04.53.057,2025C_exp1_detect,2022.2.4,59.83624017087449,
12.1,45,1,0,-1,1,0,188,188,306,599.5450249999994,599.5450249999994,600.0457952999277,600.1125467999373,600.1629602999892,600.1629602999892,600.1629602999892,600.1629602999892,600.2127564999973,600.2127564999973,600.2127564999973,600.2127564999973,600.2127564999973,600.2127564999973,600.2127564999973,600.2127564999973,600.2127564999973,600.2127564999973,num_1,0.5879441000288352,600.8299038000405,600.8299038000405,None,,16,001,2025-12-23_17h04.53.057,2025C_exp1_detect,2022.2.4,59.83624017087449,
42.7,45,0,0,-1,1,0,189,189,296,600.8299038000405,600.8299038000405,601.3304888999555,601.397258299985,601.4474519999931,601.4474519999931,601.4474519999931,601.4474519999931,601.4973619999364,601.4973619999364,601.4973619999364,601.4973619999364,601.4973619999364,601.4973619999364,601.4973619999364,601.4973619999364,601.4973619999364,601.4973619999364,num_1,0.5350452000275254,602.0643784999847,602.0643784999847,None,,16,001,2025-12-23_17h04.53.057,2025C_exp1_detect,2022.2.4,59.83624017087449,
39.2,315,0,1,1,-1,0,190,190,268,602.0643784999847,602.0643784999847,602.5650078000035,602.6316015999764,602.6818155000219,602.6818155000219,602.6818155000219,602.6818155000219,602.7318240000168,602.7318240000168,602.7318240000168,602.7318240000168,602.7318240000168,602.7318240000168,602.7318240000168,602.7318240000168,602.7318240000168,602.7318240000168,num_3,0.4603087999857962,603.2156508000335,603.2156508000335,None,,16,001,2025-12-23_17h04.53.057,2025C_exp1_detect,2022.2.4,59.83624017087449,
22.7,315,0,0,1,-1,0,191,191,228,603.2156508000335,603.2156508000335,603.7159350999864,603.7826440000208,603.8331812999677,603.8331812999677,603.8331812999677,603.8331812999677,603.8830231999746,603.8830231999746,603.8830231999746,603.8830231999746,603.8830231999746,603.8830231999746,603.8830231999746,603.8830231999746,603.8830231999746,603.8830231999746,num_1,2.053616899996996,605.968424599967,605.968424599967,None,,16,001,2025-12-23_17h04.53.057,2025C_exp1_detect,2022.2.4,59.83624017087449,
29.4,315,1,1,1,1,0,192,192,428,605.968424599967,605.968424599967,606.4690059999702,606.5356026999652,606.5859111000318,606.5859111000318,606.5859111000318,606.5859111000318,606.6357570999535,606.6357570999535,606.6357570999535,606.6357570999535,606.6357570999535,606.6357570999535,606.6357570999535,606.6357570999535,606.6357570999535,606.6357570999535,num_1,0.700261399964802,607.3530252999626,607.3530252999626,None,,16,001,2025-12-23_17h04.53.057,2025C_exp1_detect,2022.2.4,59.83624017087449,
42.7,45,0,0,-1,0,0,193,193,8,607.3530252999626,607.3530252999626,607.8535942999879,607.9200382999843,607.9708146000048,607.9708146000048,607.9708146000048,607.9708146000048,608.020493799937,608.020493799937,608.020493799937,608.020493799937,608.020493799937,608.020493799937,608.020493799937,608.020493799937,608.020493799937,608.020493799937,num_3,3.555549900047481,611.60726910003,611.60726910003,None,,16,001,2025-12-23_17h04.53.057,2025C_exp1_detect,2022.2.4,59.83624017087449,
15.7,315,1,1,-1,-1,0,194,194,208,611.60726910003,611.60726910003,612.1077887000283,612.1745005999692,612.2248634999851,612.2248634999851,612.2248634999851,612.2248634999851,612.2747357999906,612.2747357999906,612.2747357999906,612.2747357999906,612.2747357999906,612.2747357999906,612.2747357999906,612.2747357999906,612.2747357999906,612.2747357999906,num_1,0.589739500079304,612.8919236999936,612.8919236999936,None,,16,001,2025-12-23_17h04.53.057,2025C_exp1_detect,2022.2.4,59.83624017087449,
29.4,45,1,1,1,-1,0,195,195,275,612.8919236999936,612.8919236999936,613.3924729999853,613.4593774999958,613.5094973000232,613.5094973000232,613.5094973000232,613.5094973000232,613.5593787999824,613.5593787999824,613.5593787999824,613.5593787999824,613.5593787999824,613.5593787999824,613.5593787999824,613.5593787999824,613.5593787999824,613.5593787999824,num_1,1.2247593000065535,614.810556499986,614.810556499986,None,,16,001,2025-12-23_17h04.53.057,2025C_exp1_detect,2022.2.4,59.83624017087449,
12.1,315,0,0,1,1,0,196,196,369,614.810556499986,614.810556499986,615.3109924999299,615.3777520000003,615.4280795999803,615.4280795999803,615.4280795999803,615.4280795999803,615.4779352999758,615.4779352999758,615.4779352999758,615.4779352999758,615.4779352999758,615.4779352999758,615.4779352999758,615.4779352999758,615.4779352999758,615.4779352999758,num_3,0.7459638000000268,616.2450342000229,616.2450342000229,None,,16,001,2025-12-23_17h04.53.057,2025C_exp1_detect,2022.2.4,59.83624017087449,
