contrast,ori,side,precue,trials.thisRepN,trials.thisTrialN,trials.thisN,trials.thisIndex,fix1.started,fix2.started,precue_2.started,precue_2.stopped,left_grating.started,right_grating.started,noise_left2.started,noise_right2.started,fix1.stopped,fix2.stopped,left_grating.stopped,right_grating.stopped,noise_left2.stopped,noise_right2.stopped,key_resp.started,fix1_2.started,fix2_2.started,key_resp.keys,key_resp.rt,key_resp_2.started,break_text_2.started,key_resp_2.keys,key_resp_2.rt,participant,session,date,expName,psychopyVersion,frameRate,
22.7,45,-1,0,0,0,0,3,16.492311199894175,16.492311199894175,16.970517299952917,17.03727849991992,17.096932099899277,17.096932099899277,17.096932099899277,17.096932099899277,17.137337899999693,17.137337899999693,17.137337899999693,17.137337899999693,17.137337899999693,17.137337899999693,17.154008899931796,17.154008899931796,17.154008899931796,right,2.3265039999969304,19.50642649992369,19.50642649992369,None,,16,001,2025-12-23_17h51.35.733,2025C_exp1_comp,2022.2.4,59.87665410133082,
35.3,45,-1,1,0,1,1,42,19.50642649992369,19.50642649992369,20.006962399929762,20.073775499942712,20.12395119993016,20.12395119993016,20.12395119993016,20.12395119993016,20.17368699994404,20.17368699994404,20.17368699994404,20.17368699994404,20.17368699994404,20.17368699994404,20.17368699994404,20.17368699994404,20.17368699994404,right,1.5389481000602245,21.741981699946336,21.741981699946336,None,,16,001,2025-12-23_17h51.35.733,2025C_exp1_comp,2022.2.4,59.87665410133082,
29.4,45,-1,-1,0,2,2,77,21.741981699946336,21.741981699946336,22.242550699971616,22.30923469993286,22.359608999919146,22.359608999919146,22.359608999919146,22.359608999919146,22.409354400006123,22.409354400006123,22.409354400006123,22.409354400006123,22.409354400006123,22.409354400006123,22.409354400006123,22.409354400006123,22.409354400006123,left,1.2711320000234991,23.71070639998652,23.71070639998652,None,,16,001,2025-12-23_17h51.35.733,2025C_exp1_comp,2022.2.4,59.87665410133082,
25.5,315,1,-1,0,3,3,103,23.71070639998652,23.71070639998652,24.211181099992245,24.277810500003397,24.328150099958293,24.328150099958293,24.328150099958293,24.328150099958293,24.377933699986897,24.377933699986897,24.377933699986897,24.377933699986897,24.377933699986897,24.377933699986897,24.377933699986897,24.377933699986897,24.377933699986897,left,0.8542079000035301,25.262154199997894,25.262154199997894,None,,16,001,2025-12-23_17h51.35.733,2025C_exp1_comp,2022.2.4,59.87665410133082,
15.7,315,-1,-1,0,4,4,82,25.262154199997894,25.262154199997894,25.762746399967,25.82944639993366,25.879929299931973,25.879929299931973,25.879929299931973,25.879929299931973,25.929524299921468,25.929524299921468,25.929524299921468,25.929524299921468,25.929524299921468,25.929524299921468,25.929524299921468,25.929524299921468,25.929524299921468,left,1.5747007000027224,27.531048199976794,27.531048199976794,None,,16,001,2025-12-23_17h51.35.733,2025C_exp1_comp,2022.2.4,59.87665410133082,
12.1,45,-1,-1,0,5,5,72,27.531048199976794,27.531048199976794,28.03161139995791,28.098265999928117,28.149127999902703,28.149127999902703,28.149127999902703,28.149127999902703,28.19847479998134,28.19847479998134,28.19847479998134,28.19847479998134,28.19847479998134,28.19847479998134,28.19847479998134,28.19847479998134,28.19847479998134,left,0.9460848000599071,29.166052999906242,29.166052999906242,None,,16,001,2025-12-23_17h51.35.733,2025C_exp1_comp,2022.2.4,59.87665410133082,
42.7,45,1,-1,0,6,6,98,29.166052999906242,29.166052999906242,29.666518099955283,29.73332669993397,29.78356059989892,29.78356059989892,29.78356059989892,29.78356059989892,29.83334259991534,29.83334259991534,29.83334259991534,29.83334259991534,29.83334259991534,29.83334259991534,29.83334259991534,29.83334259991534,29.83334259991534,right,1.0315205999650061,30.88449029996991,30.88449029996991,None,,16,001,2025-12-23_17h51.35.733,2025C_exp1_comp,2022.2.4,59.87665410133082,
35.3,315,1,1,0,7,7,69,30.88449029996991,30.88449029996991,31.384975099936128,31.451616999926046,31.50193709996529,31.50193709996529,31.50193709996529,31.50193709996529,31.55258249992039,31.55258249992039,31.55258249992039,31.55258249992039,31.55258249992039,31.55258249992039,31.55258249992039,31.55258249992039,31.55258249992039,right,1.5842286000261083,33.153387199970894,33.153387199970894,None,,16,001,2025-12-23_17h51.35.733,2025C_exp1_comp,2022.2.4,59.87665410133082,
25.5,315,-1,0,0,8,8,13,33.153387199970894,33.153387199970894,33.6539441999048,33.720725799910724,33.77095119992737,33.77095119992737,33.77095119992737,33.77095119992737,33.82075939991046,33.82075939991046,33.82075939991046,33.82075939991046,33.82075939991046,33.82075939991046,33.82075939991046,33.82075939991046,33.82075939991046,right,9.571840499993414,43.41359819995705,43.41359819995705,None,,16,001,2025-12-23_17h51.35.733,2025C_exp1_comp,2022.2.4,59.87665410133082,
42.7,315,-1,-1,0,9,9,89,43.41359819995705,43.41359819995705,43.914109899895266,43.98080719995778,44.03115259995684,44.03115259995684,44.03115259995684,44.03115259995684,44.08090359997004,44.08090359997004,44.08090359997004,44.08090359997004,44.08090359997004,44.08090359997004,44.08090359997004,44.08090359997004,44.08090359997004,left,1.311736400006339,45.415570299956016,45.415570299956016,None,,16,001,2025-12-23_17h51.35.733,2025C_exp1_comp,2022.2.4,59.87665410133082,
29.4,315,1,-1,0,10,10,104,45.415570299956016,45.415570299956016,45.91625639994163,45.98285089991987,46.03325729991775,46.03325729991775,46.03325729991775,46.03325729991775,46.08301629999187,46.08301629999187,46.08301629999187,46.08301629999187,46.08301629999187,46.08301629999187,46.08301629999187,46.08301629999187,46.08301629999187,left,0.7252288999734446,46.833671499975026,46.833671499975026,None,,16,001,2025-12-23_17h51.35.733,2025C_exp1_comp,2022.2.4,59.87665410133082,
12.1,315,1,0,0,11,11,27,46.833671499975026,46.833671499975026,47.334168699919246,47.40101429994684,47.45123819995206,47.45123819995206,47.45123819995206,47.45123819995206,47.50098159990739,47.50098159990739,47.50098159990739,47.50098159990739,47.50098159990739,47.50098159990739,47.50098159990739,47.50098159990739,47.50098159990739,left,0.7475146999349818,48.26842249999754,48.26842249999754,None,,16,001,2025-12-23_17h51.35.733,2025C_exp1_comp,2022.2.4,59.87665410133082,
39.2,45,-1,1,0,12,12,43,48.26842249999754,48.26842249999754,48.76900849991944,48.8356453999877,48.885978999896906,48.885978999896906,48.885978999896906,48.885978999896906,48.93577649991494,48.93577649991494,48.93577649991494,48.93577649991494,48.93577649991494,48.93577649991494,48.93577649991494,48.93577649991494,48.93577649991494,left,1.4252871999051422,50.38721839990467,50.38721839990467,None,,16,001,2025-12-23_17h51.35.733,2025C_exp1_comp,2022.2.4,59.87665410133082,
22.7,45,1,-1,0,13,13,93,50.38721839990467,50.38721839990467,50.88784809992649,50.95448670000769,51.00481419998687,51.00481419998687,51.00481419998687,51.00481419998687,51.05461110000033,51.05461110000033,51.05461110000033,51.05461110000033,51.05461110000033,51.05461110000033,51.05461110000033,51.05461110000033,51.05461110000033,left,0.7463743999833241,51.82198199990671,51.82198199990671,None,,16,001,2025-12-23_17h51.35.733,2025C_exp1_comp,2022.2.4,59.87665410133082,
15.7,315,-1,1,0,14,14,46,51.82198199990671,51.82198199990671,52.32254249998368,52.389304299955256,52.43959629989695,52.43959629989695,52.43959629989695,52.43959629989695,52.489398999954574,52.489398999954574,52.489398999954574,52.489398999954574,52.489398999954574,52.489398999954574,52.489398999954574,52.489398999954574,52.489398999954574,right,0.6707989000715315,53.190088099916466,53.190088099916466,None,,16,001,2025-12-23_17h51.35.733,2025C_exp1_comp,2022.2.4,59.87665410133082,
29.4,45,-1,1,0,15,15,41,53.190088099916466,53.190088099916466,53.69063549989369,53.75723919994198,53.80769849999342,53.80769849999342,53.80769849999342,53.80769849999342,53.857391999918036,53.857391999918036,53.857391999918036,53.857391999918036,53.857391999918036,53.857391999918036,53.857391999918036,53.857391999918036,53.857391999918036,right,1.343451099935919,55.225471399957314,55.225471399957314,None,,16,001,2025-12-23_17h51.35.733,2025C_exp1_comp,2022.2.4,59.87665410133082,
42.7,315,1,1,0,16,16,71,55.225471399957314,55.225471399957314,55.72600009990856,55.792602799949236,55.842902199947275,55.842902199947275,55.842902199947275,55.842902199947275,55.89270079997368,55.89270079997368,55.89270079997368,55.89270079997368,55.89270079997368,55.89270079997368,55.89270079997368,55.89270079997368,55.89270079997368,right,0.6115078000584617,56.52680229989346,56.52680229989346,None,,16,001,2025-12-23_17h51.35.733,2025C_exp1_comp,2022.2.4,59.87665410133082,
42.7,315,-1,0,0,17,17,17,56.52680229989346,56.52680229989346,57.02744529990014,57.09399339999072,57.1441940999357,57.1441940999357,57.1441940999357,57.1441940999357,57.19401330000255,57.19401330000255,57.19401330000255,57.19401330000255,57.19401330000255,57.19401330000255,57.19401330000255,57.19401330000255,57.19401330000255,right,0.6547219000058249,57.878013699897565,57.878013699897565,None,,16,001,2025-12-23_17h51.35.733,2025C_exp1_comp,2022.2.4,59.87665410133082,
19.6,45,1,1,0,18,18,56,57.878013699897565,57.878013699897565,58.37864919996355,58.44522719993256,58.49569699994754,58.49569699994754,58.49569699994754,58.49569699994754,58.54557560000103,58.54557560000103,58.54557560000103,58.54557560000103,58.54557560000103,58.54557560000103,58.54557560000103,58.54557560000103,58.54557560000103,left,0.5112716999137774,59.07940930000041,59.07940930000041,None,,16,001,2025-12-23_17h51.35.733,2025C_exp1_comp,2022.2.4,59.87665410133082,
22.7,45,1,1,0,19,19,57,59.07940930000041,59.07940930000041,59.57980069995392,59.64646590000484,59.69677139993291,59.69677139993291,59.69677139993291,59.69677139993291,59.74652980000246,59.74652980000246,59.74652980000246,59.74652980000246,59.74652980000246,59.74652980000246,59.74652980000246,59.74652980000246,59.74652980000246,left,0.574237099965103,60.34726819989737,60.34726819989737,None,,16,001,2025-12-23_17h51.35.733,2025C_exp1_comp,2022.2.4,59.87665410133082,
39.2,45,-1,0,0,20,20,7,60.34726819989737,60.34726819989737,60.847741499892436,60.91444550000597,60.964914099895395,60.964914099895395,60.964914099895395,60.964914099895395,61.01457409991417,61.01457409991417,61.01457409991417,61.01457409991417,61.01457409991417,61.01457409991417,61.01457409991417,61.01457409991417,61.01457409991417,left,0.48236049991101027,61.51530379999895,61.51530379999895,None,,16,001,2025-12-23_17h51.35.733,2025C_exp1_comp,2022.2.4,59.87665410133082,
29.4,45,1,0,0,21,21,23,61.51530379999895,61.51530379999895,62.01548899989575,62.08228129998315,62.13252139999531,62.13252139999531,62.13252139999531,62.13252139999531,62.18239869992249,62.18239869992249,62.18239869992249,62.18239869992249,62.18239869992249,62.18239869992249,62.18239869992249,62.18239869992249,62.18239869992249,left,0.474336399929598,62.68280749989208,62.68280749989208,None,,16,001,2025-12-23_17h51.35.733,2025C_exp1_comp,2022.2.4,59.87665410133082,
39.2,315,-1,-1,0,22,22,88,62.68280749989208,62.68280749989208,63.18341579998378,63.250043499981984,63.30034789990168,63.30034789990168,63.30034789990168,63.30034789990168,63.350223999936134,63.350223999936134,63.350223999936134,63.350223999936134,63.350223999936134,63.350223999936134,63.350223999936134,63.350223999936134,63.350223999936134,left,0.44231360009871423,63.81729249993805,63.81729249993805,None,,16,001,2025-12-23_17h51.35.733,2025C_exp1_comp,2022.2.4,59.87665410133082,
22.7,315,-1,-1,0,23,23,84,63.81729249993805,63.81729249993805,64.31791109999176,64.38462619995698,64.43496769992635,64.43496769992635,64.43496769992635,64.43496769992635,64.48472309997305,64.48472309997305,64.48472309997305,64.48472309997305,64.48472309997305,64.48472309997305,64.48472309997305,64.48472309997305,64.48472309997305,left,0.6039556000614539,65.11870579991955,65.11870579991955,None,,16,001,2025-12-23_17h51.35.733,2025C_exp1_comp,2022.2.4,59.87665410133082,
19.6,315,-1,-1,0,24,24,83,65.11870579991955,65.11870579991955,65.61913459992502,65.68590629997198,65.73622809990775,65.73622809990775,65.73622809990775,65.73622809990775,65.78710669989232,65.78710669989232,65.78710669989232,65.78710669989232,65.78710669989232,65.78710669989232,65.78710669989232,65.78710669989232,65.78710669989232,left,0.5332267000339925,66.35316369996872,66.35316369996872,None,,16,001,2025-12-23_17h51.35.733,2025C_exp1_comp,2022.2.4,59.87665410133082,
22.7,45,-1,1,0,25,25,39,66.35316369996872,66.35316369996872,66.85377909999806,66.92057139996905,66.97075979993679,66.97075979993679,66.97075979993679,66.97075979993679,67.02048379997723,67.02048379997723,67.02048379997723,67.02048379997723,67.02048379997723,67.02048379997723,67.02048379997723,67.02048379997723,67.02048379997723,right,0.6998026999644935,67.737969199894,67.737969199894,None,,16,001,2025-12-23_17h51.35.733,2025C_exp1_comp,2022.2.4,59.87665410133082,
12.1,45,-1,0,0,26,26,0,67.737969199894,67.737969199894,68.23838100000285,68.30509959999472,68.35541219997685,68.35541219997685,68.35541219997685,68.35541219997685,68.40520579996519,68.40520579996519,68.40520579996519,68.40520579996519,68.40520579996519,68.40520579996519,68.40520579996519,68.40520579996519,68.40520579996519,right,0.5236007000785321,68.95579369994812,68.95579369994812,None,,16,001,2025-12-23_17h51.35.733,2025C_exp1_comp,2022.2.4,59.87665410133082,
35.3,315,-1,1,0,27,27,51,68.95579369994812,68.95579369994812,69.4563869999256,69.52302480000071,69.57327999989502,69.57327999989502,69.57327999989502,69.57327999989502,69.62308889999986,69.62308889999986,69.62308889999986,69.62308889999986,69.62308889999986,69.62308889999986,69.62308889999986,69.62308889999986,69.62308889999986,right,0.5213995999656618,70.17368669994175,70.17368669994175,None,,16,001,2025-12-23_17h51.35.733,2025C_exp1_comp,2022.2.4,59.87665410133082,
35.3,315,1,-1,0,28,28,105,70.17368669994175,70.17368669994175,70.67421809991356,70.74099129997194,70.7912680999143,70.7912680999143,70.7912680999143,70.7912680999143,70.84125830000266,70.84125830000266,70.84125830000266,70.84125830000266,70.84125830000266,70.84125830000266,70.84125830000266,70.84125830000266,70.84125830000266,right,0.4796387000242248,71.34156649990473,71.34156649990473,None,,16,001,2025-12-23_17h51.35.733,2025C_exp1_comp,2022.2.4,59.87665410133082,
42.7,45,1,0,0,29,29,26,71.34156649990473,71.34156649990473,71.84202469990123,71.90871389990207,71.95905219996348,71.95905219996348,71.95905219996348,71.95905219996348,72.0088341999799,72.0088341999799,72.0088341999799,72.0088341999799,72.0088341999799,72.0088341999799,72.0088341999799,72.0088341999799,72.0088341999799,right,0.5032565000001341,72.54276039998513,72.54276039998513,None,,16,001,2025-12-23_17h51.35.733,2025C_exp1_comp,2022.2.4,59.87665410133082,
12.1,45,1,0,0,30,30,18,72.54276039998513,72.54276039998513,73.04319080000278,73.10994239989668,73.16072869999334,73.16072869999334,73.16072869999334,73.16072869999334,73.21014340000693,73.21014340000693,73.21014340000693,73.21014340000693,73.21014340000693,73.21014340000693,73.21014340000693,73.21014340000693,73.21014340000693,left,0.6785651999525726,73.91087889997289,73.91087889997289,None,,16,001,2025-12-23_17h51.35.733,2025C_exp1_comp,2022.2.4,59.87665410133082,
25.5,45,-1,0,0,31,31,4,73.91087889997289,73.91087889997289,74.41121039993595,74.47805629996583,74.52869700000156,74.52869700000156,74.52869700000156,74.52869700000156,74.5780400999356,74.5780400999356,74.5780400999356,74.5780400999356,74.5780400999356,74.5780400999356,74.5780400999356,74.5780400999356,74.5780400999356,right,0.6062099998816848,75.21200279996265,75.21200279996265,None,,16,001,2025-12-23_17h51.35.733,2025C_exp1_comp,2022.2.4,59.87665410133082,
29.4,45,1,-1,0,32,32,95,75.21200279996265,75.21200279996265,75.71254689991474,75.77924059994984,75.82960709999315,75.82960709999315,75.82960709999315,75.82960709999315,75.87966559990309,75.87966559990309,75.87966559990309,75.87966559990309,75.87966559990309,75.87966559990309,75.87966559990309,75.87966559990309,75.87966559990309,left,0.49711539992131293,76.3965611999156,76.3965611999156,None,,16,001,2025-12-23_17h51.35.733,2025C_exp1_comp,2022.2.4,59.87665410133082,
25.5,45,1,1,0,33,33,58,76.3965611999156,76.3965611999156,76.89708869997412,76.9637836999027,77.0140764999669,77.0140764999669,77.0140764999669,77.0140764999669,77.06400649994612,77.06400649994612,77.06400649994612,77.06400649994612,77.06400649994612,77.06400649994612,77.06400649994612,77.06400649994612,77.06400649994612,right,0.43260619998909533,77.51443749992177,77.51443749992177,None,,16,001,2025-12-23_17h51.35.733,2025C_exp1_comp,2022.2.4,59.87665410133082,
12.1,315,-1,-1,0,34,34,81,77.51443749992177,77.51443749992177,78.01481809990946,78.08167049998883,78.1325974999927,78.1325974999927,78.1325974999927,78.1325974999927,78.1816819999367,78.1816819999367,78.1816819999367,78.1816819999367,78.1816819999367,78.1816819999367,78.1816819999367,78.1816819999367,78.1816819999367,right,0.5709395998856053,78.78229949995875,78.78229949995875,None,,16,001,2025-12-23_17h51.35.733,2025C_exp1_comp,2022.2.4,59.87665410133082,
29.4,315,-1,1,0,35,35,50,78.78229949995875,78.78229949995875,79.28282510000281,79.34949849999975,79.39979920000769,79.39979920000769,79.39979920000769,79.39979920000769,79.44956529990304,79.44956529990304,79.44956529990304,79.44956529990304,79.44956529990304,79.44956529990304,79.44956529990304,79.44956529990304,79.44956529990304,right,0.5745320999994874,80.05019539990462,80.05019539990462,None,,16,001,2025-12-23_17h51.35.733,2025C_exp1_comp,2022.2.4,59.87665410133082,
29.4,315,-1,-1,0,36,36,86,80.05019539990462,80.05019539990462,80.55074769991916,80.61744969990104,80.66777579998598,80.66777579998598,80.66777579998598,80.66777579998598,80.71757139998954,80.71757139998954,80.71757139998954,80.71757139998954,80.71757139998954,80.71757139998954,80.71757139998954,80.71757139998954,80.71757139998954,right,0.7708601000485942,81.51833150000311,81.51833150000311,None,,16,001,2025-12-23_17h51.35.733,2025C_exp1_comp,2022.2.4,59.87665410133082,
29.4,315,1,1,0,37,37,68,81.51833150000311,81.51833150000311,82.01885039999615,82.08557899994776,82.13583239994477,82.13583239994477,82.13583239994477,82.13583239994477,82.18568699993193,82.18568699993193,82.18568699993193,82.18568699993193,82.18568699993193,82.18568699993193,82.18568699993193,82.18568699993193,82.18568699993193,right,0.5267396999988705,82.73622809990775,82.73622809990775,None,,16,001,2025-12-23_17h51.35.733,2025C_exp1_comp,2022.2.4,59.87665410133082,
42.7,45,-1,-1,0,38,38,80,82.73622809990775,82.73622809990775,83.23673509992659,83.30345189990476,83.35377749998588,83.35377749998588,83.35377749998588,83.35377749998588,83.40355349995662,83.40355349995662,83.40355349995662,83.40355349995662,83.40355349995662,83.40355349995662,83.40355349995662,83.40355349995662,83.40355349995662,left,0.6291157000232488,84.05428419995587,84.05428419995587,None,,16,001,2025-12-23_17h51.35.733,2025C_exp1_comp,2022.2.4,59.87665410133082,
22.7,315,1,1,0,39,39,66,84.05428419995587,84.05428419995587,84.55468840000685,84.62139290000778,84.67171939997934,84.67171939997934,84.67171939997934,84.67171939997934,84.72155969997402,84.72155969997402,84.72155969997402,84.72155969997402,84.72155969997402,84.72155969997402,84.72155969997402,84.72155969997402,84.72155969997402,left,0.7034505000337958,85.45560339989606,85.45560339989606,None,,16,001,2025-12-23_17h51.35.733,2025C_exp1_comp,2022.2.4,59.87665410133082,
19.6,315,-1,1,0,40,40,47,85.45560339989606,85.45560339989606,85.95612759992946,86.02285589999519,86.07312479999382,86.07312479999382,86.07312479999382,86.07312479999382,86.12295359990094,86.12295359990094,86.12295359990094,86.12295359990094,86.12295359990094,86.12295359990094,86.12295359990094,86.12295359990094,86.12295359990094,right,0.566025499952957,86.70686229993589,86.70686229993589,None,,16,001,2025-12-23_17h51.35.733,2025C_exp1_comp,2022.2.4,59.87665410133082,
19.6,315,-1,0,0,41,41,11,86.70686229993589,86.70686229993589,87.20745059999172,87.27420599991456,87.3243397999322,87.3243397999322,87.3243397999322,87.3243397999322,87.37415709998459,87.37415709998459,87.37415709998459,87.37415709998459,87.37415709998459,87.37415709998459,87.37415709998459,87.37415709998459,87.37415709998459,right,0.9783855000277981,88.37525599997025,88.37525599997025,None,,16,001,2025-12-23_17h51.35.733,2025C_exp1_comp,2022.2.4,59.87665410133082,
19.6,45,-1,1,0,42,42,38,88.37525599997025,88.37525599997025,88.87581030000001,88.94237720000092,88.99303229991347,88.99303229991347,88.99303229991347,88.99303229991347,89.04259019996971,89.04259019996971,89.04259019996971,89.04259019996971,89.04259019996971,89.04259019996971,89.04259019996971,89.04259019996971,89.04259019996971,right,1.1659023000393063,90.22702449990902,90.22702449990902,None,,16,001,2025-12-23_17h51.35.733,2025C_exp1_comp,2022.2.4,59.87665410133082,
15.7,45,-1,-1,0,43,43,73,90.22702449990902,90.22702449990902,90.7275554999942,90.79422939999495,90.84464799996931,90.84464799996931,90.84464799996931,90.84464799996931,90.89442629995756,90.89442629995756,90.89442629995756,90.89442629995756,90.89442629995756,90.89442629995756,90.89442629995756,90.89442629995756,90.89442629995756,right,1.0671516000293195,91.97924529993907,91.97924529993907,None,,16,001,2025-12-23_17h51.35.733,2025C_exp1_comp,2022.2.4,59.87665410133082,
12.1,315,-1,1,0,44,44,45,91.97924529993907,91.97924529993907,92.47973569994792,92.5463256998919,92.59659319999628,92.59659319999628,92.59659319999628,92.59659319999628,92.64628759992775,92.64628759992775,92.64628759992775,92.64628759992775,92.64628759992775,92.64628759992775,92.64628759992775,92.64628759992775,92.64628759992775,right,0.6824390001129359,93.34699329989962,93.34699329989962,None,,16,001,2025-12-23_17h51.35.733,2025C_exp1_comp,2022.2.4,59.87665410133082,
19.6,315,1,1,0,45,45,65,93.34699329989962,93.34699329989962,93.84764179994818,93.91433860000689,93.96465669991449,93.96465669991449,93.96465669991449,93.96465669991449,94.01444499997888,94.01444499997888,94.01444499997888,94.01444499997888,94.01444499997888,94.01444499997888,94.01444499997888,94.01444499997888,94.01444499997888,left,0.6347951999632642,94.68168689997401,94.68168689997401,None,,16,001,2025-12-23_17h51.35.733,2025C_exp1_comp,2022.2.4,59.87665410133082,
15.7,315,1,-1,0,46,46,100,94.68168689997401,94.68168689997401,95.18230529990979,95.24896409991197,95.29923099989537,95.29923099989537,95.29923099989537,95.29923099989537,95.34904439991806,95.34904439991806,95.34904439991806,95.34904439991806,95.34904439991806,95.34904439991806,95.34904439991806,95.34904439991806,95.34904439991806,left,0.5712915000040084,95.94971919991076,95.94971919991076,None,,16,001,2025-12-23_17h51.35.733,2025C_exp1_comp,2022.2.4,59.87665410133082,
25.5,315,1,1,0,47,47,67,95.94971919991076,95.94971919991076,96.45017919992097,96.5168344998965,96.5672783999471,96.5672783999471,96.5672783999471,96.5672783999471,96.61692059994675,96.61692059994675,96.61692059994675,96.61692059994675,96.61692059994675,96.61692059994675,96.61692059994675,96.61692059994675,96.61692059994675,left,0.5925625000381842,97.23449239996262,97.23449239996262,None,,16,001,2025-12-23_17h51.35.733,2025C_exp1_comp,2022.2.4,59.87665410133082,
35.3,45,1,1,0,48,48,60,97.23449239996262,97.23449239996262,97.73483929992653,97.80144209996797,97.85183889989275,97.85183889989275,97.85183889989275,97.85183889989275,97.90165769995656,97.90165769995656,97.90165769995656,97.90165769995656,97.90165769995656,97.90165769995656,97.90165769995656,97.90165769995656,97.90165769995656,left,0.6825406999560073,98.6022938999813,98.6022938999813,None,,16,001,2025-12-23_17h51.35.733,2025C_exp1_comp,2022.2.4,59.87665410133082,
15.7,45,1,1,0,49,49,55,98.6022938999813,98.6022938999813,99.10291709995363,99.1694845999591,99.2198999999091,99.2198999999091,99.2198999999091,99.2198999999091,99.26956209994387,99.26956209994387,99.26956209994387,99.26956209994387,99.26956209994387,99.26956209994387,99.26956209994387,99.26956209994387,99.26956209994387,left,0.6036697999807075,99.90368549991399,99.90368549991399,None,,16,001,2025-12-23_17h51.35.733,2025C_exp1_comp,2022.2.4,59.87665410133082,
29.4,315,-1,0,0,50,50,14,99.90368549991399,99.90368549991399,100.40405719995033,100.4708725999808,100.52117889991496,100.52117889991496,100.52117889991496,100.52117889991496,100.57095039996784,100.57095039996784,100.57095039996784,100.57095039996784,100.57095039996784,100.57095039996784,100.57095039996784,100.57095039996784,100.57095039996784,right,0.5501660000300035,101.13802049995866,101.13802049995866,None,,16,001,2025-12-23_17h51.35.733,2025C_exp1_comp,2022.2.4,59.87665410133082,
42.7,45,1,1,0,51,51,62,101.13802049995866,101.13802049995866,101.63876869995147,101.7054358999012,101.75574619998224,101.75574619998224,101.75574619998224,101.75574619998224,101.80557969992515,101.80557969992515,101.80557969992515,101.80557969992515,101.80557969992515,101.80557969992515,101.80557969992515,101.80557969992515,101.80557969992515,left,0.6748543999856338,102.50627089990303,102.50627089990303,None,,16,001,2025-12-23_17h51.35.733,2025C_exp1_comp,2022.2.4,59.87665410133082,
39.2,315,-1,1,0,52,52,52,102.50627089990303,102.50627089990303,103.00679469993338,103.07337120000739,103.123775199987,103.123775199987,103.123775199987,103.123775199987,103.17329429998063,103.17329429998063,103.17329429998063,103.17329429998063,103.17329429998063,103.17329429998063,103.17329429998063,103.17329429998063,103.17329429998063,right,0.5882442999863997,103.79067159991246,103.79067159991246,None,,16,001,2025-12-23_17h51.35.733,2025C_exp1_comp,2022.2.4,59.87665410133082,
15.7,45,1,0,0,53,53,19,103.79067159991246,103.79067159991246,104.29123819991946,104.35802929999772,104.40823969990015,104.40823969990015,104.40823969990015,104.40823969990015,104.4582029999001,104.4582029999001,104.4582029999001,104.4582029999001,104.4582029999001,104.4582029999001,104.4582029999001,104.4582029999001,104.4582029999001,left,0.4951953999698162,104.97524909989443,104.97524909989443,None,,16,001,2025-12-23_17h51.35.733,2025C_exp1_comp,2022.2.4,59.87665410133082,
35.3,315,-1,-1,0,54,54,87,104.97524909989443,104.97524909989443,105.47585359995719,105.54270109999925,105.59297989995684,105.59297989995684,105.59297989995684,105.59297989995684,105.64273779990617,105.64273779990617,105.64273779990617,105.64273779990617,105.64273779990617,105.64273779990617,105.64273779990617,105.64273779990617,105.64273779990617,right,0.6857692000921816,106.36000220000278,106.36000220000278,None,,16,001,2025-12-23_17h51.35.733,2025C_exp1_comp,2022.2.4,59.87665410133082,
19.6,315,1,-1,0,55,55,101,106.36000220000278,106.36000220000278,106.86063119990285,106.92733400000725,106.97779539995827,106.97779539995827,106.97779539995827,106.97779539995827,107.02750329999253,107.02750329999253,107.02750329999253,107.02750329999253,107.02750329999253,107.02750329999253,107.02750329999253,107.02750329999253,107.02750329999253,left,0.41329099994618446,107.4614533999702,107.4614533999702,None,,16,001,2025-12-23_17h51.35.733,2025C_exp1_comp,2022.2.4,59.87665410133082,
25.5,45,1,-1,0,56,56,94,107.4614533999702,107.4614533999702,107.96176209999248,108.0283172999043,108.07864459999837,108.07864459999837,108.07864459999837,108.07864459999837,108.12860279995948,108.12860279995948,108.12860279995948,108.12860279995948,108.12860279995948,108.12860279995948,108.12860279995948,108.12860279995948,108.12860279995948,left,0.32796450005844235,108.47885469999164,108.47885469999164,None,,16,001,2025-12-23_17h51.35.733,2025C_exp1_comp,2022.2.4,59.87665410133082,
19.6,315,1,0,0,57,57,29,108.47885469999164,108.47885469999164,108.97936589992605,109.04613539995626,109.09642949991394,109.09642949991394,109.09642949991394,109.09642949991394,109.14604039990809,109.14604039990809,109.14604039990809,109.14604039990809,109.14604039990809,109.14604039990809,109.14604039990809,109.14604039990809,109.14604039990809,left,0.3991704999934882,109.56331399991177,109.56331399991177,None,,16,001,2025-12-23_17h51.35.733,2025C_exp1_comp,2022.2.4,59.87665410133082,
29.4,45,-1,0,0,58,58,5,109.56331399991177,109.56331399991177,110.06380969996098,110.13044399989303,110.18085529992823,110.18085529992823,110.18085529992823,110.18085529992823,110.23051979998127,110.23051979998127,110.23051979998127,110.23051979998127,110.23051979998127,110.23051979998127,110.23051979998127,110.23051979998127,110.23051979998127,left,0.30689519993029535,110.56430839991663,110.56430839991663,None,,16,001,2025-12-23_17h51.35.733,2025C_exp1_comp,2022.2.4,59.87665410133082,
15.7,45,-1,0,0,59,59,1,110.56430839991663,110.56430839991663,111.06482319999486,111.13150389993098,111.18183889996726,111.18183889996726,111.18183889996726,111.18183889996726,111.23163019993808,111.23163019993808,111.23163019993808,111.23163019993808,111.23163019993808,111.23163019993808,111.23163019993808,111.23163019993808,111.23163019993808,left,0.32928190007805824,111.58201939996798,111.58201939996798,None,,16,001,2025-12-23_17h51.35.733,2025C_exp1_comp,2022.2.4,59.87665410133082,
12.1,315,1,-1,0,60,60,99,111.58201939996798,111.58201939996798,112.0824803999858,112.14921099995263,112.19951979990583,112.19951979990583,112.19951979990583,112.19951979990583,112.24931809992995,112.24931809992995,112.24931809992995,112.24931809992995,112.24931809992995,112.24931809992995,112.24931809992995,112.24931809992995,112.24931809992995,left,0.40696749999187887,112.68304169992916,112.68304169992916,None,,16,001,2025-12-23_17h51.35.733,2025C_exp1_comp,2022.2.4,59.87665410133082,
35.3,45,-1,-1,0,61,61,78,112.68304169992916,112.68304169992916,113.183602499892,113.25028959999327,113.3005938999122,113.3005938999122,113.3005938999122,113.3005938999122,113.35040559992194,113.35040559992194,113.35040559992194,113.35040559992194,113.35040559992194,113.35040559992194,113.35040559992194,113.35040559992194,113.35040559992194,left,0.30678240000270307,113.68408579996321,113.68408579996321,None,,16,001,2025-12-23_17h51.35.733,2025C_exp1_comp,2022.2.4,59.87665410133082,
42.7,45,-1,1,0,62,62,44,113.68408579996321,113.68408579996321,114.18489319994114,114.25156789994799,114.30174439994153,114.30174439994153,114.30174439994153,114.30174439994153,114.35130149999168,114.35130149999168,114.35130149999168,114.35130149999168,114.35130149999168,114.35130149999168,114.35130149999168,114.35130149999168,114.35130149999168,left,0.3460975999478251,114.71847139997408,114.71847139997408,None,,16,001,2025-12-23_17h51.35.733,2025C_exp1_comp,2022.2.4,59.87665410133082,
25.5,315,1,0,0,63,63,31,114.71847139997408,114.71847139997408,115.21883369993884,115.28558859997429,115.33601349999662,115.33601349999662,115.33601349999662,115.33601349999662,115.38579529989511,115.38579529989511,115.38579529989511,115.38579529989511,115.38579529989511,115.38579529989511,115.38579529989511,115.38579529989511,115.38579529989511,left,0.4546475000679493,115.8694670998957,115.8694670998957,None,,16,001,2025-12-23_17h51.35.733,2025C_exp1_comp,2022.2.4,59.87665410133082,
35.3,45,1,-1,0,64,64,96,115.8694670998957,115.8694670998957,116.37002019991633,116.43686899996828,116.48714039998595,116.48714039998595,116.48714039998595,116.48714039998595,116.536958499928,116.536958499928,116.536958499928,116.536958499928,116.536958499928,116.536958499928,116.536958499928,116.536958499928,116.536958499928,left,0.28033880004659295,116.83712699997704,116.83712699997704,None,,16,001,2025-12-23_17h51.35.733,2025C_exp1_comp,2022.2.4,59.87665410133082,
22.7,45,1,0,0,65,65,21,116.83712699997704,116.83712699997704,117.33774469990749,117.40435629989952,117.45480419998057,117.45480419998057,117.45480419998057,117.45480419998057,117.5044554999331,117.5044554999331,117.5044554999331,117.5044554999331,117.5044554999331,117.5044554999331,117.5044554999331,117.5044554999331,117.5044554999331,left,0.609506200067699,118.13884369994048,118.13884369994048,None,,16,001,2025-12-23_17h51.35.733,2025C_exp1_comp,2022.2.4,59.87665410133082,
25.5,315,-1,1,0,66,66,49,118.13884369994048,118.13884369994048,118.63886169996113,118.70578039996326,118.75597329996526,118.75597329996526,118.75597329996526,118.75597329996526,118.80573809996713,118.80573809996713,118.80573809996713,118.80573809996713,118.80573809996713,118.80573809996713,118.80573809996713,118.80573809996713,118.80573809996713,left,0.2986041000112891,119.12276860000566,119.12276860000566,None,,16,001,2025-12-23_17h51.35.733,2025C_exp1_comp,2022.2.4,59.87665410133082,
35.3,315,1,0,0,67,67,33,119.12276860000566,119.12276860000566,119.6234025999438,119.69007349992171,119.74040499993134,119.74040499993134,119.74040499993134,119.74040499993134,119.79015499993693,119.79015499993693,119.79015499993693,119.79015499993693,119.79015499993693,119.79015499993693,119.79015499993693,119.79015499993693,119.79015499993693,right,0.41147060005459934,120.22398939996492,120.22398939996492,None,,16,001,2025-12-23_17h51.35.733,2025C_exp1_comp,2022.2.4,59.87665410133082,
19.6,45,-1,-1,0,68,68,74,120.22398939996492,120.22398939996492,120.72457129997201,120.79114299989305,120.84152059990447,120.84152059990447,120.84152059990447,120.84152059990447,120.89132629998494,120.89132629998494,120.89132629998494,120.89132629998494,120.89132629998494,120.89132629998494,120.89132629998494,120.89132629998494,120.89132629998494,left,0.19781919999513775,121.10809579992201,121.10809579992201,None,,16,001,2025-12-23_17h51.35.733,2025C_exp1_comp,2022.2.4,59.87665410133082,
39.2,45,-1,-1,0,69,69,79,121.10809579992201,121.10809579992201,121.60870439989958,121.67546239995863,121.72578280000016,121.72578280000016,121.72578280000016,121.72578280000016,121.775555399945,121.775555399945,121.775555399945,121.775555399945,121.775555399945,121.775555399945,121.775555399945,121.775555399945,121.775555399945,right,0.546115699922666,122.34274329990149,122.34274329990149,None,,16,001,2025-12-23_17h51.35.733,2025C_exp1_comp,2022.2.4,59.87665410133082,
15.7,315,-1,0,0,70,70,10,122.34274329990149,122.34274329990149,122.8432358999271,122.9098454999039,122.96025689993985,122.96025689993985,122.96025689993985,122.96025689993985,123.01005649997387,123.01005649997387,123.01005649997387,123.01005649997387,123.01005649997387,123.01005649997387,123.01005649997387,123.01005649997387,123.01005649997387,right,0.7902905000373721,123.82755869999528,123.82755869999528,None,,16,001,2025-12-23_17h51.35.733,2025C_exp1_comp,2022.2.4,59.87665410133082,
25.5,45,-1,-1,0,71,71,76,123.82755869999528,123.82755869999528,124.32806139998138,124.39471429993864,124.4449949999107,124.4449949999107,124.4449949999107,124.4449949999107,124.49491939996369,124.49491939996369,124.49491939996369,124.49491939996369,124.49491939996369,124.49491939996369,124.49491939996369,124.49491939996369,124.49491939996369,right,0.5863863999256864,125.11217109998688,125.11217109998688,None,,16,001,2025-12-23_17h51.35.733,2025C_exp1_comp,2022.2.4,59.87665410133082,
25.5,45,1,0,0,72,72,22,125.11217109998688,125.11217109998688,125.61286100000143,125.67946829996072,125.72981509997044,125.72981509997044,125.72981509997044,125.72981509997044,125.77953199995682,125.77953199995682,125.77953199995682,125.77953199995682,125.77953199995682,125.77953199995682,125.77953199995682,125.77953199995682,125.77953199995682,left,0.5648419999051839,126.36339889990631,126.36339889990631,None,,16,001,2025-12-23_17h51.35.733,2025C_exp1_comp,2022.2.4,59.87665410133082,
19.6,45,1,0,0,73,73,20,126.36339889990631,126.36339889990631,126.86395699996501,126.93077629990876,126.9810668999562,126.9810668999562,126.9810668999562,126.9810668999562,127.03088579990435,127.03088579990435,127.03088579990435,127.03088579990435,127.03088579990435,127.03088579990435,127.03088579990435,127.03088579990435,127.03088579990435,left,0.6096628999803215,127.6648088999791,127.6648088999791,None,,16,001,2025-12-23_17h51.35.733,2025C_exp1_comp,2022.2.4,59.87665410133082,
42.7,315,1,-1,0,74,74,107,127.6648088999791,127.6648088999791,128.16521139990073,128.2316588999238,128.28193189995363,128.28193189995363,128.28193189995363,128.28193189995363,128.3320443999255,128.3320443999255,128.3320443999255,128.3320443999255,128.3320443999255,128.3320443999255,128.3320443999255,128.3320443999255,128.3320443999255,right,0.4606565000722185,128.81602629995905,128.81602629995905,None,,16,001,2025-12-23_17h51.35.733,2025C_exp1_comp,2022.2.4,59.87665410133082,
22.7,315,1,0,0,75,75,30,128.81602629995905,128.81602629995905,129.3163835000014,129.38302269997075,129.4334120999556,129.4334120999556,129.4334120999556,129.4334120999556,129.48318629991263,129.48318629991263,129.48318629991263,129.48318629991263,129.48318629991263,129.48318629991263,129.48318629991263,129.48318629991263,129.48318629991263,left,0.7253133999183774,130.23394269996788,130.23394269996788,None,,16,001,2025-12-23_17h51.35.733,2025C_exp1_comp,2022.2.4,59.87665410133082,
19.6,45,1,-1,0,76,76,92,130.23394269996788,130.23394269996788,130.73447649995796,130.80119549995288,130.85146659996826,130.85146659996826,130.85146659996826,130.85146659996826,130.90128279989585,130.90128279989585,130.90128279989585,130.90128279989585,130.90128279989585,130.90128279989585,130.90128279989585,130.90128279989585,130.90128279989585,left,0.8920896999770775,131.81888859998435,131.81888859998435,None,,16,001,2025-12-23_17h51.35.733,2025C_exp1_comp,2022.2.4,59.87665410133082,
22.7,45,-1,-1,0,77,77,75,131.81888859998435,131.81888859998435,132.31913699989673,132.38588429999072,132.4361219999846,132.4361219999846,132.4361219999846,132.4361219999846,132.48586399992928,132.48586399992928,132.48586399992928,132.48586399992928,132.48586399992928,132.48586399992928,132.48586399992928,132.48586399992928,132.48586399992928,right,0.47472419997211546,132.9866504999809,132.9866504999809,None,,16,001,2025-12-23_17h51.35.733,2025C_exp1_comp,2022.2.4,59.87665410133082,
39.2,315,1,1,0,78,78,70,132.9866504999809,132.9866504999809,133.48725239990745,133.55396169994492,133.60427119990345,133.60427119990345,133.60427119990345,133.60427119990345,133.65408009989187,133.65408009989187,133.65408009989187,133.65408009989187,133.65408009989187,133.65408009989187,133.65408009989187,133.65408009989187,133.65408009989187,right,0.9797441000118852,134.6553159999894,134.6553159999894,None,,16,001,2025-12-23_17h51.35.733,2025C_exp1_comp,2022.2.4,59.87665410133082,
12.1,315,-1,0,0,79,79,9,134.6553159999894,134.6553159999894,135.15538859996013,135.22245449991897,135.2726387999719,135.2726387999719,135.2726387999719,135.2726387999719,135.32248969993088,135.32248969993088,135.32248969993088,135.32248969993088,135.32248969993088,135.32248969993088,135.32248969993088,135.32248969993088,135.32248969993088,right,0.5017700999742374,135.85626359994058,135.85626359994058,None,,16,001,2025-12-23_17h51.35.733,2025C_exp1_comp,2022.2.4,59.87665410133082,
39.2,45,1,1,0,80,80,61,135.85626359994058,135.85626359994058,136.3567897999892,136.4233949999325,136.47371739998925,136.47371739998925,136.47371739998925,136.47371739998925,136.52360709989443,136.52360709989443,136.52360709989443,136.52360709989443,136.52360709989443,136.52360709989443,136.52360709989443,136.52360709989443,136.52360709989443,right,0.6772000000346452,137.22426249994896,137.22426249994896,None,,16,001,2025-12-23_17h51.35.733,2025C_exp1_comp,2022.2.4,59.87665410133082,
39.2,315,1,0,0,81,81,34,137.22426249994896,137.22426249994896,137.72473519993946,137.79137789993547,137.84173200000077,137.84173200000077,137.84173200000077,137.84173200000077,137.89145299990196,137.89145299990196,137.89145299990196,137.89145299990196,137.89145299990196,137.89145299990196,137.89145299990196,137.89145299990196,137.89145299990196,right,0.7728593999054283,138.6921197999036,138.6921197999036,None,,16,001,2025-12-23_17h51.35.733,2025C_exp1_comp,2022.2.4,59.87665410133082,
15.7,45,1,-1,0,82,82,91,138.6921197999036,138.6921197999036,139.1929060999537,139.25961559999269,139.3099129999755,139.3099129999755,139.3099129999755,139.3099129999755,139.3597161999205,139.3597161999205,139.3597161999205,139.3597161999205,139.3597161999205,139.3597161999205,139.3597161999205,139.3597161999205,139.3597161999205,left,0.8886566999135539,140.27735190000385,140.27735190000385,None,,16,001,2025-12-23_17h51.35.733,2025C_exp1_comp,2022.2.4,59.87665410133082,
12.1,45,-1,1,0,83,83,36,140.27735190000385,140.27735190000385,140.7777977999067,140.84483359998558,140.89501519990154,140.89501519990154,140.89501519990154,140.89501519990154,140.9447890999727,140.9447890999727,140.9447890999727,140.9447890999727,140.9447890999727,140.9447890999727,140.9447890999727,140.9447890999727,140.9447890999727,right,0.47255929990205914,141.4450493999757,141.4450493999757,None,,16,001,2025-12-23_17h51.35.733,2025C_exp1_comp,2022.2.4,59.87665410133082,
15.7,45,-1,1,0,84,84,37,141.4450493999757,141.4450493999757,141.94569599989336,142.01241199998185,142.06252029992174,142.06252029992174,142.06252029992174,142.06252029992174,142.11233419994824,142.11233419994824,142.11233419994824,142.11233419994824,142.11233419994824,142.11233419994824,142.11233419994824,142.11233419994824,142.11233419994824,right,0.6091177000198513,142.7464395998977,142.7464395998977,None,,16,001,2025-12-23_17h51.35.733,2025C_exp1_comp,2022.2.4,59.87665410133082,
15.7,315,1,0,0,85,85,28,142.7464395998977,142.7464395998977,143.24689879990183,143.31365849997383,143.3639753999887,143.3639753999887,143.3639753999887,143.3639753999887,143.41377240000293,143.41377240000293,143.41377240000293,143.41377240000293,143.41377240000293,143.41377240000293,143.41377240000293,143.41377240000293,143.41377240000293,left,0.4593961000209674,143.89759599999525,143.89759599999525,None,,16,001,2025-12-23_17h51.35.733,2025C_exp1_comp,2022.2.4,59.87665410133082,
15.7,315,1,1,0,86,86,64,143.89759599999525,143.89759599999525,144.3981585999718,144.46474789991044,144.51510099996813,144.51510099996813,144.51510099996813,144.51510099996813,144.56486980000045,144.56486980000045,144.56486980000045,144.56486980000045,144.56486980000045,144.56486980000045,144.56486980000045,144.56486980000045,144.56486980000045,left,0.6284524999791756,145.2154607999837,145.2154607999837,None,,16,001,2025-12-23_17h51.35.733,2025C_exp1_comp,2022.2.4,59.87665410133082,
29.4,315,1,0,0,87,87,32,145.2154607999837,145.2154607999837,145.716248099925,145.78276729991194,145.83319589996245,145.83319589996245,145.83319589996245,145.83319589996245,145.88289849995635,145.88289849995635,145.88289849995635,145.88289849995635,145.88289849995635,145.88289849995635,145.88289849995635,145.88289849995635,145.88289849995635,right,0.6225016999524087,146.53361789998598,146.53361789998598,None,,16,001,2025-12-23_17h51.35.733,2025C_exp1_comp,2022.2.4,59.87665410133082,
39.2,315,-1,0,0,88,88,16,146.53361789998598,146.53361789998598,147.03391339990776,147.10087809991091,147.1511235999642,147.1511235999642,147.1511235999642,147.1511235999642,147.2009534999961,147.2009534999961,147.2009534999961,147.2009534999961,147.2009534999961,147.2009534999961,147.2009534999961,147.2009534999961,147.2009534999961,left,0.6803785000229254,147.90168489993084,147.90168489993084,None,,16,001,2025-12-23_17h51.35.733,2025C_exp1_comp,2022.2.4,59.87665410133082,
12.1,45,1,-1,0,89,89,90,147.90168489993084,147.90168489993084,148.4022575999843,148.4689274999546,148.51903869991656,148.51903869991656,148.51903869991656,148.51903869991656,148.56863989995327,148.56863989995327,148.56863989995327,148.56863989995327,148.56863989995327,148.56863989995327,148.56863989995327,148.56863989995327,148.56863989995327,left,0.5122345000272617,149.10274449991994,149.10274449991994,None,,16,001,2025-12-23_17h51.35.733,2025C_exp1_comp,2022.2.4,59.87665410133082,
42.7,45,-1,0,0,90,90,8,149.10274449991994,149.10274449991994,149.60327919991687,149.67002729990054,149.7203214999754,149.7203214999754,149.7203214999754,149.7203214999754,149.7701667000074,149.7701667000074,149.7701667000074,149.7701667000074,149.7701667000074,149.7701667000074,149.7701667000074,149.7701667000074,149.7701667000074,left,0.7182253000792116,150.5208897999255,150.5208897999255,None,,16,001,2025-12-23_17h51.35.733,2025C_exp1_comp,2022.2.4,59.87665410133082,
35.3,45,1,0,0,91,91,24,150.5208897999255,150.5208897999255,151.02137149998453,151.08786529989447,151.13810569990892,151.13810569990892,151.13810569990892,151.13810569990892,151.18806099996436,151.18806099996436,151.18806099996436,151.18806099996436,151.18806099996436,151.18806099996436,151.18806099996436,151.18806099996436,151.18806099996436,left,0.5574389999965206,151.7719611999346,151.7719611999346,None,,16,001,2025-12-23_17h51.35.733,2025C_exp1_comp,2022.2.4,59.87665410133082,
39.2,45,1,-1,0,92,92,97,151.7719611999346,151.7719611999346,152.27249809994828,152.33933629991952,152.3895468999399,152.3895468999399,152.3895468999399,152.3895468999399,152.43945909989998,152.43945909989998,152.43945909989998,152.43945909989998,152.43945909989998,152.43945909989998,152.43945909989998,152.43945909989998,152.43945909989998,left,1.7940381999360397,154.25781499990262,154.25781499990262,None,,16,001,2025-12-23_17h51.35.733,2025C_exp1_comp,2022.2.4,59.87665410133082,
39.2,45,1,0,0,93,93,25,154.25781499990262,154.25781499990262,154.75843409996014,154.8253459999105,154.8755988999037,154.8755988999037,154.8755988999037,154.8755988999037,154.92533349990845,154.92533349990845,154.92533349990845,154.92533349990845,154.92533349990845,154.92533349990845,154.92533349990845,154.92533349990845,154.92533349990845,right,0.5714263999834657,155.525919699925,155.525919699925,None,,16,001,2025-12-23_17h51.35.733,2025C_exp1_comp,2022.2.4,59.87665410133082,
42.7,315,-1,1,0,94,94,53,155.525919699925,155.525919699925,156.02638609998394,156.09308649995364,156.14336859993637,156.14336859993637,156.14336859993637,156.14336859993637,156.19313829997554,156.19313829997554,156.19313829997554,156.19313829997554,156.19313829997554,156.19313829997554,156.19313829997554,156.19313829997554,156.19313829997554,right,0.4959873999468982,156.7102391999215,156.7102391999215,None,,16,001,2025-12-23_17h51.35.733,2025C_exp1_comp,2022.2.4,59.87665410133082,
35.3,45,-1,0,0,95,95,6,156.7102391999215,156.7102391999215,157.21087399998214,157.27764559991192,157.32772349996958,157.32772349996958,157.32772349996958,157.32772349996958,157.37759329995606,157.37759329995606,157.37759329995606,157.37759329995606,157.37759329995606,157.37759329995606,157.37759329995606,157.37759329995606,157.37759329995606,left,0.34317460004240274,157.74490419996437,157.74490419996437,None,,16,001,2025-12-23_17h51.35.733,2025C_exp1_comp,2022.2.4,59.87665410133082,
12.1,45,1,1,0,96,96,54,157.74490419996437,157.74490419996437,158.24532909994014,158.31189849996008,158.36229049996473,158.36229049996473,158.36229049996473,158.36229049996473,158.41209959995467,158.41209959995467,158.41209959995467,158.41209959995467,158.41209959995467,158.41209959995467,158.41209959995467,158.41209959995467,158.41209959995467,right,0.2929749999893829,158.72913569991942,158.72913569991942,None,,16,001,2025-12-23_17h51.35.733,2025C_exp1_comp,2022.2.4,59.87665410133082,
12.1,315,1,1,0,97,97,63,158.72913569991942,158.72913569991942,159.22964409994893,159.29629639990162,159.3467260999605,159.3467260999605,159.3467260999605,159.3467260999605,159.39642499992624,159.39642499992624,159.39642499992624,159.39642499992624,159.39642499992624,159.39642499992624,159.39642499992624,159.39642499992624,159.39642499992624,right,0.268375699990429,159.69661469990388,159.69661469990388,None,,16,001,2025-12-23_17h51.35.733,2025C_exp1_comp,2022.2.4,59.87665410133082,
19.6,45,-1,0,0,98,98,2,159.69661469990388,159.69661469990388,160.19721649994608,160.26393149991054,160.31439809990115,160.31439809990115,160.31439809990115,160.31439809990115,160.36418489995413,160.36418489995413,160.36418489995413,160.36418489995413,160.36418489995413,160.36418489995413,160.36418489995413,160.36418489995413,160.36418489995413,right,0.5807347000809386,160.96468939993065,160.96468939993065,None,,16,001,2025-12-23_17h51.35.733,2025C_exp1_comp,2022.2.4,59.87665410133082,
22.7,315,-1,1,0,99,99,48,160.96468939993065,160.96468939993065,161.46517729992047,161.53170089994092,161.58214779989794,161.58214779989794,161.58214779989794,161.58214779989794,161.63194689992815,161.63194689992815,161.63194689992815,161.63194689992815,161.63194689992815,161.63194689992815,161.63194689992815,161.63194689992815,161.63194689992815,right,0.33647770003881305,161.99886880000122,161.99886880000122,None,,16,001,2025-12-23_17h51.35.733,2025C_exp1_comp,2022.2.4,59.87665410133082,
25.5,45,-1,1,0,100,100,40,161.99886880000122,161.99886880000122,162.49946999992244,162.56619889999274,162.6165046999231,162.6165046999231,162.6165046999231,162.6165046999231,162.6663969999645,162.6663969999645,162.6663969999645,162.6663969999645,162.6663969999645,162.6663969999645,162.6663969999645,162.6663969999645,162.6663969999645,left,0.3824237999506295,163.06682909990195,163.06682909990195,None,,16,001,2025-12-23_17h51.35.733,2025C_exp1_comp,2022.2.4,59.87665410133082,
35.3,315,-1,0,0,101,101,15,163.06682909990195,163.06682909990195,163.56704849994276,163.63416929997038,163.68456339999102,163.68456339999102,163.68456339999102,163.68456339999102,163.73430839995854,163.73430839995854,163.73430839995854,163.73430839995854,163.73430839995854,163.73430839995854,163.73430839995854,163.73430839995854,163.73430839995854,left,0.6830931999720633,164.43500529997982,164.43500529997982,None,,16,001,2025-12-23_17h51.35.733,2025C_exp1_comp,2022.2.4,59.87665410133082,
39.2,315,1,-1,0,102,102,106,164.43500529997982,164.43500529997982,164.93549349997193,165.00226340000518,165.05255369993392,165.05255369993392,165.05255369993392,165.05255369993392,165.10226499999408,165.10226499999408,165.10226499999408,165.10226499999408,165.10226499999408,165.10226499999408,165.10226499999408,165.10226499999408,165.10226499999408,left,0.7865062999771908,165.91953819990158,165.91953819990158,None,,16,001,2025-12-23_17h51.35.733,2025C_exp1_comp,2022.2.4,59.87665410133082,
29.4,45,1,1,0,103,103,59,165.91953819990158,165.91953819990158,166.42012759996578,166.4868579999311,166.53703709994443,166.53703709994443,166.53703709994443,166.53703709994443,166.58695629995782,166.58695629995782,166.58695629995782,166.58695629995782,166.58695629995782,166.58695629995782,166.58695629995782,166.58695629995782,166.58695629995782,right,0.41325640003196895,167.020689799916,167.020689799916,None,,16,001,2025-12-23_17h51.35.733,2025C_exp1_comp,2022.2.4,59.87665410133082,
22.7,315,-1,0,0,104,104,12,167.020689799916,167.020689799916,167.5211430999916,167.58794809994288,167.6379331999924,167.6379331999924,167.6379331999924,167.6379331999924,167.6880246999208,167.6880246999208,167.6880246999208,167.6880246999208,167.6880246999208,167.6880246999208,167.6880246999208,167.6880246999208,167.6880246999208,right,0.5366690999362618,168.2551612999523,168.2551612999523,None,,16,001,2025-12-23_17h51.35.733,2025C_exp1_comp,2022.2.4,59.87665410133082,
42.7,315,1,0,0,105,105,35,168.2551612999523,168.2551612999523,168.75545639998745,168.82235499995295,168.87273879989516,168.87273879989516,168.87273879989516,168.87273879989516,168.92250919993967,168.92250919993967,168.92250919993967,168.92250919993967,168.92250919993967,168.92250919993967,168.92250919993967,168.92250919993967,168.92250919993967,right,0.35044050007127225,169.28952140000183,169.28952140000183,None,,16,001,2025-12-23_17h51.35.733,2025C_exp1_comp,2022.2.4,59.87665410133082,
22.7,315,1,-1,0,106,106,102,169.28952140000183,169.28952140000183,169.79013549990486,169.85663799999747,169.90714239992667,169.90714239992667,169.90714239992667,169.90714239992667,169.9571106999647,169.9571106999647,169.9571106999647,169.9571106999647,169.9571106999647,169.9571106999647,169.9571106999647,169.9571106999647,169.9571106999647,right,0.29139190004207194,170.2739797999384,170.2739797999384,None,,16,001,2025-12-23_17h51.35.733,2025C_exp1_comp,2022.2.4,59.87665410133082,
25.5,315,-1,-1,0,107,107,85,170.2739797999384,170.2739797999384,170.7743693999946,170.841127499938,170.89140179997776,170.89140179997776,170.89140179997776,170.89140179997776,170.9412742999848,170.9412742999848,170.9412742999848,170.9412742999848,170.9412742999848,170.9412742999848,170.9412742999848,170.9412742999848,170.9412742999848,right,0.31588769995141774,171.27489379991312,171.27489379991312,space,9.781362200039439,16,001,2025-12-23_17h51.35.733,2025C_exp1_comp,2022.2.4,59.87665410133082,
35.3,45,-1,-1,1,0,108,78,181.08483109995723,181.08483109995723,181.58544779999647,181.65210089995526,181.7022675999906,181.7022675999906,181.7022675999906,181.7022675999906,181.752044999972,181.752044999972,181.752044999972,181.752044999972,181.752044999972,181.752044999972,181.752044999972,181.752044999972,181.752044999972,left,0.5843805000185966,182.35249399999157,182.35249399999157,None,,16,001,2025-12-23_17h51.35.733,2025C_exp1_comp,2022.2.4,59.87665410133082,
15.7,315,-1,1,1,1,109,46,182.35249399999157,182.35249399999157,182.85320139990654,182.91988989990205,182.97021589998621,182.97021589998621,182.97021589998621,182.97021589998621,183.02002139994875,183.02002139994875,183.02002139994875,183.02002139994875,183.02002139994875,183.02002139994875,183.02002139994875,183.02002139994875,183.02002139994875,right,0.42936070007272065,183.47045329993125,183.47045329993125,None,,16,001,2025-12-23_17h51.35.733,2025C_exp1_comp,2022.2.4,59.87665410133082,
29.4,315,1,-1,1,2,110,104,183.47045329993125,183.47045329993125,183.9708978999406,184.0376640999457,184.08782259991858,184.08782259991858,184.08782259991858,184.08782259991858,184.13777679996565,184.13777679996565,184.13777679996565,184.13777679996565,184.13777679996565,184.13777679996565,184.13777679996565,184.13777679996565,184.13777679996565,left,0.31910369999241084,184.48781409999356,184.48781409999356,None,,16,001,2025-12-23_17h51.35.733,2025C_exp1_comp,2022.2.4,59.87665410133082,
19.6,315,-1,0,1,3,111,11,184.48781409999356,184.48781409999356,184.98892739997245,185.0555313999066,185.1058213999495,185.1058213999495,185.1058213999495,185.1058213999495,185.1555781000061,185.1555781000061,185.1555781000061,185.1555781000061,185.1555781000061,185.1555781000061,185.1555781000061,185.1555781000061,185.1555781000061,right,0.3336468000197783,185.5059366999194,185.5059366999194,None,,16,001,2025-12-23_17h51.35.733,2025C_exp1_comp,2022.2.4,59.87665410133082,
15.7,315,-1,-1,1,4,112,82,185.5059366999194,185.5059366999194,186.00615139992442,186.073047199985,186.12334809999447,186.12334809999447,186.12334809999447,186.12334809999447,186.17315369995777,186.17315369995777,186.17315369995777,186.17315369995777,186.17315369995777,186.17315369995777,186.17315369995777,186.17315369995777,186.17315369995777,right,0.6032887999899685,186.80713689990807,186.80713689990807,None,,16,001,2025-12-23_17h51.35.733,2025C_exp1_comp,2022.2.4,59.87665410133082,
22.7,45,1,-1,1,5,113,93,186.80713689990807,186.80713689990807,187.30789479997475,187.3746058999095,187.42495129990857,187.42495129990857,187.42495129990857,187.42495129990857,187.4747236999683,187.4747236999683,187.4747236999683,187.4747236999683,187.4747236999683,187.4747236999683,187.4747236999683,187.4747236999683,187.4747236999683,left,0.47002080001402646,187.975220699911,187.975220699911,None,,16,001,2025-12-23_17h51.35.733,2025C_exp1_comp,2022.2.4,59.87665410133082,
25.5,315,1,0,1,6,114,31,187.975220699911,187.975220699911,188.47549689991865,188.5422967999475,188.59218629996758,188.59218629996758,188.59218629996758,188.59218629996758,188.64201799989678,188.64201799989678,188.64201799989678,188.64201799989678,188.64201799989678,188.64201799989678,188.64201799989678,188.64201799989678,188.64201799989678,left,0.5903067999752238,189.25951919995714,189.25951919995714,None,,16,001,2025-12-23_17h51.35.733,2025C_exp1_comp,2022.2.4,59.87665410133082,
22.7,315,-1,-1,1,7,115,84,189.25951919995714,189.25951919995714,189.76008729997557,189.82683099992573,189.8770997999236,189.8770997999236,189.8770997999236,189.8770997999236,189.9269212000072,189.9269212000072,189.9269212000072,189.9269212000072,189.9269212000072,189.9269212000072,189.9269212000072,189.9269212000072,189.9269212000072,right,0.6255331999855116,190.57755179994274,190.57755179994274,None,,16,001,2025-12-23_17h51.35.733,2025C_exp1_comp,2022.2.4,59.87665410133082,
39.2,315,1,0,1,8,116,34,190.57755179994274,190.57755179994274,191.0782752999803,191.144988099928,191.1953209999483,191.1953209999483,191.1953209999483,191.1953209999483,191.24501299997792,191.24501299997792,191.24501299997792,191.24501299997792,191.24501299997792,191.24501299997792,191.24501299997792,191.24501299997792,191.24501299997792,right,0.6673993000295013,191.92892259999644,191.92892259999644,None,,16,001,2025-12-23_17h51.35.733,2025C_exp1_comp,2022.2.4,59.87665410133082,
39.2,315,1,-1,1,9,117,106,191.92892259999644,191.92892259999644,192.4293541999068,192.4959454999771,192.54611269989982,192.54611269989982,192.54611269989982,192.54611269989982,192.595898999949,192.595898999949,192.595898999949,192.595898999949,192.595898999949,192.595898999949,192.595898999949,192.595898999949,192.595898999949,right,0.49399290001019835,193.11357789998874,193.11357789998874,None,,16,001,2025-12-23_17h51.35.733,2025C_exp1_comp,2022.2.4,59.87665410133082,
25.5,45,-1,0,1,10,118,4,193.11357789998874,193.11357789998874,193.6141762000043,193.68076879996806,193.7312158999266,193.7312158999266,193.7312158999266,193.7312158999266,193.78094169998076,193.78094169998076,193.78094169998076,193.78094169998076,193.78094169998076,193.78094169998076,193.78094169998076,193.78094169998076,193.78094169998076,right,0.3723743000300601,194.181021999917,194.181021999917,None,,16,001,2025-12-23_17h51.35.733,2025C_exp1_comp,2022.2.4,59.87665410133082,
39.2,45,-1,0,1,11,119,7,194.181021999917,194.181021999917,194.68156629998703,194.74827569990885,194.79847579996567,194.79847579996567,194.79847579996567,194.79847579996567,194.8482310998952,194.8482310998952,194.8482310998952,194.8482310998952,194.8482310998952,194.8482310998952,194.8482310998952,194.8482310998952,194.8482310998952,left,0.8480317000066862,195.7159205999924,195.7159205999924,None,,16,001,2025-12-23_17h51.35.733,2025C_exp1_comp,2022.2.4,59.87665410133082,
35.3,45,1,0,1,12,120,24,195.7159205999924,195.7159205999924,196.2164933999302,196.28324909997173,196.3335995998932,196.3335995998932,196.3335995998932,196.3335995998932,196.38340639998205,196.38340639998205,196.38340639998205,196.38340639998205,196.38340639998205,196.38340639998205,196.38340639998205,196.38340639998205,196.38340639998205,right,0.24188699992373586,196.6503090999322,196.6503090999322,None,,16,001,2025-12-23_17h51.35.733,2025C_exp1_comp,2022.2.4,59.87665410133082,
19.6,45,1,-1,1,13,121,92,196.6503090999322,196.6503090999322,197.15080989990383,197.2175207999535,197.2678437998984,197.2678437998984,197.2678437998984,197.2678437998984,197.31750989996362,197.31750989996362,197.31750989996362,197.31750989996362,197.31750989996362,197.31750989996362,197.31750989996362,197.31750989996362,197.31750989996362,left,0.2910820000106469,197.63460299989674,197.63460299989674,None,,16,001,2025-12-23_17h51.35.733,2025C_exp1_comp,2022.2.4,59.87665410133082,
35.3,315,-1,1,1,14,122,51,197.63460299989674,197.63460299989674,198.13512739993166,198.20183839998208,198.25216169992927,198.25216169992927,198.25216169992927,198.25216169992927,198.30191689997446,198.30191689997446,198.30191689997446,198.30191689997446,198.30191689997446,198.30191689997446,198.30191689997446,198.30191689997446,198.30191689997446,right,0.4351221000542864,198.76909359998535,198.76909359998535,None,,16,001,2025-12-23_17h51.35.733,2025C_exp1_comp,2022.2.4,59.87665410133082,
35.3,315,1,-1,1,15,123,105,198.76909359998535,198.76909359998535,199.26955510000698,199.3363573999377,199.3866812000051,199.3866812000051,199.3866812000051,199.3866812000051,199.4364130999893,199.4364130999893,199.4364130999893,199.4364130999893,199.4364130999893,199.4364130999893,199.4364130999893,199.4364130999893,199.4364130999893,right,0.5409010000294074,200.00368289998733,200.00368289998733,None,,16,001,2025-12-23_17h51.35.733,2025C_exp1_comp,2022.2.4,59.87665410133082,
12.1,45,-1,0,1,16,124,0,200.00368289998733,200.00368289998733,200.50416169990785,200.5708989999257,200.6211987999268,200.6211987999268,200.6211987999268,200.6211987999268,200.67101359996013,200.67101359996013,200.67101359996013,200.67101359996013,200.67101359996013,200.67101359996013,200.67101359996013,200.67101359996013,200.67101359996013,right,0.40172780002467334,201.10445549990982,201.10445549990982,None,,16,001,2025-12-23_17h51.35.733,2025C_exp1_comp,2022.2.4,59.87665410133082,
29.4,315,-1,-1,1,17,125,86,201.10445549990982,201.10445549990982,201.60530659998767,201.6720529999584,201.72218659997452,201.72218659997452,201.72218659997452,201.72218659997452,201.77210339996964,201.77210339996964,201.77210339996964,201.77210339996964,201.77210339996964,201.77210339996964,201.77210339996964,201.77210339996964,201.77210339996964,right,0.37265879998449236,202.17227629991248,202.17227629991248,None,,16,001,2025-12-23_17h51.35.733,2025C_exp1_comp,2022.2.4,59.87665410133082,
15.7,45,1,0,1,18,126,19,202.17227629991248,202.17227629991248,202.67298539995681,202.7397420000052,202.790003699949,202.790003699949,202.790003699949,202.790003699949,202.83967809996102,202.83967809996102,202.83967809996102,202.83967809996102,202.83967809996102,202.83967809996102,202.83967809996102,202.83967809996102,202.83967809996102,right,1.0413022000575438,203.9075373999076,203.9075373999076,None,,16,001,2025-12-23_17h51.35.733,2025C_exp1_comp,2022.2.4,59.87665410133082,
19.6,45,-1,-1,1,19,127,74,203.9075373999076,203.9075373999076,204.40806479996536,204.47466259996872,204.5250627999194,204.5250627999194,204.5250627999194,204.5250627999194,204.5749105999712,204.5749105999712,204.5749105999712,204.5749105999712,204.5749105999712,204.5749105999712,204.5749105999712,204.5749105999712,204.5749105999712,right,0.6738711000652984,205.2752774999244,205.2752774999244,None,,16,001,2025-12-23_17h51.35.733,2025C_exp1_comp,2022.2.4,59.87665410133082,
19.6,45,1,1,1,20,128,56,205.2752774999244,205.2752774999244,205.77591189998202,205.84268329991028,205.89301579992753,205.89301579992753,205.89301579992753,205.89301579992753,205.94272319995798,205.94272319995798,205.94272319995798,205.94272319995798,205.94272319995798,205.94272319995798,205.94272319995798,205.94272319995798,205.94272319995798,left,0.7386960000731051,206.71017459989525,206.71017459989525,None,,16,001,2025-12-23_17h51.35.733,2025C_exp1_comp,2022.2.4,59.87665410133082,
12.1,45,-1,-1,1,21,129,72,206.71017459989525,206.71017459989525,207.21080020000227,207.27757459995337,207.3275539999595,207.3275539999595,207.3275539999595,207.3275539999595,207.3775636999635,207.3775636999635,207.3775636999635,207.3775636999635,207.3775636999635,207.3775636999635,207.3775636999635,207.3775636999635,207.3775636999635,right,0.4713559999363497,207.87840759998653,207.87840759998653,None,,16,001,2025-12-23_17h51.35.733,2025C_exp1_comp,2022.2.4,59.87665410133082,
42.7,45,1,0,1,22,130,26,207.87840759998653,207.87840759998653,208.37883499998134,208.44550389994401,208.49551139993127,208.49551139993127,208.49551139993127,208.49551139993127,208.5454902999336,208.5454902999336,208.5454902999336,208.5454902999336,208.5454902999336,208.5454902999336,208.5454902999336,208.5454902999336,208.5454902999336,right,1.7030985000310466,210.28057830000762,210.28057830000762,None,,16,001,2025-12-23_17h51.35.733,2025C_exp1_comp,2022.2.4,59.87665410133082,
39.2,45,1,0,1,23,131,25,210.28057830000762,210.28057830000762,210.78103529999498,210.84778630000073,210.898076799931,210.898076799931,210.898076799931,210.898076799931,210.94781129993498,210.94781129993498,210.94781129993498,210.94781129993498,210.94781129993498,210.94781129993498,210.94781129993498,210.94781129993498,210.94781129993498,right,0.3974532000720501,211.3648922999855,211.3648922999855,None,,16,001,2025-12-23_17h51.35.733,2025C_exp1_comp,2022.2.4,59.87665410133082,
29.4,45,1,1,1,24,132,59,211.3648922999855,211.3648922999855,211.8657745999517,211.9324845999945,211.98255399998743,211.98255399998743,211.98255399998743,211.98255399998743,212.03241649991833,212.03241649991833,212.03241649991833,212.03241649991833,212.03241649991833,212.03241649991833,212.03241649991833,212.03241649991833,212.03241649991833,right,0.31293449993245304,212.3659918999765,212.3659918999765,None,,16,001,2025-12-23_17h51.35.733,2025C_exp1_comp,2022.2.4,59.87665410133082,
12.1,315,-1,0,1,25,133,9,212.3659918999765,212.3659918999765,212.86647089989856,212.9331896000076,212.98357249994297,212.98357249994297,212.98357249994297,212.98357249994297,213.03335259994492,213.03335259994492,213.03335259994492,213.03335259994492,213.03335259994492,213.03335259994492,213.03335259994492,213.03335259994492,213.03335259994492,right,0.35116740001831204,213.41693839989603,213.41693839989603,None,,16,001,2025-12-23_17h51.35.733,2025C_exp1_comp,2022.2.4,59.87665410133082,
42.7,45,-1,-1,1,26,134,80,213.41693839989603,213.41693839989603,213.91785089997575,213.98453339992557,214.0346295000054,214.0346295000054,214.0346295000054,214.0346295000054,214.08468899992295,214.08468899992295,214.08468899992295,214.08468899992295,214.08468899992295,214.08468899992295,214.08468899992295,214.08468899992295,214.08468899992295,right,0.4125650000059977,214.51796059997287,214.51796059997287,None,,16,001,2025-12-23_17h51.35.733,2025C_exp1_comp,2022.2.4,59.87665410133082,
29.4,45,1,-1,1,27,135,95,214.51796059997287,214.51796059997287,215.01866509998217,215.08534709992819,215.13560529996175,215.13560529996175,215.13560529996175,215.13560529996175,215.18570609996095,215.18570609996095,215.18570609996095,215.18570609996095,215.18570609996095,215.18570609996095,215.18570609996095,215.18570609996095,215.18570609996095,left,0.3035312000429258,215.5190064999042,215.5190064999042,None,,16,001,2025-12-23_17h51.35.733,2025C_exp1_comp,2022.2.4,59.87665410133082,
25.5,315,-1,1,1,28,136,49,215.5190064999042,215.5190064999042,216.01962799998,216.08637489995454,216.1366534999106,216.1366534999106,216.1366534999106,216.1366534999106,216.1864841999486,216.1864841999486,216.1864841999486,216.1864841999486,216.1864841999486,216.1864841999486,216.1864841999486,216.1864841999486,216.1864841999486,right,0.2388922000536695,216.4533352999715,216.4533352999715,None,,16,001,2025-12-23_17h51.35.733,2025C_exp1_comp,2022.2.4,59.87665410133082,
25.5,315,-1,0,1,29,137,13,216.4533352999715,216.4533352999715,216.9539228999056,217.02061729994603,217.070834599901,217.070834599901,217.070834599901,217.070834599901,217.12064669991378,217.12064669991378,217.12064669991378,217.12064669991378,217.12064669991378,217.12064669991378,217.12064669991378,217.12064669991378,217.12064669991378,right,0.616333800018765,217.7548657999141,217.7548657999141,None,,16,001,2025-12-23_17h51.35.733,2025C_exp1_comp,2022.2.4,59.87665410133082,
25.5,45,1,0,1,30,138,22,217.7548657999141,217.7548657999141,218.25521859992296,218.32166349992622,218.37192969990429,218.37192969990429,218.37192969990429,218.37192969990429,218.4219538999023,218.4219538999023,218.4219538999023,218.4219538999023,218.4219538999023,218.4219538999023,218.4219538999023,218.4219538999023,218.4219538999023,left,0.6742910000029951,219.12259789998643,219.12259789998643,None,,16,001,2025-12-23_17h51.35.733,2025C_exp1_comp,2022.2.4,59.87665410133082,
42.7,315,1,1,1,31,139,71,219.12259789998643,219.12259789998643,219.62314789998345,219.68987889995333,219.73995529999956,219.73995529999956,219.73995529999956,219.73995529999956,219.79005809989758,219.79005809989758,219.79005809989758,219.79005809989758,219.79005809989758,219.79005809989758,219.79005809989758,219.79005809989758,219.79005809989758,right,1.81120719993487,221.62510589999147,221.62510589999147,None,,16,001,2025-12-23_17h51.35.733,2025C_exp1_comp,2022.2.4,59.87665410133082,
39.2,45,-1,1,1,32,140,43,221.62510589999147,221.62510589999147,222.12560499995016,222.19250339991413,222.24263110000174,222.24263110000174,222.24263110000174,222.24263110000174,222.29254819999915,222.29254819999915,222.29254819999915,222.29254819999915,222.29254819999915,222.29254819999915,222.29254819999915,222.29254819999915,222.29254819999915,right,0.4362984999315813,222.75944539997727,222.75944539997727,None,,16,001,2025-12-23_17h51.35.733,2025C_exp1_comp,2022.2.4,59.87665410133082,
42.7,45,-1,1,1,33,141,44,222.75944539997727,222.75944539997727,223.2602135000052,223.32692899997346,223.37723469990306,223.37723469990306,223.37723469990306,223.37723469990306,223.42691169993486,223.42691169993486,223.42691169993486,223.42691169993486,223.42691169993486,223.42691169993486,223.42691169993486,223.42691169993486,223.42691169993486,right,0.31819550006184727,223.7774070999585,223.7774070999585,None,,16,001,2025-12-23_17h51.35.733,2025C_exp1_comp,2022.2.4,59.87665410133082,
12.1,315,1,-1,1,34,142,99,223.7774070999585,223.7774070999585,224.2777679999126,224.34442489990033,224.39491479995195,224.39491479995195,224.39491479995195,224.39491479995195,224.4447150999913,224.4447150999913,224.4447150999913,224.4447150999913,224.4447150999913,224.4447150999913,224.4447150999913,224.4447150999913,224.4447150999913,left,0.2764374000253156,224.745028299978,224.745028299978,None,,16,001,2025-12-23_17h51.35.733,2025C_exp1_comp,2022.2.4,59.87665410133082,
35.3,45,-1,1,1,35,143,42,224.745028299978,224.745028299978,225.24541759991553,225.31224969995674,225.36249299999326,225.36249299999326,225.36249299999326,225.36249299999326,225.41236329998355,225.41236329998355,225.41236329998355,225.41236329998355,225.41236329998355,225.41236329998355,225.41236329998355,225.41236329998355,225.41236329998355,right,0.18896029994357377,225.6291949999286,225.6291949999286,None,,16,001,2025-12-23_17h51.35.733,2025C_exp1_comp,2022.2.4,59.87665410133082,
42.7,315,1,-1,1,36,144,107,225.6291949999286,225.6291949999286,226.1295853999909,226.19637549994513,226.246723499964,226.246723499964,226.246723499964,226.246723499964,226.29660809994675,226.29660809994675,226.29660809994675,226.29660809994675,226.29660809994675,226.29660809994675,226.29660809994675,226.29660809994675,226.29660809994675,left,0.23969640000723302,226.56341269996483,226.56341269996483,None,,16,001,2025-12-23_17h51.35.733,2025C_exp1_comp,2022.2.4,59.87665410133082,
29.4,45,1,0,1,37,145,23,226.56341269996483,226.56341269996483,227.06400199991185,227.13063629996032,227.18102229991928,227.18102229991928,227.18102229991928,227.18102229991928,227.23086679994594,227.23086679994594,227.23086679994594,227.23086679994594,227.23086679994594,227.23086679994594,227.23086679994594,227.23086679994594,227.23086679994594,right,0.4735793999861926,227.7312394999899,227.7312394999899,None,,16,001,2025-12-23_17h51.35.733,2025C_exp1_comp,2022.2.4,59.87665410133082,
15.7,315,-1,0,1,38,146,10,227.7312394999899,227.7312394999899,228.2320960999932,228.29872119997162,228.34912299993448,228.34912299993448,228.34912299993448,228.34912299993448,228.39851549989544,228.39851549989544,228.39851549989544,228.39851549989544,228.39851549989544,228.39851549989544,228.39851549989544,228.39851549989544,228.39851549989544,left,0.5616763998987153,228.98244379996322,228.98244379996322,None,,16,001,2025-12-23_17h51.35.733,2025C_exp1_comp,2022.2.4,59.87665410133082,
42.7,45,1,1,1,39,147,62,228.98244379996322,228.98244379996322,229.48323199991137,229.5499337000074,229.59991249989253,229.59991249989253,229.59991249989253,229.59991249989253,229.6498456998961,229.6498456998961,229.6498456998961,229.6498456998961,229.6498456998961,229.6498456998961,229.6498456998961,229.6498456998961,229.6498456998961,right,0.3514227999839932,230.03365799994208,230.03365799994208,None,,16,001,2025-12-23_17h51.35.733,2025C_exp1_comp,2022.2.4,59.87665410133082,
35.3,315,1,1,1,40,148,69,230.03365799994208,230.03365799994208,230.53432919993065,230.60078529990278,230.65112029993907,230.65112029993907,230.65112029993907,230.65112029993907,230.70093519997317,230.70093519997317,230.70093519997317,230.70093519997317,230.70093519997317,230.70093519997317,230.70093519997317,230.70093519997317,230.70093519997317,right,0.31554229999892414,231.03452280000784,231.03452280000784,None,,16,001,2025-12-23_17h51.35.733,2025C_exp1_comp,2022.2.4,59.87665410133082,
15.7,45,-1,0,1,41,149,1,231.03452280000784,231.03452280000784,231.53529059991706,231.60177419998217,231.65217259991914,231.65217259991914,231.65217259991914,231.65217259991914,231.70195419993252,231.70195419993252,231.70195419993252,231.70195419993252,231.70195419993252,231.70195419993252,231.70195419993252,231.70195419993252,231.70195419993252,right,0.40240390005055815,232.1357474999968,232.1357474999968,None,,16,001,2025-12-23_17h51.35.733,2025C_exp1_comp,2022.2.4,59.87665410133082,
25.5,315,1,1,1,42,150,67,232.1357474999968,232.1357474999968,232.63599109998904,232.70298820000608,232.75318129989319,232.75318129989319,232.75318129989319,232.75318129989319,232.80311859992798,232.80311859992798,232.80311859992798,232.80311859992798,232.80311859992798,232.80311859992798,232.80311859992798,232.80311859992798,232.80311859992798,right,0.2941096000140533,233.1200662999181,233.1200662999181,None,,16,001,2025-12-23_17h51.35.733,2025C_exp1_comp,2022.2.4,59.87665410133082,
39.2,45,1,-1,1,43,151,97,233.1200662999181,233.1200662999181,233.62080899998546,233.68728079996072,233.73754379991442,233.73754379991442,233.73754379991442,233.73754379991442,233.78724410000723,233.78724410000723,233.78724410000723,233.78724410000723,233.78724410000723,233.78724410000723,233.78724410000723,233.78724410000723,233.78724410000723,left,0.2686633999692276,234.08754889992997,234.08754889992997,None,,16,001,2025-12-23_17h51.35.733,2025C_exp1_comp,2022.2.4,59.87665410133082,
25.5,45,1,1,1,44,152,58,234.08754889992997,234.08754889992997,234.58808159991167,234.65489609993529,234.7052131999517,234.7052131999517,234.7052131999517,234.7052131999517,234.75491769996006,234.75491769996006,234.75491769996006,234.75491769996006,234.75491769996006,234.75491769996006,234.75491769996006,234.75491769996006,234.75491769996006,right,0.2298592000734061,235.00494479993358,235.00494479993358,None,,16,001,2025-12-23_17h51.35.733,2025C_exp1_comp,2022.2.4,59.87665410133082,
35.3,315,1,0,1,45,153,33,235.00494479993358,235.00494479993358,235.5058142999187,235.5725475999061,235.62285479996353,235.62285479996353,235.62285479996353,235.62285479996353,235.67268989991862,235.67268989991862,235.67268989991862,235.67268989991862,235.67268989991862,235.67268989991862,235.67268989991862,235.67268989991862,235.67268989991862,right,0.43165080004837364,236.12292029999662,236.12292029999662,None,,16,001,2025-12-23_17h51.35.733,2025C_exp1_comp,2022.2.4,59.87665410133082,
39.2,315,1,1,1,46,154,70,236.12292029999662,236.12292029999662,236.6237934998935,236.6905410999898,236.7408143999055,236.7408143999055,236.7408143999055,236.7408143999055,236.7906163999578,236.7906163999578,236.7906163999578,236.7906163999578,236.7906163999578,236.7906163999578,236.7906163999578,236.7906163999578,236.7906163999578,left,0.2024534000083804,237.02410309994593,237.02410309994593,None,,16,001,2025-12-23_17h51.35.733,2025C_exp1_comp,2022.2.4,59.87665410133082,
15.7,45,1,-1,1,47,155,91,237.02410309994593,237.02410309994593,237.52454369992483,237.59105369995814,237.64148529991508,237.64148529991508,237.64148529991508,237.64148529991508,237.69126669992693,237.69126669992693,237.69126669992693,237.69126669992693,237.69126669992693,237.69126669992693,237.69126669992693,237.69126669992693,237.69126669992693,right,1.4050859999842942,239.12589449994266,239.12589449994266,None,,16,001,2025-12-23_17h51.35.733,2025C_exp1_comp,2022.2.4,59.87665410133082,
19.6,45,1,0,1,48,156,20,239.12589449994266,239.12589449994266,239.62649369996507,239.69315750000533,239.74357669998426,239.74357669998426,239.74357669998426,239.74357669998426,239.7933747000061,239.7933747000061,239.7933747000061,239.7933747000061,239.7933747000061,239.7933747000061,239.7933747000061,239.7933747000061,239.7933747000061,right,0.9029160999925807,240.72753519995604,240.72753519995604,None,,16,001,2025-12-23_17h51.35.733,2025C_exp1_comp,2022.2.4,59.87665410133082,
39.2,315,-1,1,1,49,157,52,240.72753519995604,240.72753519995604,241.22814169991761,241.29487749992404,241.34525279991794,241.34525279991794,241.34525279991794,241.34525279991794,241.3949527000077,241.3949527000077,241.3949527000077,241.3949527000077,241.3949527000077,241.3949527000077,241.3949527000077,241.3949527000077,241.3949527000077,right,0.5573030000086874,241.97897729999386,241.97897729999386,None,,16,001,2025-12-23_17h51.35.733,2025C_exp1_comp,2022.2.4,59.87665410133082,
12.1,315,1,1,1,50,158,63,241.97897729999386,241.97897729999386,242.47949499997776,242.54623109998647,242.59643389994744,242.59643389994744,242.59643389994744,242.59643389994744,242.64640219998546,242.64640219998546,242.64640219998546,242.64640219998546,242.64640219998546,242.64640219998546,242.64640219998546,242.64640219998546,242.64640219998546,left,1.234177800011821,243.8974287000019,243.8974287000019,None,,16,001,2025-12-23_17h51.35.733,2025C_exp1_comp,2022.2.4,59.87665410133082,
12.1,315,1,0,1,51,159,27,243.8974287000019,243.8974287000019,244.39802540000528,244.46473239990883,244.51503809995484,244.51503809995484,244.51503809995484,244.51503809995484,244.56481499993242,244.56481499993242,244.56481499993242,244.56481499993242,244.56481499993242,244.56481499993242,244.56481499993242,244.56481499993242,244.56481499993242,left,0.8519363000523299,245.43250479991548,245.43250479991548,None,,16,001,2025-12-23_17h51.35.733,2025C_exp1_comp,2022.2.4,59.87665410133082,
19.6,45,-1,0,1,52,160,2,245.43250479991548,245.43250479991548,245.93305959994905,245.9997642999515,246.05006579996552,246.05006579996552,246.05006579996552,246.05006579996552,246.09986489999574,246.09986489999574,246.09986489999574,246.09986489999574,246.09986489999574,246.09986489999574,246.09986489999574,246.09986489999574,246.09986489999574,right,0.5252377999713644,246.65018899994902,246.65018899994902,None,,16,001,2025-12-23_17h51.35.733,2025C_exp1_comp,2022.2.4,59.87665410133082,
12.1,45,1,-1,1,53,161,90,246.65018899994902,246.65018899994902,247.15113449993078,247.21759019989986,247.26758409989998,247.26758409989998,247.26758409989998,247.26758409989998,247.31756459991448,247.31756459991448,247.31756459991448,247.31756459991448,247.31756459991448,247.31756459991448,247.31756459991448,247.31756459991448,247.31756459991448,left,0.4586179000325501,247.80138429999352,247.80138429999352,None,,16,001,2025-12-23_17h51.35.733,2025C_exp1_comp,2022.2.4,59.87665410133082,
12.1,315,-1,-1,1,54,162,81,247.80138429999352,247.80138429999352,248.30194519995712,248.36862589989323,248.41877049999312,248.41877049999312,248.41877049999312,248.41877049999312,248.4687253999291,248.4687253999291,248.4687253999291,248.4687253999291,248.4687253999291,248.4687253999291,248.4687253999291,248.4687253999291,248.4687253999291,right,0.675892399973236,249.16929849993903,249.16929849993903,None,,16,001,2025-12-23_17h51.35.733,2025C_exp1_comp,2022.2.4,59.87665410133082,
12.1,45,1,1,1,55,163,54,249.16929849993903,249.16929849993903,249.66991860000417,249.7366478999611,249.78694209991954,249.78694209991954,249.78694209991954,249.78694209991954,249.83674929989502,249.83674929989502,249.83674929989502,249.83674929989502,249.83674929989502,249.83674929989502,249.83674929989502,249.83674929989502,249.83674929989502,left,0.4354080999037251,250.30383539991453,250.30383539991453,None,,16,001,2025-12-23_17h51.35.733,2025C_exp1_comp,2022.2.4,59.87665410133082,
19.6,45,-1,1,1,56,164,38,250.30383539991453,250.30383539991453,250.80425399995875,250.87112569995224,250.92117569991387,250.92117569991387,250.92117569991387,250.92117569991387,250.9709504999919,250.9709504999919,250.9709504999919,250.9709504999919,250.9709504999919,250.9709504999919,250.9709504999919,250.9709504999919,250.9709504999919,right,0.5015610000118613,251.5050484999083,251.5050484999083,None,,16,001,2025-12-23_17h51.35.733,2025C_exp1_comp,2022.2.4,59.87665410133082,
35.3,45,1,1,1,57,165,60,251.5050484999083,251.5050484999083,252.00559660000727,252.07236759993248,252.12260819994844,252.12260819994844,252.12260819994844,252.12260819994844,252.17241459991783,252.17241459991783,252.17241459991783,252.17241459991783,252.17241459991783,252.17241459991783,252.17241459991783,252.17241459991783,252.17241459991783,left,0.6118035999825224,252.80625699996017,252.80625699996017,None,,16,001,2025-12-23_17h51.35.733,2025C_exp1_comp,2022.2.4,59.87665410133082,
39.2,315,-1,-1,1,58,166,88,252.80625699996017,252.80625699996017,253.30688649998046,253.3733691999223,253.42385389993433,253.42385389993433,253.42385389993433,253.42385389993433,253.4737159999786,253.4737159999786,253.4737159999786,253.4737159999786,253.4737159999786,253.4737159999786,253.4737159999786,253.4737159999786,253.4737159999786,right,0.39906960004009306,253.8908456999343,253.8908456999343,None,,16,001,2025-12-23_17h51.35.733,2025C_exp1_comp,2022.2.4,59.87665410133082,
42.7,315,-1,0,1,59,167,17,253.8908456999343,253.8908456999343,254.39120129996445,254.45805769995786,254.50824369990733,254.50824369990733,254.50824369990733,254.50824369990733,254.5580552999163,254.5580552999163,254.5580552999163,254.5580552999163,254.5580552999163,254.5580552999163,254.5580552999163,254.5580552999163,254.5580552999163,right,0.6988876000978053,255.27542799990624,255.27542799990624,None,,16,001,2025-12-23_17h51.35.733,2025C_exp1_comp,2022.2.4,59.87665410133082,
22.7,45,-1,-1,1,60,168,75,255.27542799990624,255.27542799990624,255.776020099991,255.84275779989548,255.89293609990273,255.89293609990273,255.89293609990273,255.89293609990273,255.9428801999893,255.9428801999893,255.9428801999893,255.9428801999893,255.9428801999893,255.9428801999893,255.9428801999893,255.9428801999893,255.9428801999893,left,0.5063502999255434,256.4766918999376,256.4766918999376,None,,16,001,2025-12-23_17h51.35.733,2025C_exp1_comp,2022.2.4,59.87665410133082,
19.6,315,-1,1,1,61,169,47,256.4766918999376,256.4766918999376,256.9770904999459,257.0439435999142,257.09424949996173,257.09424949996173,257.09424949996173,257.09424949996173,257.14393579994794,257.14393579994794,257.14393579994794,257.14393579994794,257.14393579994794,257.14393579994794,257.14393579994794,257.14393579994794,257.14393579994794,right,0.3366706999950111,257.5110744999256,257.5110744999256,None,,16,001,2025-12-23_17h51.35.733,2025C_exp1_comp,2022.2.4,59.87665410133082,
12.1,45,-1,1,1,62,170,36,257.5110744999256,257.5110744999256,258.0114765999606,258.0782925999956,258.1285289999796,258.1285289999796,258.1285289999796,258.1285289999796,258.1783047999488,258.1783047999488,258.1783047999488,258.1783047999488,258.1783047999488,258.1783047999488,258.1783047999488,258.1783047999488,258.1783047999488,right,0.30165370006579906,258.512066999916,258.512066999916,None,,16,001,2025-12-23_17h51.35.733,2025C_exp1_comp,2022.2.4,59.87665410133082,
12.1,315,-1,1,1,63,171,45,258.512066999916,258.512066999916,259.01264069997706,259.0792020999361,259.1294611999765,259.1294611999765,259.1294611999765,259.1294611999765,259.1794002999086,259.1794002999086,259.1794002999086,259.1794002999086,259.1794002999086,259.1794002999086,259.1794002999086,259.1794002999086,259.1794002999086,right,0.3578453999944031,259.5631914999103,259.5631914999103,None,,16,001,2025-12-23_17h51.35.733,2025C_exp1_comp,2022.2.4,59.87665410133082,
39.2,45,1,1,1,64,172,61,259.5631914999103,259.5631914999103,260.06369829992764,260.1304414999904,260.180780799943,260.180780799943,260.180780799943,260.180780799943,260.23055859992746,260.23055859992746,260.23055859992746,260.23055859992746,260.23055859992746,260.23055859992746,260.23055859992746,260.23055859992746,260.23055859992746,right,0.594335199915804,260.8478059999179,260.8478059999179,None,,16,001,2025-12-23_17h51.35.733,2025C_exp1_comp,2022.2.4,59.87665410133082,
25.5,45,-1,-1,1,65,173,76,260.8478059999179,260.8478059999179,261.3479498999659,261.41501629992854,261.4652721999446,261.4652721999446,261.4652721999446,261.4652721999446,261.5150676999474,261.5150676999474,261.5150676999474,261.5150676999474,261.5150676999474,261.5150676999474,261.5150676999474,261.5150676999474,261.5150676999474,right,0.4943453000159934,262.03237969998736,262.03237969998736,None,,16,001,2025-12-23_17h51.35.733,2025C_exp1_comp,2022.2.4,59.87665410133082,
22.7,315,-1,1,1,66,174,48,262.03237969998736,262.03237969998736,262.5327296999749,262.5994970999891,262.6498298998922,262.6498298998922,262.6498298998922,262.6498298998922,262.69961649994366,262.69961649994366,262.69961649994366,262.69961649994366,262.69961649994366,262.69961649994366,262.69961649994366,262.69961649994366,262.69961649994366,right,0.4450749000534415,263.1666890999768,263.1666890999768,None,,16,001,2025-12-23_17h51.35.733,2025C_exp1_comp,2022.2.4,59.87665410133082,
29.4,315,1,0,1,67,175,32,263.1666890999768,263.1666890999768,263.6672162999166,263.7341008998919,263.7843626999529,263.7843626999529,263.7843626999529,263.7843626999529,263.83404659992084,263.83404659992084,263.83404659992084,263.83404659992084,263.83404659992084,263.83404659992084,263.83404659992084,263.83404659992084,263.83404659992084,right,0.38253409997560084,264.2343677999452,264.2343677999452,None,,16,001,2025-12-23_17h51.35.733,2025C_exp1_comp,2022.2.4,59.87665410133082,
42.7,45,-1,0,1,68,176,8,264.2343677999452,264.2343677999452,264.7349632999394,264.8017215,264.8520196999889,264.8520196999889,264.8520196999889,264.8520196999889,264.9018432999728,264.9018432999728,264.9018432999728,264.9018432999728,264.9018432999728,264.9018432999728,264.9018432999728,264.9018432999728,264.9018432999728,right,0.49073540000244975,265.41900239989627,265.41900239989627,None,,16,001,2025-12-23_17h51.35.733,2025C_exp1_comp,2022.2.4,59.87665410133082,
29.4,315,-1,0,1,69,177,14,265.41900239989627,265.41900239989627,265.9195324999746,265.9861491000047,266.0364583999617,266.0364583999617,266.0364583999617,266.0364583999617,266.0861733999336,266.0861733999336,266.0861733999336,266.0861733999336,266.0861733999336,266.0861733999336,266.0861733999336,266.0861733999336,266.0861733999336,right,0.6180957000469789,266.736943099997,266.736943099997,None,,16,001,2025-12-23_17h51.35.733,2025C_exp1_comp,2022.2.4,59.87665410133082,
15.7,45,-1,1,1,70,178,37,266.736943099997,266.736943099997,267.23735099995974,267.3041766999522,267.35445639991667,267.35445639991667,267.35445639991667,267.35445639991667,267.4041620999342,267.4041620999342,267.4041620999342,267.4041620999342,267.4041620999342,267.4041620999342,267.4041620999342,267.4041620999342,267.4041620999342,right,0.316291099996306,267.7379138999386,267.7379138999386,None,,16,001,2025-12-23_17h51.35.733,2025C_exp1_comp,2022.2.4,59.87665410133082,
39.2,45,-1,-1,1,71,179,79,267.7379138999386,267.7379138999386,268.23846249992494,268.30519779992756,268.3554876999697,268.3554876999697,268.3554876999697,268.3554876999697,268.40529309993144,268.40529309993144,268.40529309993144,268.40529309993144,268.40529309993144,268.40529309993144,268.40529309993144,268.40529309993144,268.40529309993144,left,0.5875919000245631,269.02249139989726,269.02249139989726,None,,16,001,2025-12-23_17h51.35.733,2025C_exp1_comp,2022.2.4,59.87665410133082,
19.6,315,-1,-1,1,72,180,83,269.02249139989726,269.02249139989726,269.5233318998944,269.5900715999305,269.6401610999601,269.6401610999601,269.6401610999601,269.6401610999601,269.68962629989255,269.68962629989255,269.68962629989255,269.68962629989255,269.68962629989255,269.68962629989255,269.68962629989255,269.68962629989255,269.68962629989255,right,0.5347787000937387,270.2571492999559,270.2571492999559,None,,16,001,2025-12-23_17h51.35.733,2025C_exp1_comp,2022.2.4,59.87665410133082,
39.2,315,-1,0,1,73,181,16,270.2571492999559,270.2571492999559,270.7576512999367,270.8243912999751,270.8746979999123,270.8746979999123,270.8746979999123,270.8746979999123,270.9243284999393,270.9243284999393,270.9243284999393,270.9243284999393,270.9243284999393,270.9243284999393,270.9243284999393,270.9243284999393,270.9243284999393,left,0.6283145999768749,271.57511659990996,271.57511659990996,None,,16,001,2025-12-23_17h51.35.733,2025C_exp1_comp,2022.2.4,59.87665410133082,
22.7,315,1,0,1,74,182,30,271.57511659990996,271.57511659990996,272.0756219999166,272.1423247999046,272.1926680000033,272.1926680000033,272.1926680000033,272.1926680000033,272.24232649989426,272.24232649989426,272.24232649989426,272.24232649989426,272.24232649989426,272.24232649989426,272.24232649989426,272.24232649989426,272.24232649989426,right,0.4948286999715492,272.75957819994073,272.75957819994073,None,,16,001,2025-12-23_17h51.35.733,2025C_exp1_comp,2022.2.4,59.87665410133082,
35.3,45,-1,0,1,75,183,6,272.75957819994073,272.75957819994073,273.2601960999891,273.3269136999734,273.3771463999292,273.3771463999292,273.3771463999292,273.3771463999292,273.42700959998183,273.42700959998183,273.42700959998183,273.42700959998183,273.42700959998183,273.42700959998183,273.42700959998183,273.42700959998183,273.42700959998183,right,0.4852978999260813,273.9441069999011,273.9441069999011,None,,16,001,2025-12-23_17h51.35.733,2025C_exp1_comp,2022.2.4,59.87665410133082,
35.3,315,-1,0,1,76,184,15,273.9441069999011,273.9441069999011,274.44468929991126,274.5114462999627,274.56168329995126,274.56168329995126,274.56168329995126,274.56168329995126,274.61156499991193,274.61156499991193,274.61156499991193,274.61156499991193,274.61156499991193,274.61156499991193,274.61156499991193,274.61156499991193,274.61156499991193,left,0.27717240003403276,274.9117589999223,274.9117589999223,None,,16,001,2025-12-23_17h51.35.733,2025C_exp1_comp,2022.2.4,59.87665410133082,
15.7,315,1,0,1,77,185,28,274.9117589999223,274.9117589999223,275.41241119999904,275.479044699925,275.52940119989216,275.52940119989216,275.52940119989216,275.52940119989216,275.5791222999105,275.5791222999105,275.5791222999105,275.5791222999105,275.5791222999105,275.5791222999105,275.5791222999105,275.5791222999105,275.5791222999105,right,0.30133379995822906,275.9126793999458,275.9126793999458,None,,16,001,2025-12-23_17h51.35.733,2025C_exp1_comp,2022.2.4,59.87665410133082,
22.7,315,1,-1,1,78,186,102,275.9126793999458,275.9126793999458,276.4133243999677,276.47993379994296,276.53035959997214,276.53035959997214,276.53035959997214,276.53035959997214,276.5801693999674,276.5801693999674,276.5801693999674,276.5801693999674,276.5801693999674,276.5801693999674,276.5801693999674,276.5801693999674,276.5801693999674,left,0.22109210002236068,276.8302687999094,276.8302687999094,None,,16,001,2025-12-23_17h51.35.733,2025C_exp1_comp,2022.2.4,59.87665410133082,
22.7,315,1,1,1,79,187,66,276.8302687999094,276.8302687999094,277.330806999933,277.39754139992874,277.4479299999075,277.4479299999075,277.4479299999075,277.4479299999075,277.4977406999096,277.4977406999096,277.4977406999096,277.4977406999096,277.4977406999096,277.4977406999096,277.4977406999096,277.4977406999096,277.4977406999096,right,0.37545340007636696,277.8979504999006,277.8979504999006,None,,16,001,2025-12-23_17h51.35.733,2025C_exp1_comp,2022.2.4,59.87665410133082,
29.4,45,-1,-1,1,80,188,77,277.8979504999006,277.8979504999006,278.3985026999144,278.4653264998924,278.5156345999567,278.5156345999567,278.5156345999567,278.5156345999567,278.56543689989485,278.56543689989485,278.56543689989485,278.56543689989485,278.56543689989485,278.56543689989485,278.56543689989485,278.56543689989485,278.56543689989485,left,0.14655329997185618,278.73211330000777,278.73211330000777,None,,16,001,2025-12-23_17h51.35.733,2025C_exp1_comp,2022.2.4,59.87665410133082,
15.7,45,-1,-1,1,81,189,73,278.73211330000777,278.73211330000777,279.2328538999427,279.2995421999367,279.3497260999866,279.3497260999866,279.3497260999866,279.3497260999866,279.3996521999361,279.3996521999361,279.3996521999361,279.3996521999361,279.3996521999361,279.3996521999361,279.3996521999361,279.3996521999361,279.3996521999361,left,0.2815786999417469,279.6998452999396,279.6998452999396,None,,16,001,2025-12-23_17h51.35.733,2025C_exp1_comp,2022.2.4,59.87665410133082,
19.6,315,1,1,1,82,190,65,279.6998452999396,279.6998452999396,280.20040849992074,280.26711559994146,280.3174403999001,280.3174403999001,280.3174403999001,280.3174403999001,280.3672353998991,280.3672353998991,280.3672353998991,280.3672353998991,280.3672353998991,280.3672353998991,280.3672353998991,280.3672353998991,280.3672353998991,right,0.21009219996631145,280.6006752999965,280.6006752999965,None,,16,001,2025-12-23_17h51.35.733,2025C_exp1_comp,2022.2.4,59.87665410133082,
29.4,315,-1,1,1,83,191,50,280.6006752999965,280.6006752999965,281.1012093999889,281.1679780998966,281.21826389990747,281.21826389990747,281.21826389990747,281.21826389990747,281.26798159989994,281.26798159989994,281.26798159989994,281.26798159989994,281.26798159989994,281.26798159989994,281.26798159989994,281.26798159989994,281.26798159989994,right,0.17254039994440973,281.4683437999338,281.4683437999338,None,,16,001,2025-12-23_17h51.35.733,2025C_exp1_comp,2022.2.4,59.87665410133082,
29.4,315,1,1,1,84,192,68,281.4683437999338,281.4683437999338,281.9688419000013,282.03564089990687,282.0856553999474,282.0856553999474,282.0856553999474,282.0856553999474,282.1353993999073,282.1353993999073,282.1353993999073,282.1353993999073,282.1353993999073,282.1353993999073,282.1353993999073,282.1353993999073,282.1353993999073,right,0.18540329998359084,282.35251909994986,282.35251909994986,None,,16,001,2025-12-23_17h51.35.733,2025C_exp1_comp,2022.2.4,59.87665410133082,
15.7,45,1,1,1,85,193,55,282.35251909994986,282.35251909994986,282.85299099993426,282.919454799965,282.9700226999121,282.9700226999121,282.9700226999121,282.9700226999121,283.019754699897,283.019754699897,283.019754699897,283.019754699897,283.019754699897,283.019754699897,283.019754699897,283.019754699897,283.019754699897,right,0.17255419993307441,283.22009909991175,283.22009909991175,None,,16,001,2025-12-23_17h51.35.733,2025C_exp1_comp,2022.2.4,59.87665410133082,
25.5,45,1,-1,1,86,194,94,283.22009909991175,283.22009909991175,283.7206102999626,283.78721139999107,283.8375692999689,283.8375692999689,283.8375692999689,283.8375692999689,283.8872979999287,283.8872979999287,283.8872979999287,283.8872979999287,283.8872979999287,283.8872979999287,283.8872979999287,283.8872979999287,283.8872979999287,left,0.23333529999945313,284.13776929990854,284.13776929990854,None,,16,001,2025-12-23_17h51.35.733,2025C_exp1_comp,2022.2.4,59.87665410133082,
29.4,45,-1,0,1,87,195,5,284.13776929990854,284.13776929990854,284.63808879989665,284.70491749991197,284.75510559999384,284.75510559999384,284.75510559999384,284.75510559999384,284.8048212999711,284.8048212999711,284.8048212999711,284.8048212999711,284.8048212999711,284.8048212999711,284.8048212999711,284.8048212999711,284.8048212999711,right,0.2516057000029832,285.08862189995125,285.08862189995125,None,,16,001,2025-12-23_17h51.35.733,2025C_exp1_comp,2022.2.4,59.87665410133082,
22.7,45,-1,0,1,88,196,3,285.08862189995125,285.08862189995125,285.58914890000597,285.6558594999369,285.70614469994325,285.70614469994325,285.70614469994325,285.70614469994325,285.75598319992423,285.75598319992423,285.75598319992423,285.75598319992423,285.75598319992423,285.75598319992423,285.75598319992423,285.75598319992423,285.75598319992423,right,2.828101700055413,288.6088072999846,288.6088072999846,None,,16,001,2025-12-23_17h51.35.733,2025C_exp1_comp,2022.2.4,59.87665410133082,
42.7,315,-1,1,1,89,197,53,288.6088072999846,288.6088072999846,289.1091723999707,289.1760804998921,289.2263252999401,289.2263252999401,289.2263252999401,289.2263252999401,289.2760180999758,289.2760180999758,289.2760180999758,289.2760180999758,289.2760180999758,289.2760180999758,289.2760180999758,289.2760180999758,289.2760180999758,right,0.44467110000550747,289.7432852999773,289.7432852999773,None,,16,001,2025-12-23_17h51.35.733,2025C_exp1_comp,2022.2.4,59.87665410133082,
22.7,45,1,0,1,90,198,21,289.7432852999773,289.7432852999773,290.244023899897,290.31063669989817,290.3609507000074,290.3609507000074,290.3609507000074,290.3609507000074,290.41069809999317,290.41069809999317,290.41069809999317,290.41069809999317,290.41069809999317,290.41069809999317,290.41069809999317,290.41069809999317,290.41069809999317,left,0.3499001000309363,290.777510899934,290.777510899934,None,,16,001,2025-12-23_17h51.35.733,2025C_exp1_comp,2022.2.4,59.87665410133082,
15.7,315,1,-1,1,91,199,100,290.777510899934,290.777510899934,291.27800179994665,291.3448541999096,291.39519469998777,291.39519469998777,291.39519469998777,291.39519469998777,291.44494879990816,291.44494879990816,291.44494879990816,291.44494879990816,291.44494879990816,291.44494879990816,291.44494879990816,291.44494879990816,291.44494879990816,left,0.45183839998207986,291.92877529992256,291.92877529992256,None,,16,001,2025-12-23_17h51.35.733,2025C_exp1_comp,2022.2.4,59.87665410133082,
25.5,45,-1,1,1,92,200,40,291.92877529992256,291.92877529992256,292.4293614999624,292.496031699935,292.54607669997495,292.54607669997495,292.54607669997495,292.54607669997495,292.59612749994267,292.59612749994267,292.59612749994267,292.59612749994267,292.59612749994267,292.59612749994267,292.59612749994267,292.59612749994267,292.59612749994267,right,0.3640105000231415,292.97956489992794,292.97956489992794,None,,16,001,2025-12-23_17h51.35.733,2025C_exp1_comp,2022.2.4,59.87665410133082,
42.7,45,1,-1,1,93,201,98,292.97956489992794,292.97956489992794,293.4802278999705,293.54694439994637,293.5973822999513,293.5973822999513,293.5973822999513,293.5973822999513,293.6470472998917,293.6470472998917,293.6470472998917,293.6470472998917,293.6470472998917,293.6470472998917,293.6470472998917,293.6470472998917,293.6470472998917,left,0.4010743999388069,294.0809771999484,294.0809771999484,None,,16,001,2025-12-23_17h51.35.733,2025C_exp1_comp,2022.2.4,59.87665410133082,
22.7,315,-1,0,1,94,202,12,294.0809771999484,294.0809771999484,294.58146479993593,294.647857899894,294.69844760000706,294.69844760000706,294.69844760000706,294.69844760000706,294.74825790000614,294.74825790000614,294.74825790000614,294.74825790000614,294.74825790000614,294.74825790000614,294.74825790000614,294.74825790000614,294.74825790000614,right,0.309127299929969,295.081975899986,295.081975899986,None,,16,001,2025-12-23_17h51.35.733,2025C_exp1_comp,2022.2.4,59.87665410133082,
35.3,315,-1,-1,1,95,203,87,295.081975899986,295.081975899986,295.58261969999876,295.6493086999981,295.6996073999908,295.6996073999908,295.6996073999908,295.6996073999908,295.7492834998993,295.7492834998993,295.7492834998993,295.7492834998993,295.7492834998993,295.7492834998993,295.7492834998993,295.7492834998993,295.7492834998993,left,0.2833783000241965,296.04959919990506,296.04959919990506,None,,16,001,2025-12-23_17h51.35.733,2025C_exp1_comp,2022.2.4,59.87665410133082,
25.5,315,1,-1,1,96,204,103,296.04959919990506,296.04959919990506,296.5500883999048,296.616874899948,296.66716909990646,296.66716909990646,296.66716909990646,296.66716909990646,296.716628999915,296.716628999915,296.716628999915,296.716628999915,296.716628999915,296.716628999915,296.716628999915,296.716628999915,296.716628999915,right,0.31587670010048896,297.0505786999129,297.0505786999129,None,,16,001,2025-12-23_17h51.35.733,2025C_exp1_comp,2022.2.4,59.87665410133082,
22.7,45,-1,1,1,97,205,39,297.0505786999129,297.0505786999129,297.55111100000795,297.61775759991724,297.66798719996586,297.66798719996586,297.66798719996586,297.66798719996586,297.7178956998978,297.7178956998978,297.7178956998978,297.7178956998978,297.7178956998978,297.7178956998978,297.7178956998978,297.7178956998978,297.7178956998978,left,0.38705250003840774,298.1349777999567,298.1349777999567,None,,16,001,2025-12-23_17h51.35.733,2025C_exp1_comp,2022.2.4,59.87665410133082,
