contrast,ori,lefttarget,righttarget,postcue,precue,trials.thisRepN,trials.thisTrialN,trials.thisN,trials.thisIndex,fix1.started,fix2.started,precue_2.started,precue_2.stopped,left_grating.started,right_grating.started,noise_left.started,noise_right.started,fix1.stopped,fix2.stopped,left_grating.stopped,right_grating.stopped,noise_left.stopped,noise_right.stopped,key_resp.started,postcue_2.started,fix1_2.started,fix2_2.started,key_resp.keys,key_resp.rt,key_resp_2.started,break_text_2.started,key_resp_2.keys,key_resp_2.rt,participant,session,date,expName,psychopyVersion,frameRate,
29.4,45,0,0,1,1,0,0,0,365,60.112346699927,60.112346699927,60.582039299886674,60.64867810020223,60.70795339997858,60.70795339997858,60.70795339997858,60.70795339997858,60.74878130014986,60.74878130014986,60.74878130014986,60.74878130014986,60.74878130014986,60.74878130014986,60.76574689988047,60.76574689988047,60.76574689988047,60.76574689988047,num_1,13.87751969974488,74.66287739994004,74.66287739994004,None,,1,001,2025-12-16_10h46.44.982,2025C_exp1_detect,2022.2.4,59.929870104094185,
12.1,45,0,0,-1,1,0,1,1,288,74.66287739994004,74.66287739994004,75.16349590010941,75.23034420004115,75.28066200017929,75.28066200017929,75.28066200017929,75.28066200017929,75.3303908999078,75.3303908999078,75.3303908999078,75.3303908999078,75.3303908999078,75.3303908999078,75.3303908999078,75.3303908999078,75.3303908999078,75.3303908999078,num_3,2.144236699678004,77.49915709998459,77.49915709998459,None,,1,001,2025-12-16_10h46.44.982,2025C_exp1_detect,2022.2.4,59.929870104094185,
35.3,315,1,0,-1,0,0,2,2,33,77.49915709998459,77.49915709998459,77.99960040021688,78.06640610005707,78.116694400087,78.116694400087,78.116694400087,78.116694400087,78.16647930024192,78.16647930024192,78.16647930024192,78.16647930024192,78.16647930024192,78.16647930024192,78.16647930024192,78.16647930024192,78.16647930024192,78.16647930024192,num_3,0.96360639994964,79.15078520029783,79.15078520029783,None,,1,001,2025-12-16_10h46.44.982,2025C_exp1_detect,2022.2.4,59.929870104094185,
29.4,45,0,1,1,0,0,3,3,113,79.15078520029783,79.15078520029783,79.65130549995229,79.71804870013148,79.76836680015549,79.76836680015549,79.76836680015549,79.76836680015549,79.81811820017174,79.81811820017174,79.81811820017174,79.81811820017174,79.81811820017174,79.81811820017174,79.81811820017174,79.81811820017174,79.81811820017174,79.81811820017174,num_3,2.169012200087309,82.00367280002683,82.00367280002683,None,,1,001,2025-12-16_10h46.44.982,2025C_exp1_detect,2022.2.4,59.929870104094185,
15.7,45,0,1,-1,1,0,4,4,325,82.00367280002683,82.00367280002683,82.50402610003948,82.57089950004593,82.62091060029343,82.62091060029343,82.62091060029343,82.62091060029343,82.67078839987516,82.67078839987516,82.67078839987516,82.67078839987516,82.67078839987516,82.67078839987516,82.67078839987516,82.67078839987516,82.67078839987516,82.67078839987516,num_3,1.9875788995996118,84.68968430021778,84.68968430021778,None,,1,001,2025-12-16_10h46.44.982,2025C_exp1_detect,2022.2.4,59.929870104094185,
19.6,45,0,1,1,-1,0,5,5,254,84.68968430021778,84.68968430021778,85.19013600004837,85.25691229989752,85.3070348999463,85.3070348999463,85.3070348999463,85.3070348999463,85.3569764001295,85.3569764001295,85.3569764001295,85.3569764001295,85.3569764001295,85.3569764001295,85.3569764001295,85.3569764001295,85.3569764001295,85.3569764001295,num_1,0.8932928000576794,86.2743175001815,86.2743175001815,None,,1,001,2025-12-16_10h46.44.982,2025C_exp1_detect,2022.2.4,59.929870104094185,
22.7,45,1,1,-1,-1,0,6,6,201,86.2743175001815,86.2743175001815,86.77480849996209,86.84171350020915,86.89210919989273,86.89210919989273,86.89210919989273,86.89210919989273,86.94187260000035,86.94187260000035,86.94187260000035,86.94187260000035,86.94187260000035,86.94187260000035,86.94187260000035,86.94187260000035,86.94187260000035,86.94187260000035,num_3,0.8207775996997952,87.79258310003206,87.79258310003206,None,,1,001,2025-12-16_10h46.44.982,2025C_exp1_detect,2022.2.4,59.929870104094185,
25.5,315,0,0,-1,-1,0,7,7,157,87.79258310003206,87.79258310003206,88.2933034999296,88.36002610018477,88.41035250015557,88.41035250015557,88.41035250015557,88.41035250015557,88.46016580006108,88.46016580006108,88.46016580006108,88.46016580006108,88.46016580006108,88.46016580006108,88.46016580006108,88.46016580006108,88.46016580006108,88.46016580006108,num_3,1.342830099631101,89.82791280001402,89.82791280001402,None,,1,001,2025-12-16_10h46.44.982,2025C_exp1_detect,2022.2.4,59.929870104094185,
15.7,45,0,1,1,-1,0,8,8,253,89.82791280001402,89.82791280001402,90.32852610014379,90.39538990007713,90.44556770008057,90.44556770008057,90.44556770008057,90.44556770008057,90.49544660001993,90.49544660001993,90.49544660001993,90.49544660001993,90.49544660001993,90.49544660001993,90.49544660001993,90.49544660001993,90.49544660001993,90.49544660001993,num_1,0.6342381997965276,91.14591629989445,91.14591629989445,None,,1,001,2025-12-16_10h46.44.982,2025C_exp1_detect,2022.2.4,59.929870104094185,
29.4,45,1,0,1,1,0,9,9,383,91.14591629989445,91.14591629989445,91.64678379986435,91.71334849996492,91.76381050003693,91.76381050003693,91.76381050003693,91.76381050003693,91.81357400026172,91.81357400026172,91.81357400026172,91.81357400026172,91.81357400026172,91.81357400026172,91.81357400026172,91.81357400026172,91.81357400026172,91.81357400026172,num_3,0.7654569000005722,92.59732179995626,92.59732179995626,None,,1,001,2025-12-16_10h46.44.982,2025C_exp1_detect,2022.2.4,59.929870104094185,
15.7,45,1,1,-1,-1,0,10,10,199,92.59732179995626,92.59732179995626,93.09803860029206,93.16477539995685,93.21513180015609,93.21513180015609,93.21513180015609,93.21513180015609,93.26501000020653,93.26501000020653,93.26501000020653,93.26501000020653,93.26501000020653,93.26501000020653,93.26501000020653,93.26501000020653,93.26501000020653,93.26501000020653,num_3,0.9459502995014191,94.23227469995618,94.23227469995618,None,,1,001,2025-12-16_10h46.44.982,2025C_exp1_detect,2022.2.4,59.929870104094185,
19.6,45,1,1,-1,-1,0,11,11,200,94.23227469995618,94.23227469995618,94.73315030010417,94.7997628999874,94.85015750024468,94.85015750024468,94.85015750024468,94.85015750024468,94.8999721002765,94.8999721002765,94.8999721002765,94.8999721002765,94.8999721002765,94.8999721002765,94.8999721002765,94.8999721002765,94.8999721002765,94.8999721002765,num_3,0.8863079999573529,95.8176009003073,95.8176009003073,None,,1,001,2025-12-16_10h46.44.982,2025C_exp1_detect,2022.2.4,59.929870104094185,
42.7,315,0,0,1,0,0,12,12,89,95.8176009003073,95.8176009003073,96.3180207000114,96.38468610029668,96.43493039999157,96.43493039999157,96.43493039999157,96.43493039999157,96.48476030025631,96.48476030025631,96.48476030025631,96.48476030025631,96.48476030025631,96.48476030025631,96.48476030025631,96.48476030025631,96.48476030025631,96.48476030025631,num_1,1.0140216001309454,97.51893089991063,97.51893089991063,None,,1,001,2025-12-16_10h46.44.982,2025C_exp1_detect,2022.2.4,59.929870104094185,
29.4,45,1,0,1,-1,0,13,13,239,97.51893089991063,97.51893089991063,98.01975130010396,98.0864682001993,98.13676790008321,98.13676790008321,98.13676790008321,98.13676790008321,98.18659720011055,98.18659720011055,98.18659720011055,98.18659720011055,98.18659720011055,98.18659720011055,98.18659720011055,98.18659720011055,98.18659720011055,98.18659720011055,num_3,0.6713438997976482,98.88700670003891,98.88700670003891,None,,1,001,2025-12-16_10h46.44.982,2025C_exp1_detect,2022.2.4,59.929870104094185,
19.6,315,0,1,1,1,0,14,14,407,98.88700670003891,98.88700670003891,99.38771709986031,99.45435550017282,99.50466920016333,99.50466920016333,99.50466920016333,99.50466920016333,99.5545985000208,99.5545985000208,99.5545985000208,99.5545985000208,99.5545985000208,99.5545985000208,99.5545985000208,99.5545985000208,99.5545985000208,99.5545985000208,num_1,0.6002309997566044,100.17162690032274,100.17162690032274,None,,1,001,2025-12-16_10h46.44.982,2025C_exp1_detect,2022.2.4,59.929870104094185,
25.5,315,0,1,1,1,0,15,15,409,100.17162690032274,100.17162690032274,100.67238810006529,100.73894690023735,100.78941920027137,100.78941920027137,100.78941920027137,100.78941920027137,100.83913620002568,100.83913620002568,100.83913620002568,100.83913620002568,100.83913620002568,100.83913620002568,100.83913620002568,100.83913620002568,100.83913620002568,100.83913620002568,num_1,0.7797599993646145,101.6397648002021,101.6397648002021,None,,1,001,2025-12-16_10h46.44.982,2025C_exp1_detect,2022.2.4,59.929870104094185,
19.6,45,1,0,1,-1,0,16,16,236,101.6397648002021,101.6397648002021,102.14039950026199,102.20715739997104,102.25751930009574,102.25751930009574,102.25751930009574,102.25751930009574,102.30735359992832,102.30735359992832,102.30735359992832,102.30735359992832,102.30735359992832,102.30735359992832,102.30735359992832,102.30735359992832,102.30735359992832,102.30735359992832,num_3,0.6316032996401191,102.95772209996358,102.95772209996358,None,,1,001,2025-12-16_10h46.44.982,2025C_exp1_detect,2022.2.4,59.929870104094185,
39.2,315,0,0,1,1,0,17,17,376,102.95772209996358,102.95772209996358,103.45822470029816,103.52514240005985,103.57537950016558,103.57537950016558,103.57537950016558,103.57537950016558,103.62504270020872,103.62504270020872,103.62504270020872,103.62504270020872,103.62504270020872,103.62504270020872,103.62504270020872,103.62504270020872,103.62504270020872,103.62504270020872,num_3,0.7135958997532725,104.35903140017763,104.35903140017763,None,,1,001,2025-12-16_10h46.44.982,2025C_exp1_detect,2022.2.4,59.929870104094185,
39.2,45,1,1,-1,-1,0,18,18,205,104.35903140017763,104.35903140017763,104.85972309997305,104.92659679986537,104.97688920004293,104.97688920004293,104.97688920004293,104.97688920004293,105.02676360029727,105.02676360029727,105.02676360029727,105.02676360029727,105.02676360029727,105.02676360029727,105.02676360029727,105.02676360029727,105.02676360029727,105.02676360029727,num_3,0.69539579981938,105.74386089993641,105.74386089993641,None,,1,001,2025-12-16_10h46.44.982,2025C_exp1_detect,2022.2.4,59.929870104094185,
22.7,315,1,1,1,-1,0,19,19,282,105.74386089993641,105.74386089993641,106.2447379999794,106.31146509991959,106.36152009991929,106.36152009991929,106.36152009991929,106.36152009991929,106.41144230030477,106.41144230030477,106.41144230030477,106.41144230030477,106.41144230030477,106.41144230030477,106.41144230030477,106.41144230030477,106.41144230030477,106.41144230030477,num_1,0.8631586995907128,107.29542730003595,107.29542730003595,None,,1,001,2025-12-16_10h46.44.982,2025C_exp1_detect,2022.2.4,59.929870104094185,
42.7,45,0,1,1,0,0,20,20,116,107.29542730003595,107.29542730003595,107.79598629986867,107.86282420018688,107.91314620012417,107.91314620012417,107.91314620012417,107.91314620012417,107.96298860013485,107.96298860013485,107.96298860013485,107.96298860013485,107.96298860013485,107.96298860013485,107.96298860013485,107.96298860013485,107.96298860013485,107.96298860013485,num_1,0.5679303999058902,108.56335770012811,108.56335770012811,None,,1,001,2025-12-16_10h46.44.982,2025C_exp1_detect,2022.2.4,59.929870104094185,
29.4,45,0,0,1,0,0,21,21,77,108.56335770012811,108.56335770012811,109.06409890018404,109.13078289991245,109.18098449986428,109.18098449986428,109.18098449986428,109.18098449986428,109.23095729993656,109.23095729993656,109.23095729993656,109.23095729993656,109.23095729993656,109.23095729993656,109.23095729993656,109.23095729993656,109.23095729993656,109.23095729993656,num_3,0.6119639999233186,109.86464670021087,109.86464670021087,None,,1,001,2025-12-16_10h46.44.982,2025C_exp1_detect,2022.2.4,59.929870104094185,
39.2,315,0,0,-1,0,0,22,22,16,109.86464670021087,109.86464670021087,110.36547930026427,110.43191080028191,110.48248280026019,110.48248280026019,110.48248280026019,110.48248280026019,110.53221110021695,110.53221110021695,110.53221110021695,110.53221110021695,110.53221110021695,110.53221110021695,110.53221110021695,110.53221110021695,110.53221110021695,110.53221110021695,num_3,0.4703111997805536,111.03244270011783,111.03244270011783,None,,1,001,2025-12-16_10h46.44.982,2025C_exp1_detect,2022.2.4,59.929870104094185,
35.3,45,0,1,-1,0,0,23,23,42,111.03244270011783,111.03244270011783,111.53320720000193,111.59991910029203,111.65019039995968,111.65019039995968,111.65019039995968,111.65019039995968,111.6999591998756,111.6999591998756,111.6999591998756,111.6999591998756,111.6999591998756,111.6999591998756,111.6999591998756,111.6999591998756,111.6999591998756,111.6999591998756,num_3,0.7178933001123369,112.43380089988932,112.43380089988932,None,,1,001,2025-12-16_10h46.44.982,2025C_exp1_detect,2022.2.4,59.929870104094185,
35.3,315,0,0,-1,-1,0,24,24,159,112.43380089988932,112.43380089988932,112.93457320006564,113.00139540014789,113.0516542000696,113.0516542000696,113.0516542000696,113.0516542000696,113.10148800024763,113.10148800024763,113.10148800024763,113.10148800024763,113.10148800024763,113.10148800024763,113.10148800024763,113.10148800024763,113.10148800024763,113.10148800024763,num_3,0.8294271999038756,113.95200000004843,113.95200000004843,None,,1,001,2025-12-16_10h46.44.982,2025C_exp1_detect,2022.2.4,59.929870104094185,
15.7,45,1,0,1,-1,0,25,25,235,113.95200000004843,113.95200000004843,114.4527223999612,114.51935680024326,114.56986070005223,114.56986070005223,114.56986070005223,114.56986070005223,114.61960770003498,114.61960770003498,114.61960770003498,114.61960770003498,114.61960770003498,114.61960770003498,114.61960770003498,114.61960770003498,114.61960770003498,114.61960770003498,num_3,0.6154815996997058,115.25325020030141,115.25325020030141,None,,1,001,2025-12-16_10h46.44.982,2025C_exp1_detect,2022.2.4,59.929870104094185,
12.1,45,0,1,1,1,0,26,26,396,115.25325020030141,115.25325020030141,115.75408900016919,115.82058100029826,115.8710385998711,115.8710385998711,115.8710385998711,115.8710385998711,115.92066559987143,115.92066559987143,115.92066559987143,115.92066559987143,115.92066559987143,115.92066559987143,115.92066559987143,115.92066559987143,115.92066559987143,115.92066559987143,num_1,0.6265904996544123,116.57125629996881,116.57125629996881,None,,1,001,2025-12-16_10h46.44.982,2025C_exp1_detect,2022.2.4,59.929870104094185,
12.1,45,1,1,1,0,0,27,27,126,116.57125629996881,116.57125629996881,117.0720363999717,117.13895850023255,117.18914390029386,117.18914390029386,117.18914390029386,117.18914390029386,117.23900790000334,117.23900790000334,117.23900790000334,117.23900790000334,117.23900790000334,117.23900790000334,117.23900790000334,117.23900790000334,117.23900790000334,117.23900790000334,num_1,0.6750902999192476,117.93932359991595,117.93932359991595,None,,1,001,2025-12-16_10h46.44.982,2025C_exp1_detect,2022.2.4,59.929870104094185,
15.7,45,0,0,1,0,0,28,28,73,117.93932359991595,117.93932359991595,118.44010880030692,118.50682960031554,118.55713950004429,118.55713950004429,118.55713950004429,118.55713950004429,118.607011300046,118.607011300046,118.607011300046,118.607011300046,118.607011300046,118.607011300046,118.607011300046,118.607011300046,118.607011300046,118.607011300046,num_3,0.4526971001178026,119.0904764002189,119.0904764002189,None,,1,001,2025-12-16_10h46.44.982,2025C_exp1_detect,2022.2.4,59.929870104094185,
29.4,315,1,0,-1,1,0,29,29,320,119.0904764002189,119.0904764002189,119.5910771000199,119.6579642998986,119.70808340003714,119.70808340003714,119.70808340003714,119.70808340003714,119.75793630024418,119.75793630024418,119.75793630024418,119.75793630024418,119.75793630024418,119.75793630024418,119.75793630024418,119.75793630024418,119.75793630024418,119.75793630024418,num_3,0.509003299754113,120.29164730012417,120.29164730012417,None,,1,001,2025-12-16_10h46.44.982,2025C_exp1_detect,2022.2.4,59.929870104094185,
15.7,315,0,1,-1,0,0,30,30,46,120.29164730012417,120.29164730012417,120.79221880016848,120.85908000031486,120.90949100023136,120.90949100023136,120.90949100023136,120.90949100023136,120.95922790002078,120.95922790002078,120.95922790002078,120.95922790002078,120.95922790002078,120.95922790002078,120.95922790002078,120.95922790002078,120.95922790002078,120.95922790002078,num_3,0.7156131993979216,121.6930873002857,121.6930873002857,None,,1,001,2025-12-16_10h46.44.982,2025C_exp1_detect,2022.2.4,59.929870104094185,
12.1,45,1,0,1,-1,0,31,31,234,121.6930873002857,121.6930873002857,122.19371040025726,122.26057759998366,122.31092699989676,122.31092699989676,122.31092699989676,122.31092699989676,122.3608853998594,122.3608853998594,122.3608853998594,122.3608853998594,122.3608853998594,122.3608853998594,122.3608853998594,122.3608853998594,122.3608853998594,122.3608853998594,num_3,0.6248625996522605,123.01104680029675,123.01104680029675,None,,1,001,2025-12-16_10h46.44.982,2025C_exp1_detect,2022.2.4,59.929870104094185,
22.7,45,0,0,1,1,0,32,32,363,123.01104680029675,123.01104680029675,123.51168549992144,123.57842680020258,123.62885540025309,123.62885540025309,123.62885540025309,123.62885540025309,123.67860569991171,123.67860569991171,123.67860569991171,123.67860569991171,123.67860569991171,123.67860569991171,123.67860569991171,123.67860569991171,123.67860569991171,123.67860569991171,num_3,0.5633213995024562,124.26262870011851,124.26262870011851,None,,1,001,2025-12-16_10h46.44.982,2025C_exp1_detect,2022.2.4,59.929870104094185,
42.7,315,0,0,1,1,0,33,33,377,124.26262870011851,124.26262870011851,124.76309949997813,124.82980789989233,124.88010579999536,124.88010579999536,124.88010579999536,124.88010579999536,124.92996959993616,124.92996959993616,124.92996959993616,124.92996959993616,124.92996959993616,124.92996959993616,124.92996959993616,124.92996959993616,124.92996959993616,124.92996959993616,num_3,0.6484654997475445,125.59695699997246,125.59695699997246,None,,1,001,2025-12-16_10h46.44.982,2025C_exp1_detect,2022.2.4,59.929870104094185,
15.7,315,1,0,-1,1,0,34,34,316,125.59695699997246,125.59695699997246,126.09772399999201,126.16449910029769,126.21476030023769,126.21476030023769,126.21476030023769,126.21476030023769,126.26438880013302,126.26438880013302,126.26438880013302,126.26438880013302,126.26438880013302,126.26438880013302,126.26438880013302,126.26438880013302,126.26438880013302,126.26438880013302,num_1,0.4974934998899698,126.78155159996822,126.78155159996822,None,,1,001,2025-12-16_10h46.44.982,2025C_exp1_detect,2022.2.4,59.929870104094185,
12.1,315,0,0,-1,-1,0,35,35,153,126.78155159996822,126.78155159996822,127.28236720012501,127.34897230006754,127.39929040009156,127.39929040009156,127.39929040009156,127.39929040009156,127.44912600005046,127.44912600005046,127.44912600005046,127.44912600005046,127.44912600005046,127.44912600005046,127.44912600005046,127.44912600005046,127.44912600005046,127.44912600005046,num_3,0.6900437995791435,128.16625310014933,128.16625310014933,None,,1,001,2025-12-16_10h46.44.982,2025C_exp1_detect,2022.2.4,59.929870104094185,
42.7,315,0,1,-1,-1,0,36,36,197,128.16625310014933,128.16625310014933,128.66699440032244,128.7337016002275,128.78402090026066,128.78402090026066,128.78402090026066,128.78402090026066,128.83389020012692,128.83389020012692,128.83389020012692,128.83389020012692,128.83389020012692,128.83389020012692,128.83389020012692,128.83389020012692,128.83389020012692,128.83389020012692,num_3,0.4973968998529017,129.3507437002845,129.3507437002845,None,,1,001,2025-12-16_10h46.44.982,2025C_exp1_detect,2022.2.4,59.929870104094185,
19.6,45,0,0,-1,0,0,37,37,2,129.3507437002845,129.3507437002845,129.85153339989483,129.9181840000674,129.96859099995345,129.96859099995345,129.96859099995345,129.96859099995345,130.01839079987258,130.01839079987258,130.01839079987258,130.01839079987258,130.01839079987258,130.01839079987258,130.01839079987258,130.01839079987258,130.01839079987258,130.01839079987258,num_3,0.4635211997665465,130.50224360032007,130.50224360032007,None,,1,001,2025-12-16_10h46.44.982,2025C_exp1_detect,2022.2.4,59.929870104094185,
39.2,45,1,1,-1,1,0,38,38,349,130.50224360032007,130.50224360032007,131.00265259994194,131.06938750017434,131.11968930019066,131.11968930019066,131.11968930019066,131.11968930019066,131.16954419994727,131.16954419994727,131.16954419994727,131.16954419994727,131.16954419994727,131.16954419994727,131.16954419994727,131.16954419994727,131.16954419994727,131.16954419994727,num_1,0.5207111993804574,131.71975150005892,131.71975150005892,None,,1,001,2025-12-16_10h46.44.982,2025C_exp1_detect,2022.2.4,59.929870104094185,
12.1,315,0,1,1,1,0,39,39,405,131.71975150005892,131.71975150005892,132.22055440023541,132.28723070025444,132.33755860012025,132.33755860012025,132.33755860012025,132.33755860012025,132.38731010025367,132.38731010025367,132.38731010025367,132.38731010025367,132.38731010025367,132.38731010025367,132.38731010025367,132.38731010025367,132.38731010025367,132.38731010025367,num_1,0.615204599685967,133.0210514999926,133.0210514999926,None,,1,001,2025-12-16_10h46.44.982,2025C_exp1_detect,2022.2.4,59.929870104094185,
19.6,45,1,1,-1,0,0,40,40,56,133.0210514999926,133.0210514999926,133.5218581003137,133.58854660019279,133.6388187999837,133.6388187999837,133.6388187999837,133.6388187999837,133.68867890024558,133.68867890024558,133.68867890024558,133.68867890024558,133.68867890024558,133.68867890024558,133.68867890024558,133.68867890024558,133.68867890024558,133.68867890024558,num_1,0.505982999689877,134.22224829997867,134.22224829997867,None,,1,001,2025-12-16_10h46.44.982,2025C_exp1_detect,2022.2.4,59.929870104094185,
25.5,315,1,1,1,0,0,41,41,139,134.22224829997867,134.22224829997867,134.7231288999319,134.78958950005472,134.84006319986656,134.84006319986656,134.84006319986656,134.84006319986656,134.8898812001571,134.8898812001571,134.8898812001571,134.8898812001571,134.8898812001571,134.8898812001571,134.8898812001571,134.8898812001571,134.8898812001571,134.8898812001571,num_1,0.569518799893558,135.4901840002276,135.4901840002276,None,,1,001,2025-12-16_10h46.44.982,2025C_exp1_detect,2022.2.4,59.929870104094185,
12.1,315,0,1,1,0,0,42,42,117,135.4901840002276,135.4901840002276,135.991006300319,136.0575472000055,136.10798350023106,136.10798350023106,136.10798350023106,136.10798350023106,136.15785250021145,136.15785250021145,136.15785250021145,136.15785250021145,136.15785250021145,136.15785250021145,136.15785250021145,136.15785250021145,136.15785250021145,136.15785250021145,num_1,0.5004835994914174,136.67474320018664,136.67474320018664,None,,1,001,2025-12-16_10h46.44.982,2025C_exp1_detect,2022.2.4,59.929870104094185,
19.6,315,0,0,1,-1,0,43,43,227,136.67474320018664,136.67474320018664,137.17548310011625,137.24219819996506,137.29248559987172,137.29248559987172,137.29248559987172,137.29248559987172,137.34237700002268,137.34237700002268,137.34237700002268,137.34237700002268,137.34237700002268,137.34237700002268,137.34237700002268,137.34237700002268,137.34237700002268,137.34237700002268,num_1,0.4524323996156454,137.82584290020168,137.82584290020168,None,,1,001,2025-12-16_10h46.44.982,2025C_exp1_detect,2022.2.4,59.929870104094185,
42.7,45,0,0,1,0,0,44,44,80,137.82584290020168,137.82584290020168,138.32663650019094,138.3933067000471,138.44363850029185,138.44363850029185,138.44363850029185,138.44363850029185,138.4934902000241,138.4934902000241,138.4934902000241,138.4934902000241,138.4934902000241,138.4934902000241,138.4934902000241,138.4934902000241,138.4934902000241,138.4934902000241,num_3,0.47696939995512366,138.99375150026754,138.99375150026754,None,,1,001,2025-12-16_10h46.44.982,2025C_exp1_detect,2022.2.4,59.929870104094185,
19.6,45,0,0,-1,1,0,45,45,290,138.99375150026754,138.99375150026754,139.49434340000153,139.56116720009595,139.61149120004848,139.61149120004848,139.61149120004848,139.61149120004848,139.66134850028902,139.66134850028902,139.66134850028902,139.66134850028902,139.66134850028902,139.66134850028902,139.66134850028902,139.66134850028902,139.66134850028902,139.66134850028902,num_3,0.5175492996349931,140.19490349991247,140.19490349991247,None,,1,001,2025-12-16_10h46.44.982,2025C_exp1_detect,2022.2.4,59.929870104094185,
29.4,315,1,1,-1,1,0,46,46,356,140.19490349991247,140.19490349991247,140.6955690998584,140.76219099992886,140.81242679990828,140.81242679990828,140.81242679990828,140.81242679990828,140.8626335998997,140.8626335998997,140.8626335998997,140.8626335998997,140.8626335998997,140.8626335998997,140.8626335998997,140.8626335998997,140.8626335998997,140.8626335998997,num_3,0.5314118997193873,141.4127989001572,141.4127989001572,None,,1,001,2025-12-16_10h46.44.982,2025C_exp1_detect,2022.2.4,59.929870104094185,
25.5,45,0,1,-1,0,0,47,47,40,141.4127989001572,141.4127989001572,141.91338510019705,141.98030340019614,142.03047330025584,142.03047330025584,142.03047330025584,142.03047330025584,142.08042210014537,142.08042210014537,142.08042210014537,142.08042210014537,142.08042210014537,142.08042210014537,142.08042210014537,142.08042210014537,142.08042210014537,142.08042210014537,num_3,0.7225759997963905,142.83087110007182,142.83087110007182,None,,1,001,2025-12-16_10h46.44.982,2025C_exp1_detect,2022.2.4,59.929870104094185,
22.7,315,0,1,-1,0,0,48,48,48,142.83087110007182,142.83087110007182,143.33153640013188,143.3983098003082,143.448512500152,143.448512500152,143.448512500152,143.448512500152,143.4984769001603,143.4984769001603,143.4984769001603,143.4984769001603,143.4984769001603,143.4984769001603,143.4984769001603,143.4984769001603,143.4984769001603,143.4984769001603,num_3,0.519695199560374,144.04873119993135,144.04873119993135,None,,1,001,2025-12-16_10h46.44.982,2025C_exp1_detect,2022.2.4,59.929870104094185,
25.5,315,0,0,1,0,0,49,49,85,144.04873119993135,144.04873119993135,144.5495597999543,144.61626140028238,144.66646420024335,144.66646420024335,144.66646420024335,144.66646420024335,144.71630239998922,144.71630239998922,144.71630239998922,144.71630239998922,144.71630239998922,144.71630239998922,144.71630239998922,144.71630239998922,144.71630239998922,144.71630239998922,num_3,0.4787397999316454,145.21664240024984,145.21664240024984,None,,1,001,2025-12-16_10h46.44.982,2025C_exp1_detect,2022.2.4,59.929870104094185,
22.7,315,1,1,-1,-1,0,50,50,210,145.21664240024984,145.21664240024984,145.71754019986838,145.78411830030382,145.83420759998262,145.83420759998262,145.83420759998262,145.83420759998262,145.88424220029265,145.88424220029265,145.88424220029265,145.88424220029265,145.88424220029265,145.88424220029265,145.88424220029265,145.88424220029265,145.88424220029265,145.88424220029265,num_1,0.42988000018522143,146.3343099001795,146.3343099001795,None,,1,001,2025-12-16_10h46.44.982,2025C_exp1_detect,2022.2.4,59.929870104094185,
15.7,315,1,0,-1,-1,0,51,51,172,146.3343099001795,146.3343099001795,146.83504940010607,146.90185930021107,146.95218380028382,146.95218380028382,146.95218380028382,146.95218380028382,147.00200159987435,147.00200159987435,147.00200159987435,147.00200159987435,147.00200159987435,147.00200159987435,147.00200159987435,147.00200159987435,147.00200159987435,147.00200159987435,num_1,0.5042203995399177,147.53574110008776,147.53574110008776,None,,1,001,2025-12-16_10h46.44.982,2025C_exp1_detect,2022.2.4,59.929870104094185,
19.6,315,0,0,-1,-1,0,52,52,155,147.53574110008776,147.53574110008776,148.0362137001939,148.10309460014105,148.15325720002875,148.15325720002875,148.15325720002875,148.15325720002875,148.20324990013614,148.20324990013614,148.20324990013614,148.20324990013614,148.20324990013614,148.20324990013614,148.20324990013614,148.20324990013614,148.20324990013614,148.20324990013614,num_3,0.4471942996606231,148.67004380002618,148.67004380002618,None,,1,001,2025-12-16_10h46.44.982,2025C_exp1_detect,2022.2.4,59.929870104094185,
22.7,315,1,0,-1,1,0,53,53,318,148.67004380002618,148.67004380002618,149.17053420003504,149.23752960003912,149.28773780027404,149.28773780027404,149.28773780027404,149.28773780027404,149.33758450020105,149.33758450020105,149.33758450020105,149.33758450020105,149.33758450020105,149.33758450020105,149.33758450020105,149.33758450020105,149.33758450020105,149.33758450020105,num_1,0.44905179971829057,149.80452710017562,149.80452710017562,None,,1,001,2025-12-16_10h46.44.982,2025C_exp1_detect,2022.2.4,59.929870104094185,
19.6,315,0,0,1,0,0,54,54,83,149.80452710017562,149.80452710017562,150.30543059995398,150.37216120027006,150.4220878998749,150.4220878998749,150.4220878998749,150.4220878998749,150.472223599907,150.472223599907,150.472223599907,150.472223599907,150.472223599907,150.472223599907,150.472223599907,150.472223599907,150.472223599907,150.472223599907,num_3,0.658782699611038,151.15591769991443,151.15591769991443,None,,1,001,2025-12-16_10h46.44.982,2025C_exp1_detect,2022.2.4,59.929870104094185,
29.4,315,0,0,1,1,0,55,55,374,151.15591769991443,151.15591769991443,151.6566555001773,151.72334589995444,151.77367440005764,151.77367440005764,151.77367440005764,151.77367440005764,151.82351149991155,151.82351149991155,151.82351149991155,151.82351149991155,151.82351149991155,151.82351149991155,151.82351149991155,151.82351149991155,151.82351149991155,151.82351149991155,num_3,0.45945570012554526,152.30699730012566,152.30699730012566,None,,1,001,2025-12-16_10h46.44.982,2025C_exp1_detect,2022.2.4,59.929870104094185,
29.4,315,1,0,-1,-1,0,56,56,176,152.30699730012566,152.30699730012566,152.807775599882,152.87451530015096,152.9248584001325,152.9248584001325,152.9248584001325,152.9248584001325,152.97467060014606,152.97467060014606,152.97467060014606,152.97467060014606,152.97467060014606,152.97467060014606,152.97467060014606,152.97467060014606,152.97467060014606,152.97467060014606,num_1,0.3555759000591934,153.35810810001567,153.35810810001567,None,,1,001,2025-12-16_10h46.44.982,2025C_exp1_detect,2022.2.4,59.929870104094185,
22.7,315,1,1,-1,1,0,57,57,354,153.35810810001567,153.35810810001567,153.85877649998292,153.9255635999143,153.97587689990178,153.97587689990178,153.97587689990178,153.97587689990178,154.0257151001133,154.0257151001133,154.0257151001133,154.0257151001133,154.0257151001133,154.0257151001133,154.0257151001133,154.0257151001133,154.0257151001133,154.0257151001133,num_1,0.4095323998481035,154.4591386001557,154.4591386001557,None,,1,001,2025-12-16_10h46.44.982,2025C_exp1_detect,2022.2.4,59.929870104094185,
29.4,45,0,1,-1,-1,0,58,58,185,154.4591386001557,154.4591386001557,154.95994829991832,155.0266769998707,155.07700210018083,155.07700210018083,155.07700210018083,155.07700210018083,155.1267014001496,155.1267014001496,155.1267014001496,155.1267014001496,155.1267014001496,155.1267014001496,155.1267014001496,155.1267014001496,155.1267014001496,155.1267014001496,num_3,0.516002899967134,155.66040740022436,155.66040740022436,None,,1,001,2025-12-16_10h46.44.982,2025C_exp1_detect,2022.2.4,59.929870104094185,
19.6,315,1,0,-1,1,0,59,59,317,155.66040740022436,155.66040740022436,156.1611597002484,156.2278630998917,156.27804420003667,156.27804420003667,156.27804420003667,156.27804420003667,156.32801729999483,156.32801729999483,156.32801729999483,156.32801729999483,156.32801729999483,156.32801729999483,156.32801729999483,156.32801729999483,156.32801729999483,156.32801729999483,num_1,0.39410729985684156,156.7449241001159,156.7449241001159,None,,1,001,2025-12-16_10h46.44.982,2025C_exp1_detect,2022.2.4,59.929870104094185,
12.1,315,1,0,1,0,0,60,60,99,156.7449241001159,156.7449241001159,157.24559389986098,157.31216500001028,157.36253020027652,157.36253020027652,157.36253020027652,157.36253020027652,157.4121852000244,157.4121852000244,157.4121852000244,157.4121852000244,157.4121852000244,157.4121852000244,157.4121852000244,157.4121852000244,157.4121852000244,157.4121852000244,num_3,0.4537349999882281,157.89587760018185,157.89587760018185,None,,1,001,2025-12-16_10h46.44.982,2025C_exp1_detect,2022.2.4,59.929870104094185,
12.1,45,1,1,-1,-1,0,61,61,198,157.89587760018185,157.89587760018185,158.39676890010014,158.46344330022112,158.5135651002638,158.5135651002638,158.5135651002638,158.5135651002638,158.56347749987617,158.56347749987617,158.56347749987617,158.56347749987617,158.56347749987617,158.56347749987617,158.56347749987617,158.56347749987617,158.56347749987617,158.56347749987617,num_1,0.5117656998336315,159.09714689990506,159.09714689990506,None,,1,001,2025-12-16_10h46.44.982,2025C_exp1_detect,2022.2.4,59.929870104094185,
25.5,315,0,0,-1,1,0,62,62,301,159.09714689990506,159.09714689990506,159.59790669986978,159.66460910020396,159.71481630019844,159.71481630019844,159.71481630019844,159.71481630019844,159.76468490017578,159.76468490017578,159.76468490017578,159.76468490017578,159.76468490017578,159.76468490017578,159.76468490017578,159.76468490017578,159.76468490017578,159.76468490017578,num_3,0.43052499974146485,160.21490469994023,160.21490469994023,None,,1,001,2025-12-16_10h46.44.982,2025C_exp1_detect,2022.2.4,59.929870104094185,
35.3,45,1,0,1,1,0,63,63,384,160.21490469994023,160.21490469994023,160.7157189999707,160.78240850009024,160.83275549998507,160.83275549998507,160.83275549998507,160.83275549998507,160.88243969995528,160.88243969995528,160.88243969995528,160.88243969995528,160.88243969995528,160.88243969995528,160.88243969995528,160.88243969995528,160.88243969995528,160.88243969995528,num_3,0.44850089959800243,161.3493842999451,161.3493842999451,None,,1,001,2025-12-16_10h46.44.982,2025C_exp1_detect,2022.2.4,59.929870104094185,
19.6,45,1,1,-1,1,0,64,64,344,161.3493842999451,161.3493842999451,161.85015169996768,161.91684179985896,161.9672254002653,161.9672254002653,161.9672254002653,161.9672254002653,162.017063499894,162.017063499894,162.017063499894,162.017063499894,162.017063499894,162.017063499894,162.017063499894,162.017063499894,162.017063499894,162.017063499894,num_1,0.40074249962344766,162.43380220001563,162.43380220001563,None,,1,001,2025-12-16_10h46.44.982,2025C_exp1_detect,2022.2.4,59.929870104094185,
29.4,315,0,1,1,-1,0,65,65,266,162.43380220001563,162.43380220001563,162.9345750999637,163.00127770006657,163.05159169994295,163.05159169994295,163.05159169994295,163.05159169994295,163.10132980020717,163.10132980020717,163.10132980020717,163.10132980020717,163.10132980020717,163.10132980020717,163.10132980020717,163.10132980020717,163.10132980020717,163.10132980020717,num_1,0.35784179996699095,163.48490580031648,163.48490580031648,None,,1,001,2025-12-16_10h46.44.982,2025C_exp1_detect,2022.2.4,59.929870104094185,
22.7,45,0,1,-1,1,0,66,66,327,163.48490580031648,163.48490580031648,163.9856501002796,164.05230950005352,164.10266319988295,164.10266319988295,164.10266319988295,164.10266319988295,164.15255649993196,164.15255649993196,164.15255649993196,164.15255649993196,164.15255649993196,164.15255649993196,164.15255649993196,164.15255649993196,164.15255649993196,164.15255649993196,num_3,0.40283749951049685,164.58596020005643,164.58596020005643,None,,1,001,2025-12-16_10h46.44.982,2025C_exp1_detect,2022.2.4,59.929870104094185,
39.2,315,0,1,-1,1,0,67,67,340,164.58596020005643,164.58596020005643,165.08672909997404,165.15344460029155,165.20375210000202,165.20375210000202,165.20375210000202,165.20375210000202,165.25350139988586,165.25350139988586,165.25350139988586,165.25350139988586,165.25350139988586,165.25350139988586,165.25350139988586,165.25350139988586,165.25350139988586,165.25350139988586,num_3,0.389085799921304,165.67052790010348,165.67052790010348,None,,1,001,2025-12-16_10h46.44.982,2025C_exp1_detect,2022.2.4,59.929870104094185,
15.7,315,1,1,-1,0,0,68,68,64,165.67052790010348,165.67052790010348,166.1711535002105,166.23783850017935,166.2881281999871,166.2881281999871,166.2881281999871,166.2881281999871,166.33802710007876,166.33802710007876,166.33802710007876,166.33802710007876,166.33802710007876,166.33802710007876,166.33802710007876,166.33802710007876,166.33802710007876,166.33802710007876,num_1,0.4404672998934984,166.80481360014528,166.80481360014528,None,,1,001,2025-12-16_10h46.44.982,2025C_exp1_detect,2022.2.4,59.929870104094185,
29.4,315,0,0,-1,0,0,69,69,14,166.80481360014528,166.80481360014528,167.3057254999876,167.37218930013478,167.4226267999038,167.4226267999038,167.4226267999038,167.4226267999038,167.47247159993276,167.47247159993276,167.47247159993276,167.47247159993276,167.47247159993276,167.47247159993276,167.47247159993276,167.47247159993276,167.47247159993276,167.47247159993276,num_3,0.41020039981231093,167.90615520020947,167.90615520020947,None,,1,001,2025-12-16_10h46.44.982,2025C_exp1_detect,2022.2.4,59.929870104094185,
35.3,45,1,0,-1,0,0,70,70,24,167.90615520020947,167.90615520020947,168.40672279987484,168.4734260002151,168.52362810028717,168.52362810028717,168.52362810028717,168.52362810028717,168.57350989989936,168.57350989989936,168.57350989989936,168.57350989989936,168.57350989989936,168.57350989989936,168.57350989989936,168.57350989989936,168.57350989989936,168.57350989989936,num_1,0.38041359977796674,168.9738467000425,168.9738467000425,None,,1,001,2025-12-16_10h46.44.982,2025C_exp1_detect,2022.2.4,59.929870104094185,
22.7,315,0,1,1,-1,0,71,71,264,168.9738467000425,168.9738467000425,169.4744478003122,169.5411696000956,169.59148540021852,169.59148540021852,169.59148540021852,169.59148540021852,169.64128160011023,169.64128160011023,169.64128160011023,169.64128160011023,169.64128160011023,169.64128160011023,169.64128160011023,169.64128160011023,169.64128160011023,169.64128160011023,num_3,0.34536310005933046,170.00830670027062,170.00830670027062,None,,1,001,2025-12-16_10h46.44.982,2025C_exp1_detect,2022.2.4,59.929870104094185,
22.7,315,1,0,1,1,0,72,72,390,170.00830670027062,170.00830670027062,170.50881290016696,170.57551260013133,170.62584439991042,170.62584439991042,170.62584439991042,170.62584439991042,170.67547770030797,170.67547770030797,170.67547770030797,170.67547770030797,170.67547770030797,170.67547770030797,170.67547770030797,170.67547770030797,170.67547770030797,170.67547770030797,num_3,0.6146793998777866,171.30939160007983,171.30939160007983,None,,1,001,2025-12-16_10h46.44.982,2025C_exp1_detect,2022.2.4,59.929870104094185,
42.7,45,1,1,1,0,0,73,73,134,171.30939160007983,171.30939160007983,171.80996030010283,171.87683820025995,171.9271176001057,171.9271176001057,171.9271176001057,171.9271176001057,171.97670509992167,171.97670509992167,171.97670509992167,171.97670509992167,171.97670509992167,171.97670509992167,171.97670509992167,171.97670509992167,171.97670509992167,171.97670509992167,num_1,0.401308199390769,172.4105302998796,172.4105302998796,None,,1,001,2025-12-16_10h46.44.982,2025C_exp1_detect,2022.2.4,59.929870104094185,
19.6,45,1,0,-1,-1,0,74,74,164,172.4105302998796,172.4105302998796,172.91120850015432,172.97793210018426,173.02814010018483,173.02814010018483,173.02814010018483,173.02814010018483,173.07801569998264,173.07801569998264,173.07801569998264,173.07801569998264,173.07801569998264,173.07801569998264,173.07801569998264,173.07801569998264,173.07801569998264,173.07801569998264,num_1,0.3802238996140659,173.4781654002145,173.4781654002145,None,,1,001,2025-12-16_10h46.44.982,2025C_exp1_detect,2022.2.4,59.929870104094185,
39.2,45,1,1,1,1,0,75,75,421,173.4781654002145,173.4781654002145,173.9789757002145,174.04544589994475,174.09566619992256,174.09566619992256,174.09566619992256,174.09566619992256,174.14571660012007,174.14571660012007,174.14571660012007,174.14571660012007,174.14571660012007,174.14571660012007,174.14571660012007,174.14571660012007,174.14571660012007,174.14571660012007,num_1,0.36142370011657476,174.52928279992193,174.52928279992193,None,,1,001,2025-12-16_10h46.44.982,2025C_exp1_detect,2022.2.4,59.929870104094185,
12.1,315,1,0,-1,1,0,76,76,315,174.52928279992193,174.52928279992193,175.02991490019485,175.09660959988832,175.14702440006658,175.14702440006658,175.14702440006658,175.14702440006658,175.1967561999336,175.1967561999336,175.1967561999336,175.1967561999336,175.1967561999336,175.1967561999336,175.1967561999336,175.1967561999336,175.1967561999336,175.1967561999336,num_1,0.3258922998793423,175.5469068000093,175.5469068000093,None,,1,001,2025-12-16_10h46.44.982,2025C_exp1_detect,2022.2.4,59.929870104094185,
39.2,315,1,0,1,1,0,77,77,394,175.5469068000093,175.5469068000093,176.0476986002177,176.11441039992496,176.1644546003081,176.1644546003081,176.1644546003081,176.1644546003081,176.21426550019532,176.21426550019532,176.21426550019532,176.21426550019532,176.21426550019532,176.21426550019532,176.21426550019532,176.21426550019532,176.21426550019532,176.21426550019532,num_3,0.41987530002370477,176.66525330021977,176.66525330021977,None,,1,001,2025-12-16_10h46.44.982,2025C_exp1_detect,2022.2.4,59.929870104094185,
25.5,45,1,1,-1,0,0,78,78,58,176.66525330021977,176.66525330021977,177.1654520998709,177.23194830026478,177.2824275000021,177.2824275000021,177.2824275000021,177.2824275000021,177.3323495001532,177.3323495001532,177.3323495001532,177.3323495001532,177.3323495001532,177.3323495001532,177.3323495001532,177.3323495001532,177.3323495001532,177.3323495001532,num_1,0.3342562997713685,177.69922980014235,177.69922980014235,None,,1,001,2025-12-16_10h46.44.982,2025C_exp1_detect,2022.2.4,59.929870104094185,
29.4,45,0,1,1,-1,0,79,79,257,177.69922980014235,177.69922980014235,178.19986309995875,178.26627589995041,178.31687249988317,178.31687249988317,178.31687249988317,178.31687249988317,178.36659990018234,178.36659990018234,178.36659990018234,178.36659990018234,178.36659990018234,178.36659990018234,178.36659990018234,178.36659990018234,178.36659990018234,178.36659990018234,num_1,0.34804779989644885,178.73348340019584,178.73348340019584,None,,1,001,2025-12-16_10h46.44.982,2025C_exp1_detect,2022.2.4,59.929870104094185,
19.6,315,1,0,1,1,0,80,80,389,178.73348340019584,178.73348340019584,179.23418840020895,179.30099340016022,179.35115260025486,179.35115260025486,179.35115260025486,179.35115260025486,179.40096980007365,179.40096980007365,179.40096980007365,179.40096980007365,179.40096980007365,179.40096980007365,179.40096980007365,179.40096980007365,179.40096980007365,179.40096980007365,num_3,0.46525599993765354,179.88462410029024,179.88462410029024,None,,1,001,2025-12-16_10h46.44.982,2025C_exp1_detect,2022.2.4,59.929870104094185,
19.6,45,0,0,1,1,0,81,81,362,179.88462410029024,179.88462410029024,180.38533740025014,180.45208019996062,180.50236710021272,180.50236710021272,180.50236710021272,180.50236710021272,180.5521360002458,180.5521360002458,180.5521360002458,180.5521360002458,180.5521360002458,180.5521360002458,180.5521360002458,180.5521360002458,180.5521360002458,180.5521360002458,num_3,0.41778239980340004,180.9857427002862,180.9857427002862,None,,1,001,2025-12-16_10h46.44.982,2025C_exp1_detect,2022.2.4,59.929870104094185,
35.3,45,1,1,-1,1,0,82,82,348,180.9857427002862,180.9857427002862,181.48646440031007,181.5530413002707,181.60385240009055,181.60385240009055,181.60385240009055,181.60385240009055,181.65322849992663,181.65322849992663,181.65322849992663,181.65322849992663,181.65322849992663,181.65322849992663,181.65322849992663,181.65322849992663,181.65322849992663,181.65322849992663,num_1,0.6206541997380555,182.30362399993464,182.30362399993464,None,,1,001,2025-12-16_10h46.44.982,2025C_exp1_detect,2022.2.4,59.929870104094185,
35.3,315,1,0,-1,1,0,83,83,321,182.30362399993464,182.30362399993464,182.80429850006476,182.8710087002255,182.9214523001574,182.9214523001574,182.9214523001574,182.9214523001574,182.97130159987137,182.97130159987137,182.97130159987137,182.97130159987137,182.97130159987137,182.97130159987137,182.97130159987137,182.97130159987137,182.97130159987137,182.97130159987137,num_1,0.3824911001138389,183.37142969993874,183.37142969993874,None,,1,001,2025-12-16_10h46.44.982,2025C_exp1_detect,2022.2.4,59.929870104094185,
22.7,315,0,1,-1,-1,0,84,84,192,183.37142969993874,183.37142969993874,183.87208490027115,183.93893630011007,183.98914700001478,183.98914700001478,183.98914700001478,183.98914700001478,184.0390691999346,184.0390691999346,184.0390691999346,184.0390691999346,184.0390691999346,184.0390691999346,184.0390691999346,184.0390691999346,184.0390691999346,184.0390691999346,num_3,0.3878273996524513,184.4557785000652,184.4557785000652,None,,1,001,2025-12-16_10h46.44.982,2025C_exp1_detect,2022.2.4,59.929870104094185,
42.7,45,0,0,-1,-1,0,85,85,152,184.4557785000652,184.4557785000652,184.95644719991833,185.02329170005396,185.07358040008694,185.07358040008694,185.07358040008694,185.07358040008694,185.12347940029576,185.12347940029576,185.12347940029576,185.12347940029576,185.12347940029576,185.12347940029576,185.12347940029576,185.12347940029576,185.12347940029576,185.12347940029576,num_3,0.5341770993545651,185.67375850025564,185.67375850025564,None,,1,001,2025-12-16_10h46.44.982,2025C_exp1_detect,2022.2.4,59.929870104094185,
39.2,315,1,1,1,0,0,86,86,142,185.67375850025564,185.67375850025564,186.17462800024077,186.2413584003225,186.29159420030192,186.29159420030192,186.29159420030192,186.29159420030192,186.3412823001854,186.3412823001854,186.3412823001854,186.3412823001854,186.3412823001854,186.3412823001854,186.3412823001854,186.3412823001854,186.3412823001854,186.3412823001854,num_1,0.37394020007923245,186.7414120999165,186.7414120999165,None,,1,001,2025-12-16_10h46.44.982,2025C_exp1_detect,2022.2.4,59.929870104094185,
15.7,45,0,0,1,-1,0,87,87,217,186.7414120999165,186.7414120999165,187.24196329992265,187.30881679989398,187.3591050999239,187.3591050999239,187.3591050999239,187.3591050999239,187.40915219997987,187.40915219997987,187.40915219997987,187.40915219997987,187.40915219997987,187.40915219997987,187.40915219997987,187.40915219997987,187.40915219997987,187.40915219997987,num_3,0.408901599701494,187.8425421998836,187.8425421998836,None,,1,001,2025-12-16_10h46.44.982,2025C_exp1_detect,2022.2.4,59.929870104094185,
29.4,315,0,1,1,0,0,88,88,122,187.8425421998836,187.8425421998836,188.3433489999734,188.40995289990678,188.46036039991304,188.46036039991304,188.46036039991304,188.46036039991304,188.51010220032185,188.51010220032185,188.51010220032185,188.51010220032185,188.51010220032185,188.51010220032185,188.51010220032185,188.51010220032185,188.51010220032185,188.51010220032185,num_1,0.35571670019999146,188.89357169996947,188.89357169996947,None,,1,001,2025-12-16_10h46.44.982,2025C_exp1_detect,2022.2.4,59.929870104094185,
25.5,45,1,0,-1,0,0,89,89,22,188.89357169996947,188.89357169996947,189.39438760001212,189.46111880009994,189.5114174000919,189.5114174000919,189.5114174000919,189.5114174000919,189.561170599889,189.561170599889,189.561170599889,189.561170599889,189.561170599889,189.561170599889,189.561170599889,189.561170599889,189.561170599889,189.561170599889,num_1,0.3459866000339389,189.92801050003618,189.92801050003618,None,,1,001,2025-12-16_10h46.44.982,2025C_exp1_detect,2022.2.4,59.929870104094185,
25.5,45,1,1,-1,1,0,90,90,346,189.92801050003618,189.92801050003618,190.42870349995792,190.49533950025216,190.5456027998589,190.5456027998589,190.5456027998589,190.5456027998589,190.59563009999692,190.59563009999692,190.59563009999692,190.59563009999692,190.59563009999692,190.59563009999692,190.59563009999692,190.59563009999692,190.59563009999692,190.59563009999692,num_1,0.4555607996881008,191.0790642001666,191.0790642001666,None,,1,001,2025-12-16_10h46.44.982,2025C_exp1_detect,2022.2.4,59.929870104094185,
25.5,45,0,1,1,-1,0,91,91,256,191.0790642001666,191.0790642001666,191.57988339988515,191.64662569994107,191.69694330031052,191.69694330031052,191.69694330031052,191.69694330031052,191.7467763000168,191.7467763000168,191.7467763000168,191.7467763000168,191.7467763000168,191.7467763000168,191.7467763000168,191.7467763000168,191.7467763000168,191.7467763000168,num_1,0.32832089997828007,192.0967550999485,192.0967550999485,None,,1,001,2025-12-16_10h46.44.982,2025C_exp1_detect,2022.2.4,59.929870104094185,
22.7,315,0,0,-1,-1,0,92,92,156,192.0967550999485,192.0967550999485,192.59758990025148,192.66428459994495,192.71451750025153,192.71451750025153,192.71451750025153,192.71451750025153,192.76424250006676,192.76424250006676,192.76424250006676,192.76424250006676,192.76424250006676,192.76424250006676,192.76424250006676,192.76424250006676,192.76424250006676,192.76424250006676,num_1,0.39841859973967075,193.18118359986693,193.18118359986693,None,,1,001,2025-12-16_10h46.44.982,2025C_exp1_detect,2022.2.4,59.929870104094185,
19.6,315,1,1,1,0,0,93,93,137,193.18118359986693,193.18118359986693,193.68196320021525,193.74854859989136,193.79900840017945,193.79900840017945,193.79900840017945,193.79900840017945,193.84886919986457,193.84886919986457,193.84886919986457,193.84886919986457,193.84886919986457,193.84886919986457,193.84886919986457,193.84886919986457,193.84886919986457,193.84886919986457,num_3,0.36932160006836057,194.24920199997723,194.24920199997723,None,,1,001,2025-12-16_10h46.44.982,2025C_exp1_detect,2022.2.4,59.929870104094185,
12.1,315,1,1,-1,1,0,94,94,351,194.24920199997723,194.24920199997723,194.74980639992282,194.81645440030843,194.8664897000417,194.8664897000417,194.8664897000417,194.8664897000417,194.916471300181,194.916471300181,194.916471300181,194.916471300181,194.916471300181,194.916471300181,194.916471300181,194.916471300181,194.916471300181,194.916471300181,num_1,0.42941509978845716,195.36697710026056,195.36697710026056,None,,1,001,2025-12-16_10h46.44.982,2025C_exp1_detect,2022.2.4,59.929870104094185,
35.3,315,1,0,1,1,0,95,95,393,195.36697710026056,195.36697710026056,195.86737770028412,195.93422830011696,195.98454539990053,195.98454539990053,195.98454539990053,195.98454539990053,196.03439250029624,196.03439250029624,196.03439250029624,196.03439250029624,196.03439250029624,196.03439250029624,196.03439250029624,196.03439250029624,196.03439250029624,196.03439250029624,num_3,0.4317430998198688,196.48464970011264,196.48464970011264,None,,1,001,2025-12-16_10h46.44.982,2025C_exp1_detect,2022.2.4,59.929870104094185,
25.5,315,1,1,-1,-1,0,96,96,211,196.48464970011264,196.48464970011264,196.9849837999791,197.0518915001303,197.10232730023563,197.10232730023563,197.10232730023563,197.10232730023563,197.15218840027228,197.15218840027228,197.15218840027228,197.15218840027228,197.15218840027228,197.15218840027228,197.15218840027228,197.15218840027228,197.15218840027228,197.15218840027228,num_1,0.5390626997686923,197.7192318001762,197.7192318001762,None,,1,001,2025-12-16_10h46.44.982,2025C_exp1_detect,2022.2.4,59.929870104094185,
35.3,315,1,1,1,0,0,97,97,141,197.7192318001762,197.7192318001762,198.21973180025816,198.28658670000732,198.33691600011662,198.33691600011662,198.33691600011662,198.33691600011662,198.3867522003129,198.3867522003129,198.3867522003129,198.3867522003129,198.3867522003129,198.3867522003129,198.3867522003129,198.3867522003129,198.3867522003129,198.3867522003129,num_1,0.3919202000834048,198.80373320030048,198.80373320030048,None,,1,001,2025-12-16_10h46.44.982,2025C_exp1_detect,2022.2.4,59.929870104094185,
42.7,315,0,0,-1,1,0,98,98,305,198.80373320030048,198.80373320030048,199.30424880003557,199.370783300139,199.4211186999455,199.4211186999455,199.4211186999455,199.4211186999455,199.47104880027473,199.47104880027473,199.47104880027473,199.47104880027473,199.47104880027473,199.47104880027473,199.47104880027473,199.47104880027473,199.47104880027473,199.47104880027473,num_3,0.4197765998542309,199.92145420005545,199.92145420005545,None,,1,001,2025-12-16_10h46.44.982,2025C_exp1_detect,2022.2.4,59.929870104094185,
15.7,315,1,1,1,1,0,99,99,424,199.92145420005545,199.92145420005545,200.42198280012235,200.48866510018706,200.53893670020625,200.53893670020625,200.53893670020625,200.53893670020625,200.58900870010257,200.58900870010257,200.58900870010257,200.58900870010257,200.58900870010257,200.58900870010257,200.58900870010257,200.58900870010257,200.58900870010257,200.58900870010257,num_1,0.34917639987543225,200.95579660031945,200.95579660031945,None,,1,001,2025-12-16_10h46.44.982,2025C_exp1_detect,2022.2.4,59.929870104094185,
22.7,315,1,1,1,0,0,100,100,138,200.95579660031945,200.95579660031945,201.45629250025377,201.52298650005832,201.5734635000117,201.5734635000117,201.5734635000117,201.5734635000117,201.6232027001679,201.6232027001679,201.6232027001679,201.6232027001679,201.6232027001679,201.6232027001679,201.6232027001679,201.6232027001679,201.6232027001679,201.6232027001679,num_3,0.5069003999233246,202.1570470998995,202.1570470998995,None,,1,001,2025-12-16_10h46.44.982,2025C_exp1_detect,2022.2.4,59.929870104094185,
12.1,45,1,0,-1,0,0,101,101,18,202.1570470998995,202.1570470998995,202.65749539993703,202.7243409003131,202.77451900020242,202.77451900020242,202.77451900020242,202.77451900020242,202.82450360013172,202.82450360013172,202.82450360013172,202.82450360013172,202.82450360013172,202.82450360013172,202.82450360013172,202.82450360013172,202.82450360013172,202.82450360013172,num_1,0.39426019974052906,203.24140259996057,203.24140259996057,None,,1,001,2025-12-16_10h46.44.982,2025C_exp1_detect,2022.2.4,59.929870104094185,
19.6,315,0,1,1,-1,0,102,102,263,203.24140259996057,203.24140259996057,203.74207739997655,203.80865389993414,203.85908719990402,203.85908719990402,203.85908719990402,203.85908719990402,203.90890419995412,203.90890419995412,203.90890419995412,203.90890419995412,203.90890419995412,203.90890419995412,203.90890419995412,203.90890419995412,203.90890419995412,203.90890419995412,num_1,0.3088950994424522,204.2424996001646,204.2424996001646,None,,1,001,2025-12-16_10h46.44.982,2025C_exp1_detect,2022.2.4,59.929870104094185,
25.5,45,1,1,1,0,0,103,103,130,204.2424996001646,204.2424996001646,204.74289879994467,204.8097477001138,204.8600913998671,204.8600913998671,204.8600913998671,204.8600913998671,204.90994560020044,204.90994560020044,204.90994560020044,204.90994560020044,204.90994560020044,204.90994560020044,204.90994560020044,204.90994560020044,204.90994560020044,204.90994560020044,num_1,0.3970335996709764,205.32703700009733,205.32703700009733,None,,1,001,2025-12-16_10h46.44.982,2025C_exp1_detect,2022.2.4,59.929870104094185,
15.7,315,0,1,-1,1,0,104,104,334,205.32703700009733,205.32703700009733,205.82742989994586,205.89415210019797,205.94443419994786,205.94443419994786,205.94443419994786,205.94443419994786,205.9942346001044,205.9942346001044,205.9942346001044,205.9942346001044,205.9942346001044,205.9942346001044,205.9942346001044,205.9942346001044,205.9942346001044,205.9942346001044,num_3,0.5691971997730434,206.59485960006714,206.59485960006714,None,,1,001,2025-12-16_10h46.44.982,2025C_exp1_detect,2022.2.4,59.929870104094185,
19.6,315,1,0,-1,0,0,105,105,29,206.59485960006714,206.59485960006714,207.09528789995238,207.16196470009163,207.21238879999146,207.21238879999146,207.21238879999146,207.21238879999146,207.262122400105,207.262122400105,207.262122400105,207.262122400105,207.262122400105,207.262122400105,207.262122400105,207.262122400105,207.262122400105,207.262122400105,num_1,0.38078179955482483,207.66246489994228,207.66246489994228,None,,1,001,2025-12-16_10h46.44.982,2025C_exp1_detect,2022.2.4,59.929870104094185,
39.2,315,0,1,-1,0,0,106,106,52,207.66246489994228,207.66246489994228,208.16310980031267,208.22984379995614,208.28016020031646,208.28016020031646,208.28016020031646,208.28016020031646,208.32992100017145,208.32992100017145,208.32992100017145,208.32992100017145,208.32992100017145,208.32992100017145,208.32992100017145,208.32992100017145,208.32992100017145,208.32992100017145,num_1,0.3611939996480942,208.71368340030313,208.71368340030313,None,,1,001,2025-12-16_10h46.44.982,2025C_exp1_detect,2022.2.4,59.929870104094185,
15.7,45,0,0,-1,1,0,107,107,289,208.71368340030313,208.71368340030313,209.21418170025572,209.280727900099,209.33121039997786,209.33121039997786,209.33121039997786,209.33121039997786,209.38079990027472,209.38079990027472,209.38079990027472,209.38079990027472,209.38079990027472,209.38079990027472,209.38079990027472,209.38079990027472,209.38079990027472,209.38079990027472,num_3,0.42231970001012087,209.83133119996637,209.83133119996637,space,1.9871167996898293,1,001,2025-12-16_10h46.44.982,2025C_exp1_detect,2022.2.4,59.929870104094185,
15.7,315,0,0,-1,0,0,108,108,10,211.8500824002549,211.8500824002549,212.35049010021612,212.41735640028492,212.46764589985833,212.46764589985833,212.46764589985833,212.46764589985833,212.51746249990538,212.51746249990538,212.51746249990538,212.51746249990538,212.51746249990538,212.51746249990538,212.51746249990538,212.51746249990538,212.51746249990538,212.51746249990538,num_3,0.7645594994537532,213.3014237000607,213.3014237000607,None,,1,001,2025-12-16_10h46.44.982,2025C_exp1_detect,2022.2.4,59.929870104094185,
25.5,45,1,1,1,1,0,109,109,418,213.3014237000607,213.3014237000607,213.80206190003082,213.86880580009893,213.91909960005432,213.91909960005432,213.91909960005432,213.91909960005432,213.96884120022878,213.96884120022878,213.96884120022878,213.96884120022878,213.96884120022878,213.96884120022878,213.96884120022878,213.96884120022878,213.96884120022878,213.96884120022878,num_1,0.36913639958947897,214.3692856002599,214.3692856002599,None,,1,001,2025-12-16_10h46.44.982,2025C_exp1_detect,2022.2.4,59.929870104094185,
19.6,45,1,0,1,1,0,110,110,380,214.3692856002599,214.3692856002599,214.86995710013434,214.93665450019762,214.98699870007113,214.98699870007113,214.98699870007113,214.98699870007113,215.03671790007502,215.03671790007502,215.03671790007502,215.03671790007502,215.03671790007502,215.03671790007502,215.03671790007502,215.03671790007502,215.03671790007502,215.03671790007502,num_3,0.41342499991878867,215.47040740028024,215.47040740028024,None,,1,001,2025-12-16_10h46.44.982,2025C_exp1_detect,2022.2.4,59.929870104094185,
22.7,315,1,0,-1,-1,0,111,111,174,215.47040740028024,215.47040740028024,215.97096650023013,216.0377724999562,216.08796790009364,216.08796790009364,216.08796790009364,216.08796790009364,216.1377282999456,216.1377282999456,216.1377282999456,216.1377282999456,216.1377282999456,216.1377282999456,216.1377282999456,216.1377282999456,216.1377282999456,216.1377282999456,num_1,0.36068589985370636,216.52151450002566,216.52151450002566,None,,1,001,2025-12-16_10h46.44.982,2025C_exp1_detect,2022.2.4,59.929870104094185,
35.3,45,1,0,1,-1,0,112,112,240,216.52151450002566,216.52151450002566,217.02196389995515,217.08869019988924,217.13877710001543,217.13877710001543,217.13877710001543,217.13877710001543,217.18889479991049,217.18889479991049,217.18889479991049,217.18889479991049,217.18889479991049,217.18889479991049,217.18889479991049,217.18889479991049,217.18889479991049,217.18889479991049,num_3,0.7013407000340521,217.9225348001346,217.9225348001346,None,,1,001,2025-12-16_10h46.44.982,2025C_exp1_detect,2022.2.4,59.929870104094185,
12.1,45,1,1,-1,1,0,113,113,342,217.9225348001346,217.9225348001346,218.42324380017817,218.4900706000626,218.54030890017748,218.54030890017748,218.54030890017748,218.54030890017748,218.59013380017132,218.59013380017132,218.59013380017132,218.59013380017132,218.59013380017132,218.59013380017132,218.59013380017132,218.59013380017132,218.59013380017132,218.59013380017132,num_1,0.35680769942700863,218.9739192998968,218.9739192998968,None,,1,001,2025-12-16_10h46.44.982,2025C_exp1_detect,2022.2.4,59.929870104094185,
35.3,315,1,1,-1,-1,0,114,114,213,218.9739192998968,218.9739192998968,219.47443279996514,219.54108049999923,219.5913211000152,219.5913211000152,219.5913211000152,219.5913211000152,219.64119150023907,219.64119150023907,219.64119150023907,219.64119150023907,219.64119150023907,219.64119150023907,219.64119150023907,219.64119150023907,219.64119150023907,219.64119150023907,num_1,0.409944299608469,220.07499139988795,220.07499139988795,None,,1,001,2025-12-16_10h46.44.982,2025C_exp1_detect,2022.2.4,59.929870104094185,
39.2,45,1,0,-1,1,0,115,115,313,220.07499139988795,220.07499139988795,220.57539470028132,220.6419549002312,220.69223120016977,220.69223120016977,220.69223120016977,220.69223120016977,220.74237890029326,220.74237890029326,220.74237890029326,220.74237890029326,220.74237890029326,220.74237890029326,220.74237890029326,220.74237890029326,220.74237890029326,220.74237890029326,num_1,0.4283833000808954,221.19278150005266,221.19278150005266,None,,1,001,2025-12-16_10h46.44.982,2025C_exp1_detect,2022.2.4,59.929870104094185,
35.3,315,1,1,-1,0,0,116,116,69,221.19278150005266,221.19278150005266,221.69320550002158,221.75978159997612,221.81028750026599,221.81028750026599,221.81028750026599,221.81028750026599,221.8599213999696,221.8599213999696,221.8599213999696,221.8599213999696,221.8599213999696,221.8599213999696,221.8599213999696,221.8599213999696,221.8599213999696,221.8599213999696,num_1,0.36665460001677275,222.24375989986584,222.24375989986584,None,,1,001,2025-12-16_10h46.44.982,2025C_exp1_detect,2022.2.4,59.929870104094185,
29.4,45,1,0,-1,0,0,117,117,23,222.24375989986584,222.24375989986584,222.74435790022835,222.81107740011066,222.86140990024433,222.86140990024433,222.86140990024433,222.86140990024433,222.91121069993824,222.91121069993824,222.91121069993824,222.91121069993824,222.91121069993824,222.91121069993824,222.91121069993824,222.91121069993824,222.91121069993824,222.91121069993824,num_1,0.323611400090158,223.26157170021906,223.26157170021906,None,,1,001,2025-12-16_10h46.44.982,2025C_exp1_detect,2022.2.4,59.929870104094185,
12.1,315,1,0,-1,0,0,118,118,27,223.26157170021906,223.26157170021906,223.76204359997064,223.82875830028206,223.87911170022562,223.87911170022562,223.87911170022562,223.87911170022562,223.92869199998677,223.92869199998677,223.92869199998677,223.92869199998677,223.92869199998677,223.92869199998677,223.92869199998677,223.92869199998677,223.92869199998677,223.92869199998677,num_1,0.32917359936982393,224.27908000024036,224.27908000024036,None,,1,001,2025-12-16_10h46.44.982,2025C_exp1_detect,2022.2.4,59.929870104094185,
22.7,315,0,0,-1,1,0,119,119,300,224.27908000024036,224.27908000024036,224.77961930027232,224.84656570013613,224.89677690016106,224.89677690016106,224.89677690016106,224.89677690016106,224.94647559989244,224.94647559989244,224.94647559989244,224.94647559989244,224.94647559989244,224.94647559989244,224.94647559989244,224.94647559989244,224.94647559989244,224.94647559989244,num_3,0.5675755995325744,225.53045980026945,225.53045980026945,None,,1,001,2025-12-16_10h46.44.982,2025C_exp1_detect,2022.2.4,59.929870104094185,
12.1,45,0,1,-1,0,0,120,120,36,225.53045980026945,225.53045980026945,226.0306873000227,226.0976364002563,226.14816279988736,226.14816279988736,226.14816279988736,226.14816279988736,226.19796460028738,226.19796460028738,226.19796460028738,226.19796460028738,226.19796460028738,226.19796460028738,226.19796460028738,226.19796460028738,226.19796460028738,226.19796460028738,num_3,0.5328334998339415,226.74835650017485,226.74835650017485,None,,1,001,2025-12-16_10h46.44.982,2025C_exp1_detect,2022.2.4,59.929870104094185,
25.5,45,0,0,-1,0,0,121,121,4,226.74835650017485,226.74835650017485,227.24868489988148,227.3155672000721,227.36587180010974,227.36587180010974,227.36587180010974,227.36587180010974,227.41564929997548,227.41564929997548,227.41564929997548,227.41564929997548,227.41564929997548,227.41564929997548,227.41564929997548,227.41564929997548,227.41564929997548,227.41564929997548,num_3,0.4106813995167613,227.84921890031546,227.84921890031546,None,,1,001,2025-12-16_10h46.44.982,2025C_exp1_detect,2022.2.4,59.929870104094185,
12.1,45,0,0,1,1,0,122,122,360,227.84921890031546,227.84921890031546,228.34993669996038,228.41667400021106,228.466888200026,228.466888200026,228.466888200026,228.466888200026,228.51686719991267,228.51686719991267,228.51686719991267,228.51686719991267,228.51686719991267,228.51686719991267,228.51686719991267,228.51686719991267,228.51686719991267,228.51686719991267,num_3,0.41429789969697595,228.95054670004174,228.95054670004174,None,,1,001,2025-12-16_10h46.44.982,2025C_exp1_detect,2022.2.4,59.929870104094185,
22.7,45,0,1,-1,-1,0,123,123,183,228.95054670004174,228.95054670004174,229.45095610013232,229.51777839986607,229.5681111998856,229.5681111998856,229.5681111998856,229.5681111998856,229.6179355001077,229.6179355001077,229.6179355001077,229.6179355001077,229.6179355001077,229.6179355001077,229.6179355001077,229.6179355001077,229.6179355001077,229.6179355001077,num_3,0.3695793994702399,230.01827359991148,230.01827359991148,None,,1,001,2025-12-16_10h46.44.982,2025C_exp1_detect,2022.2.4,59.929870104094185,
42.7,315,0,1,-1,1,0,124,124,341,230.01827359991148,230.01827359991148,230.51885570026934,230.58555210009217,230.6359147001058,230.6359147001058,230.6359147001058,230.6359147001058,230.6857198001817,230.6857198001817,230.6857198001817,230.6857198001817,230.6857198001817,230.6857198001817,230.6857198001817,230.6857198001817,230.6857198001817,230.6857198001817,num_3,0.38942050002515316,231.10267780022696,231.10267780022696,None,,1,001,2025-12-16_10h46.44.982,2025C_exp1_detect,2022.2.4,59.929870104094185,
35.3,315,0,1,-1,0,0,125,125,51,231.10267780022696,231.10267780022696,231.60305909998715,231.66989429993555,231.72015439998358,231.72015439998358,231.72015439998358,231.72015439998358,231.77006330015138,231.77006330015138,231.77006330015138,231.77006330015138,231.77006330015138,231.77006330015138,231.77006330015138,231.77006330015138,231.77006330015138,231.77006330015138,num_1,0.40060949977487326,232.18713530013338,232.18713530013338,None,,1,001,2025-12-16_10h46.44.982,2025C_exp1_detect,2022.2.4,59.929870104094185,
12.1,45,0,1,1,0,0,126,126,108,232.18713530013338,232.18713530013338,232.6876038000919,232.75437350012362,232.8046814003028,232.8046814003028,232.8046814003028,232.8046814003028,232.85456879995763,232.85456879995763,232.85456879995763,232.85456879995763,232.85456879995763,232.85456879995763,232.85456879995763,232.85456879995763,232.85456879995763,232.85456879995763,num_3,0.3720645997673273,233.25486700003967,233.25486700003967,None,,1,001,2025-12-16_10h46.44.982,2025C_exp1_detect,2022.2.4,59.929870104094185,
35.3,315,0,1,1,1,0,127,127,411,233.25486700003967,233.25486700003967,233.7552642999217,233.82210069987923,233.87228670017794,233.87228670017794,233.87228670017794,233.87228670017794,233.9221454001963,233.9221454001963,233.9221454001963,233.9221454001963,233.9221454001963,233.9221454001963,233.9221454001963,233.9221454001963,233.9221454001963,233.9221454001963,num_3,0.39994619973003864,234.3389699999243,234.3389699999243,None,,1,001,2025-12-16_10h46.44.982,2025C_exp1_detect,2022.2.4,59.929870104094185,
19.6,45,0,0,-1,-1,0,128,128,146,234.3389699999243,234.3389699999243,234.83965119998902,234.90648239990696,234.9568238002248,234.9568238002248,234.9568238002248,234.9568238002248,235.00658679986373,235.00658679986373,235.00658679986373,235.00658679986373,235.00658679986373,235.00658679986373,235.00658679986373,235.00658679986373,235.00658679986373,235.00658679986373,num_3,0.5078625995665789,235.5404423000291,235.5404423000291,None,,1,001,2025-12-16_10h46.44.982,2025C_exp1_detect,2022.2.4,59.929870104094185,
35.3,45,0,0,-1,1,0,129,129,294,235.5404423000291,235.5404423000291,236.04084919998422,236.10768910031766,236.15792899997905,236.15792899997905,236.15792899997905,236.15792899997905,236.20783240022138,236.20783240022138,236.20783240022138,236.20783240022138,236.20783240022138,236.20783240022138,236.20783240022138,236.20783240022138,236.20783240022138,236.20783240022138,num_3,0.38679089955985546,236.62486450001597,236.62486450001597,None,,1,001,2025-12-16_10h46.44.982,2025C_exp1_detect,2022.2.4,59.929870104094185,
35.3,315,0,0,-1,0,0,130,130,15,236.62486450001597,236.62486450001597,237.12527540000156,237.1921288999729,237.24244019994512,237.24244019994512,237.24244019994512,237.24244019994512,237.29229240026325,237.29229240026325,237.29229240026325,237.29229240026325,237.29229240026325,237.29229240026325,237.29229240026325,237.29229240026325,237.29229240026325,237.29229240026325,num_3,0.37363989977166057,237.6926624001935,237.6926624001935,None,,1,001,2025-12-16_10h46.44.982,2025C_exp1_detect,2022.2.4,59.929870104094185,
29.4,315,0,0,1,0,0,131,131,86,237.6926624001935,237.6926624001935,238.1930986000225,238.2598381000571,238.31021540006623,238.31021540006623,238.31021540006623,238.31021540006623,238.35988670028746,238.35988670028746,238.35988670028746,238.35988670028746,238.35988670028746,238.35988670028746,238.35988670028746,238.35988670028746,238.35988670028746,238.35988670028746,num_3,0.3392001995816827,238.72676400002092,238.72676400002092,None,,1,001,2025-12-16_10h46.44.982,2025C_exp1_detect,2022.2.4,59.929870104094185,
25.5,45,0,0,1,-1,0,132,132,220,238.72676400002092,238.72676400002092,239.227391500026,239.29422349995002,239.34433220000938,239.34433220000938,239.34433220000938,239.34433220000938,239.3942551999353,239.3942551999353,239.3942551999353,239.3942551999353,239.3942551999353,239.3942551999353,239.3942551999353,239.3942551999353,239.3942551999353,239.3942551999353,num_3,0.41553050000220537,239.8278974001296,239.8278974001296,None,,1,001,2025-12-16_10h46.44.982,2025C_exp1_detect,2022.2.4,59.929870104094185,
29.4,315,1,0,1,0,0,133,133,104,239.8278974001296,239.8278974001296,240.3286490002647,240.39513850025833,240.44568370003253,240.44568370003253,240.44568370003253,240.44568370003253,240.49536340031773,240.49536340031773,240.49536340031773,240.49536340031773,240.49536340031773,240.49536340031773,240.49536340031773,240.49536340031773,240.49536340031773,240.49536340031773,num_3,0.2829924998804927,240.79542500013486,240.79542500013486,None,,1,001,2025-12-16_10h46.44.982,2025C_exp1_detect,2022.2.4,59.929870104094185,
22.7,45,1,1,1,0,0,134,134,129,240.79542500013486,240.79542500013486,241.2961653000675,241.36303230002522,241.41338889999315,241.41338889999315,241.41338889999315,241.41338889999315,241.46313090017065,241.46313090017065,241.46313090017065,241.46313090017065,241.46313090017065,241.46313090017065,241.46313090017065,241.46313090017065,241.46313090017065,241.46313090017065,num_3,0.40300749987363815,241.89685619994998,241.89685619994998,None,,1,001,2025-12-16_10h46.44.982,2025C_exp1_detect,2022.2.4,59.929870104094185,
15.7,315,1,0,-1,0,0,135,135,28,241.89685619994998,241.89685619994998,242.39712300011888,242.46405739989132,242.51434760028496,242.51434760028496,242.51434760028496,242.51434760028496,242.56432270025834,242.56432270025834,242.56432270025834,242.56432270025834,242.56432270025834,242.56432270025834,242.56432270025834,242.56432270025834,242.56432270025834,242.56432270025834,num_1,0.31925009982660413,242.91454060003161,242.91454060003161,None,,1,001,2025-12-16_10h46.44.982,2025C_exp1_detect,2022.2.4,59.929870104094185,
22.7,45,0,1,-1,0,0,136,136,39,242.91454060003161,242.91454060003161,243.41504380013794,243.4817399000749,243.53193370020017,243.53193370020017,243.53193370020017,243.53193370020017,243.58176220022142,243.58176220022142,243.58176220022142,243.58176220022142,243.58176220022142,243.58176220022142,243.58176220022142,243.58176220022142,243.58176220022142,243.58176220022142,num_1,0.4040840999223292,244.01563340006396,244.01563340006396,None,,1,001,2025-12-16_10h46.44.982,2025C_exp1_detect,2022.2.4,59.929870104094185,
19.6,315,0,1,1,0,0,137,137,119,244.01563340006396,244.01563340006396,244.51608640002087,244.58282730029896,244.63305390020832,244.63305390020832,244.63305390020832,244.63305390020832,244.6827074000612,244.6827074000612,244.6827074000612,244.6827074000612,244.6827074000612,244.6827074000612,244.6827074000612,244.6827074000612,244.6827074000612,244.6827074000612,num_3,0.3120174999348819,245.01645730016753,245.01645730016753,None,,1,001,2025-12-16_10h46.44.982,2025C_exp1_detect,2022.2.4,59.929870104094185,
29.4,45,0,0,1,-1,0,138,138,221,245.01645730016753,245.01645730016753,245.51711570005864,245.58396589988843,245.63431000011042,245.63431000011042,245.63431000011042,245.63431000011042,245.68402290018275,245.68402290018275,245.68402290018275,245.68402290018275,245.68402290018275,245.68402290018275,245.68402290018275,245.68402290018275,245.68402290018275,245.68402290018275,num_3,0.4304857994429767,246.1342271999456,246.1342271999456,None,,1,001,2025-12-16_10h46.44.982,2025C_exp1_detect,2022.2.4,59.929870104094185,
15.7,315,0,0,1,1,0,139,139,370,246.1342271999456,246.1342271999456,246.63478700025007,246.70162450009957,246.7516740001738,246.7516740001738,246.7516740001738,246.7516740001738,246.80179090006277,246.80179090006277,246.80179090006277,246.80179090006277,246.80179090006277,246.80179090006277,246.80179090006277,246.80179090006277,246.80179090006277,246.80179090006277,num_3,0.4164449996314943,247.23550599999726,247.23550599999726,None,,1,001,2025-12-16_10h46.44.982,2025C_exp1_detect,2022.2.4,59.929870104094185,
39.2,315,1,0,1,-1,0,140,140,250,247.23550599999726,247.23550599999726,247.73601160012186,247.80271500023082,247.85304519999772,247.85304519999772,247.85304519999772,247.85304519999772,247.9029009998776,247.9029009998776,247.9029009998776,247.9029009998776,247.9029009998776,247.9029009998776,247.9029009998776,247.9029009998776,247.9029009998776,247.9029009998776,num_3,0.36319349939003587,248.28652200009674,248.28652200009674,None,,1,001,2025-12-16_10h46.44.982,2025C_exp1_detect,2022.2.4,59.929870104094185,
19.6,315,1,1,-1,0,0,141,141,65,248.28652200009674,248.28652200009674,248.7870396003127,248.8534886999987,248.90389400022104,248.90389400022104,248.90389400022104,248.90389400022104,248.95387719990686,248.95387719990686,248.95387719990686,248.95387719990686,248.95387719990686,248.95387719990686,248.95387719990686,248.95387719990686,248.95387719990686,248.95387719990686,num_1,0.4241369999945164,249.4043155000545,249.4043155000545,None,,1,001,2025-12-16_10h46.44.982,2025C_exp1_detect,2022.2.4,59.929870104094185,
35.3,315,1,1,-1,1,0,142,142,357,249.4043155000545,249.4043155000545,249.90490079997107,249.97155110025778,250.02176550030708,250.02176550030708,250.02176550030708,250.02176550030708,250.07172890007496,250.07172890007496,250.07172890007496,250.07172890007496,250.07172890007496,250.07172890007496,250.07172890007496,250.07172890007496,250.07172890007496,250.07172890007496,num_1,0.386410899925977,250.488654400222,250.488654400222,None,,1,001,2025-12-16_10h46.44.982,2025C_exp1_detect,2022.2.4,59.929870104094185,
22.7,45,0,0,1,0,0,143,143,75,250.488654400222,250.488654400222,250.98893389990553,251.05573410028592,251.10628359997645,251.10628359997645,251.10628359997645,251.10628359997645,251.156124799978,251.156124799978,251.156124799978,251.156124799978,251.156124799978,251.156124799978,251.156124799978,251.156124799978,251.156124799978,251.156124799978,num_3,0.46969739999622107,251.6564879999496,251.6564879999496,None,,1,001,2025-12-16_10h46.44.982,2025C_exp1_detect,2022.2.4,59.929870104094185,
42.7,315,1,0,1,0,0,144,144,107,251.6564879999496,251.6564879999496,252.15695700002834,252.22379609989002,252.27409090008587,252.27409090008587,252.27409090008587,252.27409090008587,252.32376130018383,252.32376130018383,252.32376130018383,252.32376130018383,252.32376130018383,252.32376130018383,252.32376130018383,252.32376130018383,252.32376130018383,252.32376130018383,num_3,0.4467612998560071,252.79105230001733,252.79105230001733,None,,1,001,2025-12-16_10h46.44.982,2025C_exp1_detect,2022.2.4,59.929870104094185,
19.6,315,1,0,-1,-1,0,145,145,173,252.79105230001733,252.79105230001733,253.29173529986292,253.3584154001437,253.40839069988579,253.40839069988579,253.40839069988579,253.40839069988579,253.45835829991847,253.45835829991847,253.45835829991847,253.45835829991847,253.45835829991847,253.45835829991847,253.45835829991847,253.45835829991847,253.45835829991847,253.45835829991847,num_1,0.31220109993591905,253.792002200149,253.792002200149,None,,1,001,2025-12-16_10h46.44.982,2025C_exp1_detect,2022.2.4,59.929870104094185,
42.7,45,0,0,1,1,0,146,146,368,253.792002200149,253.792002200149,254.29243410006166,254.35908770002425,254.4094634000212,254.4094634000212,254.4094634000212,254.4094634000212,254.45946540031582,254.45946540031582,254.45946540031582,254.45946540031582,254.45946540031582,254.45946540031582,254.45946540031582,254.45946540031582,254.45946540031582,254.45946540031582,num_3,0.3673207997344434,254.84308440005407,254.84308440005407,None,,1,001,2025-12-16_10h46.44.982,2025C_exp1_detect,2022.2.4,59.929870104094185,
25.5,45,1,0,-1,-1,0,147,147,166,254.84308440005407,254.84308440005407,255.34362500021234,255.41034070029855,255.4606527001597,255.4606527001597,255.4606527001597,255.4606527001597,255.510523899924,255.510523899924,255.510523899924,255.510523899924,255.510523899924,255.510523899924,255.510523899924,255.510523899924,255.510523899924,255.510523899924,num_1,0.29916559951379895,255.82742640003562,255.82742640003562,None,,1,001,2025-12-16_10h46.44.982,2025C_exp1_detect,2022.2.4,59.929870104094185,
22.7,45,1,1,1,-1,0,148,148,273,255.82742640003562,255.82742640003562,256.32790730008855,256.39438519999385,256.4449485000223,256.4449485000223,256.4449485000223,256.4449485000223,256.49484089994803,256.49484089994803,256.49484089994803,256.49484089994803,256.49484089994803,256.49484089994803,256.49484089994803,256.49484089994803,256.49484089994803,256.49484089994803,num_1,0.30755369970574975,256.8282317998819,256.8282317998819,None,,1,001,2025-12-16_10h46.44.982,2025C_exp1_detect,2022.2.4,59.929870104094185,
35.3,315,1,0,-1,-1,0,149,149,177,256.8282317998819,256.8282317998819,257.32897419994697,257.3956867000088,257.44598740013316,257.44598740013316,257.44598740013316,257.44598740013316,257.49586810031906,257.49586810031906,257.49586810031906,257.49586810031906,257.49586810031906,257.49586810031906,257.49586810031906,257.49586810031906,257.49586810031906,257.49586810031906,num_1,0.37039839988574386,257.89612769987434,257.89612769987434,None,,1,001,2025-12-16_10h46.44.982,2025C_exp1_detect,2022.2.4,59.929870104094185,
29.4,45,1,1,1,-1,0,150,150,275,257.89612769987434,257.89612769987434,258.39668060000986,258.4632876999676,258.51370940031484,258.51370940031484,258.51370940031484,258.51370940031484,258.5634765001014,258.5634765001014,258.5634765001014,258.5634765001014,258.5634765001014,258.5634765001014,258.5634765001014,258.5634765001014,258.5634765001014,258.5634765001014,num_1,0.27844349993392825,258.8637788002379,258.8637788002379,None,,1,001,2025-12-16_10h46.44.982,2025C_exp1_detect,2022.2.4,59.929870104094185,
19.6,45,0,1,-1,0,0,151,151,38,258.8637788002379,258.8637788002379,259.36417389987037,259.4310043998994,259.48127100011334,259.48127100011334,259.48127100011334,259.48127100011334,259.5311794001609,259.5311794001609,259.5311794001609,259.5311794001609,259.5311794001609,259.5311794001609,259.5311794001609,259.5311794001609,259.5311794001609,259.5311794001609,num_3,0.4628522000275552,260.014823500067,260.014823500067,None,,1,001,2025-12-16_10h46.44.982,2025C_exp1_detect,2022.2.4,59.929870104094185,
29.4,315,1,1,1,0,0,152,152,140,260.014823500067,260.014823500067,260.51530430000275,260.5820027003065,260.63246940029785,260.63246940029785,260.63246940029785,260.63246940029785,260.6821896000765,260.6821896000765,260.6821896000765,260.6821896000765,260.6821896000765,260.6821896000765,260.6821896000765,260.6821896000765,260.6821896000765,260.6821896000765,num_3,0.30379629973322153,261.01570690004155,261.01570690004155,None,,1,001,2025-12-16_10h46.44.982,2025C_exp1_detect,2022.2.4,59.929870104094185,
39.2,45,0,1,-1,1,0,153,153,331,261.01570690004155,261.01570690004155,261.51631780015305,261.58314710017294,261.63346230005845,261.63346230005845,261.63346230005845,261.63346230005845,261.68324739998206,261.68324739998206,261.68324739998206,261.68324739998206,261.68324739998206,261.68324739998206,261.68324739998206,261.68324739998206,261.68324739998206,261.68324739998206,num_3,0.5265581994317472,262.23367909993976,262.23367909993976,None,,1,001,2025-12-16_10h46.44.982,2025C_exp1_detect,2022.2.4,59.929870104094185,
35.3,45,1,1,-1,0,0,154,154,60,262.23367909993976,262.23367909993976,262.73431310011074,262.80104510020465,262.85133220022544,262.85133220022544,262.85133220022544,262.85133220022544,262.90123730013147,262.90123730013147,262.90123730013147,262.90123730013147,262.90123730013147,262.90123730013147,262.90123730013147,262.90123730013147,262.90123730013147,262.90123730013147,num_1,0.37388799991458654,263.3016058001667,263.3016058001667,None,,1,001,2025-12-16_10h46.44.982,2025C_exp1_detect,2022.2.4,59.929870104094185,
15.7,45,1,0,-1,0,0,155,155,19,263.3016058001667,263.3016058001667,263.802204400301,263.86891960026696,263.9189655003138,263.9189655003138,263.9189655003138,263.9189655003138,263.9688011999242,263.9688011999242,263.9688011999242,263.9688011999242,263.9688011999242,263.9688011999242,263.9688011999242,263.9688011999242,263.9688011999242,263.9688011999242,num_1,0.3371655000373721,264.3359042000957,264.3359042000957,None,,1,001,2025-12-16_10h46.44.982,2025C_exp1_detect,2022.2.4,59.929870104094185,
29.4,315,1,1,1,1,0,156,156,428,264.3359042000957,264.3359042000957,264.83645169995725,264.9031366002746,264.9534469000064,264.9534469000064,264.9534469000064,264.9534469000064,265.0033195000142,265.0033195000142,265.0033195000142,265.0033195000142,265.0033195000142,265.0033195000142,265.0033195000142,265.0033195000142,265.0033195000142,265.0033195000142,num_1,0.4078219998627901,265.43701010011137,265.43701010011137,None,,1,001,2025-12-16_10h46.44.982,2025C_exp1_detect,2022.2.4,59.929870104094185,
42.7,315,0,1,1,-1,0,157,157,269,265.43701010011137,265.43701010011137,265.9375793002546,266.0043196002953,266.054531800095,266.054531800095,266.054531800095,266.054531800095,266.10446790000424,266.10446790000424,266.10446790000424,266.10446790000424,266.10446790000424,266.10446790000424,266.10446790000424,266.10446790000424,266.10446790000424,266.10446790000424,num_1,0.36262679984793067,266.4880746998824,266.4880746998824,None,,1,001,2025-12-16_10h46.44.982,2025C_exp1_detect,2022.2.4,59.929870104094185,
15.7,45,0,0,-1,0,0,158,158,1,266.4880746998824,266.4880746998824,266.98844509990886,267.05506080016494,267.10560890007764,267.10560890007764,267.10560890007764,267.10560890007764,267.1552877998911,267.1552877998911,267.1552877998911,267.1552877998911,267.1552877998911,267.1552877998911,267.1552877998911,267.1552877998911,267.1552877998911,267.1552877998911,num_3,0.4548881999216974,267.63894600002095,267.63894600002095,None,,1,001,2025-12-16_10h46.44.982,2025C_exp1_detect,2022.2.4,59.929870104094185,
29.4,45,1,1,1,1,0,159,159,419,267.63894600002095,267.63894600002095,268.13971920032054,268.2064539999701,268.2567878002301,268.2567878002301,268.2567878002301,268.2567878002301,268.306565400213,268.306565400213,268.306565400213,268.306565400213,268.306565400213,268.306565400213,268.306565400213,268.306565400213,268.306565400213,268.306565400213,num_1,0.38435939932242036,268.7235885001719,268.7235885001719,None,,1,001,2025-12-16_10h46.44.982,2025C_exp1_detect,2022.2.4,59.929870104094185,
39.2,315,1,1,-1,1,0,160,160,358,268.7235885001719,268.7235885001719,269.2240142999217,269.2908604000695,269.3411194002256,269.3411194002256,269.3411194002256,269.3411194002256,269.3909038999118,269.3909038999118,269.3909038999118,269.3909038999118,269.3909038999118,269.3909038999118,269.3909038999118,269.3909038999118,269.3909038999118,269.3909038999118,num_1,0.38798699993640184,269.8080466003157,269.8080466003157,None,,1,001,2025-12-16_10h46.44.982,2025C_exp1_detect,2022.2.4,59.929870104094185,
15.7,315,0,1,-1,-1,0,161,161,190,269.8080466003157,269.8080466003157,270.30869450001046,270.37525909999385,270.42561720032245,270.42561720032245,270.42561720032245,270.42561720032245,270.47528590029106,270.47528590029106,270.47528590029106,270.47528590029106,270.47528590029106,270.47528590029106,270.47528590029106,270.47528590029106,270.47528590029106,270.47528590029106,num_3,0.42361109983175993,270.9258193001151,270.9258193001151,None,,1,001,2025-12-16_10h46.44.982,2025C_exp1_detect,2022.2.4,59.929870104094185,
19.6,45,1,1,1,1,0,162,162,416,270.9258193001151,270.9258193001151,271.426342099905,271.4929498001002,271.5433748001233,271.5433748001233,271.5433748001233,271.5433748001233,271.5932450001128,271.5932450001128,271.5932450001128,271.5932450001128,271.5932450001128,271.5932450001128,271.5932450001128,271.5932450001128,271.5932450001128,271.5932450001128,num_1,0.48078589979559183,272.0936765000224,272.0936765000224,None,,1,001,2025-12-16_10h46.44.982,2025C_exp1_detect,2022.2.4,59.929870104094185,
42.7,45,1,0,1,0,0,163,163,98,272.0936765000224,272.0936765000224,272.5942112999037,272.66062569990754,272.71120689995587,272.71120689995587,272.71120689995587,272.71120689995587,272.7608996001072,272.7608996001072,272.7608996001072,272.7608996001072,272.7608996001072,272.7608996001072,272.7608996001072,272.7608996001072,272.7608996001072,272.7608996001072,num_3,0.4582400997169316,273.24482219992206,273.24482219992206,None,,1,001,2025-12-16_10h46.44.982,2025C_exp1_detect,2022.2.4,59.929870104094185,
42.7,315,0,0,-1,0,0,164,164,17,273.24482219992206,273.24482219992206,273.7453542002477,273.81203929986805,273.8621466001496,273.8621466001496,273.8621466001496,273.8621466001496,273.9121560002677,273.9121560002677,273.9121560002677,273.9121560002677,273.9121560002677,273.9121560002677,273.9121560002677,273.9121560002677,273.9121560002677,273.9121560002677,num_3,0.4655314995907247,274.3959711003117,274.3959711003117,None,,1,001,2025-12-16_10h46.44.982,2025C_exp1_detect,2022.2.4,59.929870104094185,
12.1,45,1,1,1,1,0,165,165,414,274.3959711003117,274.3959711003117,274.8965644999407,274.9631966003217,275.01352480007336,275.01352480007336,275.01352480007336,275.01352480007336,275.0634622001089,275.0634622001089,275.0634622001089,275.0634622001089,275.0634622001089,275.0634622001089,275.0634622001089,275.0634622001089,275.0634622001089,275.0634622001089,num_1,0.3544503999873996,275.44701220002025,275.44701220002025,None,,1,001,2025-12-16_10h46.44.982,2025C_exp1_detect,2022.2.4,59.929870104094185,
35.3,45,0,0,-1,0,0,166,166,6,275.44701220002025,275.44701220002025,275.94727070024237,276.0143472002819,276.06455710018054,276.06455710018054,276.06455710018054,276.06455710018054,276.1144369998947,276.1144369998947,276.1144369998947,276.1144369998947,276.1144369998947,276.1144369998947,276.1144369998947,276.1144369998947,276.1144369998947,276.1144369998947,num_3,0.44828080013394356,276.58150990027934,276.58150990027934,None,,1,001,2025-12-16_10h46.44.982,2025C_exp1_detect,2022.2.4,59.929870104094185,
12.1,45,0,0,1,0,0,167,167,72,276.58150990027934,276.58150990027934,277.0820176000707,277.1487275999971,277.1990316999145,277.1990316999145,277.1990316999145,277.1990316999145,277.24874809989706,277.24874809989706,277.24874809989706,277.24874809989706,277.24874809989706,277.24874809989706,277.24874809989706,277.24874809989706,277.24874809989706,277.24874809989706,num_3,0.38536439975723624,277.6655748998746,277.6655748998746,None,,1,001,2025-12-16_10h46.44.982,2025C_exp1_detect,2022.2.4,59.929870104094185,
15.7,315,1,1,-1,1,0,168,168,352,277.6655748998746,277.6655748998746,278.1662890003063,278.2331508998759,278.28344879997894,278.28344879997894,278.28344879997894,278.28344879997894,278.3331718002446,278.3331718002446,278.3331718002446,278.3331718002446,278.3331718002446,278.3331718002446,278.3331718002446,278.3331718002446,278.3331718002446,278.3331718002446,num_1,0.5087868999689817,278.8671081000939,278.8671081000939,None,,1,001,2025-12-16_10h46.44.982,2025C_exp1_detect,2022.2.4,59.929870104094185,
39.2,315,1,0,-1,1,0,169,169,322,278.8671081000939,278.8671081000939,279.36749610025436,279.43434699997306,279.48463780013844,279.48463780013844,279.48463780013844,279.48463780013844,279.5344619001262,279.5344619001262,279.5344619001262,279.5344619001262,279.5344619001262,279.5344619001262,279.5344619001262,279.5344619001262,279.5344619001262,279.5344619001262,num_1,0.2842595996335149,279.8513422999531,279.8513422999531,None,,1,001,2025-12-16_10h46.44.982,2025C_exp1_detect,2022.2.4,59.929870104094185,
39.2,45,0,0,1,1,0,170,170,367,279.8513422999531,279.8513422999531,280.35184990009293,280.41864860011265,280.4689410002902,280.4689410002902,280.4689410002902,280.4689410002902,280.5188444000669,280.5188444000669,280.5188444000669,280.5188444000669,280.5188444000669,280.5188444000669,280.5188444000669,280.5188444000669,280.5188444000669,280.5188444000669,num_3,0.4029604000970721,280.952528799884,280.952528799884,None,,1,001,2025-12-16_10h46.44.982,2025C_exp1_detect,2022.2.4,59.929870104094185,
42.7,45,1,0,1,1,0,171,171,386,280.952528799884,280.952528799884,281.4530242001638,281.51975520001724,281.57002730015665,281.57002730015665,281.57002730015665,281.57002730015665,281.6199145000428,281.6199145000428,281.6199145000428,281.6199145000428,281.6199145000428,281.6199145000428,281.6199145000428,281.6199145000428,281.6199145000428,281.6199145000428,num_3,0.5426885997876525,282.18677890021354,282.18677890021354,None,,1,001,2025-12-16_10h46.44.982,2025C_exp1_detect,2022.2.4,59.929870104094185,
35.3,315,0,1,1,-1,0,172,172,267,282.18677890021354,282.18677890021354,282.6876674001105,282.75422210013494,282.8044553999789,282.8044553999789,282.8044553999789,282.8044553999789,282.8543222001754,282.8543222001754,282.8543222001754,282.8543222001754,282.8543222001754,282.8543222001754,282.8543222001754,282.8543222001754,282.8543222001754,282.8543222001754,num_1,0.39683059975504875,283.2714821998961,283.2714821998961,None,,1,001,2025-12-16_10h46.44.982,2025C_exp1_detect,2022.2.4,59.929870104094185,
39.2,45,0,1,-1,-1,0,173,173,187,283.2714821998961,283.2714821998961,283.77216849988326,283.83877969998866,283.88910830020905,283.88910830020905,283.88910830020905,283.88910830020905,283.93877410003915,283.93877410003915,283.93877410003915,283.93877410003915,283.93877410003915,283.93877410003915,283.93877410003915,283.93877410003915,283.93877410003915,283.93877410003915,num_3,0.48815339989960194,284.45600790018216,284.45600790018216,None,,1,001,2025-12-16_10h46.44.982,2025C_exp1_detect,2022.2.4,59.929870104094185,
42.7,45,1,1,-1,0,0,174,174,62,284.45600790018216,284.45600790018216,284.95655529992655,285.0229823999107,285.0735582001507,285.0735582001507,285.0735582001507,285.0735582001507,285.12344390014187,285.12344390014187,285.12344390014187,285.12344390014187,285.12344390014187,285.12344390014187,285.12344390014187,285.12344390014187,285.12344390014187,285.12344390014187,num_1,0.3508710996247828,285.5070457002148,285.5070457002148,None,,1,001,2025-12-16_10h46.44.982,2025C_exp1_detect,2022.2.4,59.929870104094185,
42.7,315,0,1,1,0,0,175,175,125,285.5070457002148,285.5070457002148,286.007512900047,286.07429359992966,286.124603100121,286.124603100121,286.124603100121,286.124603100121,286.1744862999767,286.1744862999767,286.1744862999767,286.1744862999767,286.1744862999767,286.1744862999767,286.1744862999767,286.1744862999767,286.1744862999767,286.1744862999767,num_1,0.38027280010282993,286.57481530029327,286.57481530029327,None,,1,001,2025-12-16_10h46.44.982,2025C_exp1_detect,2022.2.4,59.929870104094185,
39.2,315,0,0,1,0,0,176,176,88,286.57481530029327,286.57481530029327,287.07533540017903,287.1420529000461,287.1923238001764,287.1923238001764,287.1923238001764,287.1923238001764,287.24213889986277,287.24213889986277,287.24213889986277,287.24213889986277,287.24213889986277,287.24213889986277,287.24213889986277,287.24213889986277,287.24213889986277,287.24213889986277,num_3,0.632785199675709,287.892784900032,287.892784900032,None,,1,001,2025-12-16_10h46.44.982,2025C_exp1_detect,2022.2.4,59.929870104094185,
42.7,45,1,0,1,-1,0,177,177,242,287.892784900032,287.892784900032,288.39302980015054,288.4598794002086,288.5103088999167,288.5103088999167,288.5103088999167,288.5103088999167,288.5602392000146,288.5602392000146,288.5602392000146,288.5602392000146,288.5602392000146,288.5602392000146,288.5602392000146,288.5602392000146,288.5602392000146,288.5602392000146,num_3,0.41841450007632375,289.01043089991435,289.01043089991435,None,,1,001,2025-12-16_10h46.44.982,2025C_exp1_detect,2022.2.4,59.929870104094185,
12.1,315,1,1,-1,0,0,178,178,63,289.01043089991435,289.01043089991435,289.51106180017814,289.5778081002645,289.628202999942,289.628202999942,289.628202999942,289.628202999942,289.67781940009445,289.67781940009445,289.67781940009445,289.67781940009445,289.67781940009445,289.67781940009445,289.67781940009445,289.67781940009445,289.67781940009445,289.67781940009445,num_1,0.33218419970944524,290.02825780026615,290.02825780026615,None,,1,001,2025-12-16_10h46.44.982,2025C_exp1_detect,2022.2.4,59.929870104094185,
22.7,315,1,1,1,1,0,179,179,426,290.02825780026615,290.02825780026615,290.5286407000385,290.5954952999018,290.64563800022006,290.64563800022006,290.64563800022006,290.64563800022006,290.6956603000872,290.6956603000872,290.6956603000872,290.6956603000872,290.6956603000872,290.6956603000872,290.6956603000872,290.6956603000872,290.6956603000872,290.6956603000872,num_1,0.31413119984790683,291.02909940015525,291.02909940015525,None,,1,001,2025-12-16_10h46.44.982,2025C_exp1_detect,2022.2.4,59.929870104094185,
22.7,315,0,1,1,0,0,180,180,120,291.02909940015525,291.02909940015525,291.52977710030973,291.5964983003214,291.64668809995055,291.64668809995055,291.64668809995055,291.64668809995055,291.696498000063,291.696498000063,291.696498000063,291.696498000063,291.696498000063,291.696498000063,291.696498000063,291.696498000063,291.696498000063,291.696498000063,num_1,0.3694305997341871,292.0968289002776,292.0968289002776,None,,1,001,2025-12-16_10h46.44.982,2025C_exp1_detect,2022.2.4,59.929870104094185,
15.7,45,0,1,-1,-1,0,181,181,181,292.0968289002776,292.0968289002776,292.597230900079,292.66422650031745,292.71450129989535,292.71450129989535,292.71450129989535,292.71450129989535,292.76427720021456,292.76427720021456,292.76427720021456,292.76427720021456,292.76427720021456,292.76427720021456,292.76427720021456,292.76427720021456,292.76427720021456,292.76427720021456,num_3,0.3661364996805787,293.1480592000298,293.1480592000298,None,,1,001,2025-12-16_10h46.44.982,2025C_exp1_detect,2022.2.4,59.929870104094185,
35.3,45,1,1,1,0,0,182,182,132,293.1480592000298,293.1480592000298,293.64860469987616,293.71513860020787,293.76563640031964,293.76563640031964,293.76563640031964,293.76563640031964,293.8155147000216,293.8155147000216,293.8155147000216,293.8155147000216,293.8155147000216,293.8155147000216,293.8155147000216,293.8155147000216,293.8155147000216,293.8155147000216,num_1,0.3314487994648516,294.1654624999501,294.1654624999501,None,,1,001,2025-12-16_10h46.44.982,2025C_exp1_detect,2022.2.4,59.929870104094185,
42.7,315,1,1,-1,1,0,183,183,359,294.1654624999501,294.1654624999501,294.66594620002434,294.7329683001153,294.7831689999439,294.7831689999439,294.7831689999439,294.7831689999439,294.83301809988916,294.83301809988916,294.83301809988916,294.83301809988916,294.83301809988916,294.83301809988916,294.83301809988916,294.83301809988916,294.83301809988916,294.83301809988916,num_1,0.3379619996994734,295.200087999925,295.200087999925,None,,1,001,2025-12-16_10h46.44.982,2025C_exp1_detect,2022.2.4,59.929870104094185,
35.3,45,0,1,-1,1,0,184,184,330,295.200087999925,295.200087999925,295.7006108001806,295.7673148000613,295.81753699993715,295.81753699993715,295.81753699993715,295.81753699993715,295.8675196999684,295.8675196999684,295.8675196999684,295.8675196999684,295.8675196999684,295.8675196999684,295.8675196999684,295.8675196999684,295.8675196999684,295.8675196999684,num_3,0.39089930010959506,296.2845332999714,296.2845332999714,None,,1,001,2025-12-16_10h46.44.982,2025C_exp1_detect,2022.2.4,59.929870104094185,
15.7,315,1,1,1,0,0,185,185,136,296.2845332999714,296.2845332999714,296.78499979991466,296.851745699998,296.90208570007235,296.90208570007235,296.90208570007235,296.90208570007235,296.95180180016905,296.95180180016905,296.95180180016905,296.95180180016905,296.95180180016905,296.95180180016905,296.95180180016905,296.95180180016905,296.95180180016905,296.95180180016905,num_1,0.38681389996781945,297.3689381000586,297.3689381000586,None,,1,001,2025-12-16_10h46.44.982,2025C_exp1_detect,2022.2.4,59.929870104094185,
35.3,315,1,1,1,1,0,186,186,429,297.3689381000586,297.3689381000586,297.86936770007014,297.93621250009164,297.9864814998582,297.9864814998582,297.9864814998582,297.9864814998582,298.0363115002401,298.0363115002401,298.0363115002401,298.0363115002401,298.0363115002401,298.0363115002401,298.0363115002401,298.0363115002401,298.0363115002401,298.0363115002401,num_1,0.37459739996120334,298.4366969000548,298.4366969000548,None,,1,001,2025-12-16_10h46.44.982,2025C_exp1_detect,2022.2.4,59.929870104094185,
15.7,45,0,1,1,0,0,187,187,109,298.4366969000548,298.4366969000548,298.9370772000402,299.00392990000546,299.0541262999177,299.0541262999177,299.0541262999177,299.0541262999177,299.1040838002227,299.1040838002227,299.1040838002227,299.1040838002227,299.1040838002227,299.1040838002227,299.1040838002227,299.1040838002227,299.1040838002227,299.1040838002227,num_1,0.3618170996196568,299.48772739991546,299.48772739991546,None,,1,001,2025-12-16_10h46.44.982,2025C_exp1_detect,2022.2.4,59.929870104094185,
12.1,315,0,0,1,1,0,188,188,369,299.48772739991546,299.48772739991546,299.9882080000825,300.0548113002442,300.10527750011533,300.10527750011533,300.10527750011533,300.10527750011533,300.15500910021365,300.15500910021365,300.15500910021365,300.15500910021365,300.15500910021365,300.15500910021365,300.15500910021365,300.15500910021365,300.15500910021365,300.15500910021365,num_3,0.3754493994638324,300.5553688001819,300.5553688001819,None,,1,001,2025-12-16_10h46.44.982,2025C_exp1_detect,2022.2.4,59.929870104094185,
22.7,45,1,0,-1,1,0,189,189,309,300.5553688001819,300.5553688001819,301.0557113001123,301.12268840009347,301.1727082999423,301.1727082999423,301.1727082999423,301.1727082999423,301.2228242000565,301.2228242000565,301.2228242000565,301.2228242000565,301.2228242000565,301.2228242000565,301.2228242000565,301.2228242000565,301.2228242000565,301.2228242000565,num_1,0.31530490005388856,301.55620900029317,301.55620900029317,None,,1,001,2025-12-16_10h46.44.982,2025C_exp1_detect,2022.2.4,59.929870104094185,
15.7,315,1,0,1,-1,0,190,190,244,301.55620900029317,301.55620900029317,302.0568702002056,302.1237432998605,302.1740983999334,302.1740983999334,302.1740983999334,302.1740983999334,302.2237797998823,302.2237797998823,302.2237797998823,302.2237797998823,302.2237797998823,302.2237797998823,302.2237797998823,302.2237797998823,302.2237797998823,302.2237797998823,num_3,0.38690249947831035,302.6409339001402,302.6409339001402,None,,1,001,2025-12-16_10h46.44.982,2025C_exp1_detect,2022.2.4,59.929870104094185,
42.7,315,0,0,1,-1,0,191,191,233,302.6409339001402,302.6409339001402,303.1412498001009,303.2078561000526,303.2584575000219,303.2584575000219,303.2584575000219,303.2584575000219,303.30836019990966,303.30836019990966,303.30836019990966,303.30836019990966,303.30836019990966,303.30836019990966,303.30836019990966,303.30836019990966,303.30836019990966,303.30836019990966,num_3,0.4456009999848902,303.775222199969,303.775222199969,None,,1,001,2025-12-16_10h46.44.982,2025C_exp1_detect,2022.2.4,59.929870104094185,
39.2,315,0,0,-1,1,0,192,192,304,303.775222199969,303.775222199969,304.2759155998938,304.3424768000841,304.39295580005273,304.39295580005273,304.39295580005273,304.39295580005273,304.442641899921,304.442641899921,304.442641899921,304.442641899921,304.442641899921,304.442641899921,304.442641899921,304.442641899921,304.442641899921,304.442641899921,num_3,0.36736199958249927,304.8262570002116,304.8262570002116,None,,1,001,2025-12-16_10h46.44.982,2025C_exp1_detect,2022.2.4,59.929870104094185,
39.2,45,0,0,1,-1,0,193,193,223,304.8262570002116,304.8262570002116,305.3269076999277,305.39347540028393,305.44390630023554,305.44390630023554,305.44390630023554,305.44390630023554,305.4937904002145,305.4937904002145,305.4937904002145,305.4937904002145,305.4937904002145,305.4937904002145,305.4937904002145,305.4937904002145,305.4937904002145,305.4937904002145,num_3,0.4690077998675406,305.99421200016513,305.99421200016513,None,,1,001,2025-12-16_10h46.44.982,2025C_exp1_detect,2022.2.4,59.929870104094185,
19.6,315,0,0,1,1,0,194,194,371,305.99421200016513,305.99421200016513,306.49455450009555,306.56154379993677,306.61178940022364,306.61178940022364,306.61178940022364,306.61178940022364,306.66155820013955,306.66155820013955,306.66155820013955,306.66155820013955,306.66155820013955,306.66155820013955,306.66155820013955,306.66155820013955,306.66155820013955,306.66155820013955,num_3,0.38044979982078075,307.06196570023894,307.06196570023894,None,,1,001,2025-12-16_10h46.44.982,2025C_exp1_detect,2022.2.4,59.929870104094185,
