contrast,ori,side,precue,trials.thisRepN,trials.thisTrialN,trials.thisN,trials.thisIndex,fix1.started,fix2.started,precue_2.started,precue_2.stopped,left_grating.started,right_grating.started,noise_left2.started,noise_right2.started,fix1.stopped,fix2.stopped,left_grating.stopped,right_grating.stopped,noise_left2.stopped,noise_right2.stopped,key_resp.started,fix1_2.started,fix2_2.started,key_resp.keys,key_resp.rt,key_resp_2.started,break_text_2.started,key_resp_2.keys,key_resp_2.rt,participant,session,date,expName,psychopyVersion,frameRate,
29.4,45,1,1,0,0,0,59,14.056626700330526,14.056626700330526,14.536281000357121,14.603159900289029,14.672286400105804,14.672286400105804,14.672286400105804,14.672286400105804,14.702999100089073,14.702999100089073,14.702999100089073,14.702999100089073,14.702999100089073,14.702999100089073,14.719622900243849,14.719622900243849,14.719622900243849,right,10.133240199647844,24.880073599983007,24.880073599983007,None,,1,001,2025-12-16_10h19.17.281,2025C_exp1_comp,2022.2.4,59.75082710938289,
22.7,45,1,0,0,1,1,21,24.880073599983007,24.880073599983007,25.38060920033604,25.447190599981695,25.497539800126106,25.497539800126106,25.497539800126106,25.497539800126106,25.54742610035464,25.54742610035464,25.54742610035464,25.54742610035464,25.54742610035464,25.54742610035464,25.54742610035464,25.54742610035464,25.54742610035464,left,1.1848049000836909,26.74862760026008,26.74862760026008,None,,1,001,2025-12-16_10h19.17.281,2025C_exp1_comp,2022.2.4,59.75082710938289,
12.1,45,-1,0,0,2,2,0,26.74862760026008,26.74862760026008,27.249150200281292,27.315865400247276,27.366075200028718,27.366075200028718,27.366075200028718,27.366075200028718,27.415967100299895,27.415967100299895,27.415967100299895,27.415967100299895,27.415967100299895,27.415967100299895,27.415967100299895,27.415967100299895,27.415967100299895,right,0.732351700309664,28.166718400083482,28.166718400083482,None,,1,001,2025-12-16_10h19.17.281,2025C_exp1_comp,2022.2.4,59.75082710938289,
35.3,315,1,1,0,3,3,69,28.166718400083482,28.166718400083482,28.66711140004918,28.733955500181764,28.784248400013894,28.784248400013894,28.784248400013894,28.784248400013894,28.833935500122607,28.833935500122607,28.833935500122607,28.833935500122607,28.833935500122607,28.833935500122607,28.833935500122607,28.833935500122607,28.833935500122607,right,0.8098949999548495,29.668236500117928,29.668236500117928,None,,1,001,2025-12-16_10h19.17.281,2025C_exp1_comp,2022.2.4,59.75082710938289,
39.2,45,1,-1,0,4,4,97,29.668236500117928,29.668236500117928,30.16871009999886,30.235365299973637,30.285820899996907,30.285820899996907,30.285820899996907,30.285820899996907,30.33557550003752,30.33557550003752,30.33557550003752,30.33557550003752,30.33557550003752,30.33557550003752,30.33557550003752,30.33557550003752,30.33557550003752,right,0.9326716000214219,31.286448100116104,31.286448100116104,None,,1,001,2025-12-16_10h19.17.281,2025C_exp1_comp,2022.2.4,59.75082710938289,
22.7,315,1,1,0,5,5,66,31.286448100116104,31.286448100116104,31.787036400288343,31.853722000028938,31.904140200000256,31.904140200000256,31.904140200000256,31.904140200000256,31.953866499941796,31.953866499941796,31.953866499941796,31.953866499941796,31.953866499941796,31.953866499941796,31.953866499941796,31.953866499941796,31.953866499941796,right,1.1708737001754344,33.155036200303584,33.155036200303584,None,,1,001,2025-12-16_10h19.17.281,2025C_exp1_comp,2022.2.4,59.75082710938289,
12.1,315,1,-1,0,6,6,99,33.155036200303584,33.155036200303584,33.65541370026767,33.7221316001378,33.772573000285774,33.772573000285774,33.772573000285774,33.772573000285774,33.82224110001698,33.82224110001698,33.82224110001698,33.82224110001698,33.82224110001698,33.82224110001698,33.82224110001698,33.82224110001698,33.82224110001698,left,1.2782350997440517,35.12343379994854,35.12343379994854,None,,1,001,2025-12-16_10h19.17.281,2025C_exp1_comp,2022.2.4,59.75082710938289,
15.7,45,-1,-1,0,7,7,73,35.12343379994854,35.12343379994854,35.62437009997666,35.69096950022504,35.74121960019693,35.74121960019693,35.74121960019693,35.74121960019693,35.79094889992848,35.79094889992848,35.79094889992848,35.79094889992848,35.79094889992848,35.79094889992848,35.79094889992848,35.79094889992848,35.79094889992848,right,0.9256490003317595,36.741829600185156,36.741829600185156,None,,1,001,2025-12-16_10h19.17.281,2025C_exp1_comp,2022.2.4,59.75082710938289,
12.1,315,-1,1,0,8,8,45,36.741829600185156,36.741829600185156,37.24248080002144,37.30918490001932,37.35941180028021,37.35941180028021,37.35941180028021,37.35941180028021,37.4092994001694,37.4092994001694,37.4092994001694,37.4092994001694,37.4092994001694,37.4092994001694,37.4092994001694,37.4092994001694,37.4092994001694,right,0.7545733996666968,38.19329320034012,38.19329320034012,None,,1,001,2025-12-16_10h19.17.281,2025C_exp1_comp,2022.2.4,59.75082710938289,
42.7,315,1,1,0,9,9,71,38.19329320034012,38.19329320034012,38.69390830025077,38.760572200175375,38.810949500184506,38.810949500184506,38.810949500184506,38.810949500184506,38.86061710026115,38.86061710026115,38.86061710026115,38.86061710026115,38.86061710026115,38.86061710026115,38.86061710026115,38.86061710026115,38.86061710026115,right,0.656339299865067,39.54475190024823,39.54475190024823,None,,1,001,2025-12-16_10h19.17.281,2025C_exp1_comp,2022.2.4,59.75082710938289,
39.2,315,1,1,0,10,10,70,39.54475190024823,39.54475190024823,40.04522710014135,40.111969199962914,40.16204719990492,40.16204719990492,40.16204719990492,40.16204719990492,40.21213200036436,40.21213200036436,40.21213200036436,40.21213200036436,40.21213200036436,40.21213200036436,40.21213200036436,40.21213200036436,40.21213200036436,right,0.6808222001418471,40.91264990018681,40.91264990018681,None,,1,001,2025-12-16_10h19.17.281,2025C_exp1_comp,2022.2.4,59.75082710938289,
19.6,45,1,0,0,11,11,20,40.91264990018681,40.91264990018681,41.41332409996539,41.47984059993178,41.53030340000987,41.53030340000987,41.53030340000987,41.53030340000987,41.58013800019398,41.58013800019398,41.58013800019398,41.58013800019398,41.58013800019398,41.58013800019398,41.58013800019398,41.58013800019398,41.58013800019398,right,0.8073744000867009,42.41399000026286,42.41399000026286,None,,1,001,2025-12-16_10h19.17.281,2025C_exp1_comp,2022.2.4,59.75082710938289,
15.7,45,1,1,0,12,12,55,42.41399000026286,42.41399000026286,42.914977200329304,42.98152110027149,43.031880100257695,43.031880100257695,43.031880100257695,43.031880100257695,43.08151140017435,43.08151140017435,43.08151140017435,43.08151140017435,43.08151140017435,43.08151140017435,43.08151140017435,43.08151140017435,43.08151140017435,left,0.7946568997576833,43.899106400087476,43.899106400087476,None,,1,001,2025-12-16_10h19.17.281,2025C_exp1_comp,2022.2.4,59.75082710938289,
15.7,315,-1,1,0,13,13,46,43.899106400087476,43.899106400087476,44.399833200033754,44.46628449996933,44.516719200182706,44.516719200182706,44.516719200182706,44.516719200182706,44.566271000076085,44.566271000076085,44.566271000076085,44.566271000076085,44.566271000076085,44.566271000076085,44.566271000076085,44.566271000076085,44.566271000076085,right,0.8062037001363933,45.40048270020634,45.40048270020634,None,,1,001,2025-12-16_10h19.17.281,2025C_exp1_comp,2022.2.4,59.75082710938289,
22.7,315,1,-1,0,14,14,102,45.40048270020634,45.40048270020634,45.901261900085956,45.96796620031819,46.01829890022054,46.01829890022054,46.01829890022054,46.01829890022054,46.06792870024219,46.06792870024219,46.06792870024219,46.06792870024219,46.06792870024219,46.06792870024219,46.06792870024219,46.06792870024219,46.06792870024219,right,1.007907799910754,47.102304600179195,47.102304600179195,None,,1,001,2025-12-16_10h19.17.281,2025C_exp1_comp,2022.2.4,59.75082710938289,
19.6,45,-1,0,0,15,15,2,47.102304600179195,47.102304600179195,47.60298749990761,47.66976730013266,47.7198302000761,47.7198302000761,47.7198302000761,47.7198302000761,47.76965040015057,47.76965040015057,47.76965040015057,47.76965040015057,47.76965040015057,47.76965040015057,47.76965040015057,47.76965040015057,47.76965040015057,right,0.8753892998211086,48.670402199961245,48.670402199961245,None,,1,001,2025-12-16_10h19.17.281,2025C_exp1_comp,2022.2.4,59.75082710938289,
29.4,45,-1,-1,0,16,16,77,48.670402199961245,48.670402199961245,49.1710542999208,49.23777210013941,49.288074700161815,49.288074700161815,49.288074700161815,49.288074700161815,49.337866600137204,49.337866600137204,49.337866600137204,49.337866600137204,49.337866600137204,49.337866600137204,49.337866600137204,49.337866600137204,49.337866600137204,right,0.6664755996316671,50.021854400169104,50.021854400169104,None,,1,001,2025-12-16_10h19.17.281,2025C_exp1_comp,2022.2.4,59.75082710938289,
25.5,315,1,-1,0,17,17,103,50.021854400169104,50.021854400169104,50.52239500032738,50.58889049990103,50.63949210010469,50.63949210010469,50.63949210010469,50.63949210010469,50.689222699962556,50.689222699962556,50.689222699962556,50.689222699962556,50.689222699962556,50.689222699962556,50.689222699962556,50.689222699962556,50.689222699962556,right,0.9477685000747442,51.656677999999374,51.656677999999374,None,,1,001,2025-12-16_10h19.17.281,2025C_exp1_comp,2022.2.4,59.75082710938289,
39.2,315,-1,-1,0,18,18,88,51.656677999999374,51.656677999999374,52.15739930002019,52.224135200027376,52.274365700315684,52.274365700315684,52.274365700315684,52.274365700315684,52.324255800340325,52.324255800340325,52.324255800340325,52.324255800340325,52.324255800340325,52.324255800340325,52.324255800340325,52.324255800340325,52.324255800340325,left,0.8632044000551105,53.20840590028092,53.20840590028092,None,,1,001,2025-12-16_10h19.17.281,2025C_exp1_comp,2022.2.4,59.75082710938289,
25.5,45,1,-1,0,19,19,94,53.20840590028092,53.20840590028092,53.7088057002984,53.77562700025737,53.82595760002732,53.82595760002732,53.82595760002732,53.82595760002732,53.87573500024155,53.87573500024155,53.87573500024155,53.87573500024155,53.87573500024155,53.87573500024155,53.87573500024155,53.87573500024155,53.87573500024155,left,0.7920209998264909,54.69300390034914,54.69300390034914,None,,1,001,2025-12-16_10h19.17.281,2025C_exp1_comp,2022.2.4,59.75082710938289,
42.7,315,-1,0,0,20,20,17,54.69300390034914,54.69300390034914,55.19383110012859,55.26045830035582,55.31087370030582,55.31087370030582,55.31087370030582,55.31087370030582,55.36065650032833,55.36065650032833,55.36065650032833,55.36065650032833,55.36065650032833,55.36065650032833,55.36065650032833,55.36065650032833,55.36065650032833,right,0.9714824999682605,56.36147330002859,56.36147330002859,None,,1,001,2025-12-16_10h19.17.281,2025C_exp1_comp,2022.2.4,59.75082710938289,
42.7,45,1,-1,0,21,21,98,56.36147330002859,56.36147330002859,56.8620641999878,56.92880359990522,56.97911580000073,56.97911580000073,56.97911580000073,56.97911580000073,57.028756000101566,57.028756000101566,57.028756000101566,57.028756000101566,57.028756000101566,57.028756000101566,57.028756000101566,57.028756000101566,57.028756000101566,right,0.9028125000186265,57.963185200002044,57.963185200002044,None,,1,001,2025-12-16_10h19.17.281,2025C_exp1_comp,2022.2.4,59.75082710938289,
25.5,45,1,1,0,22,22,58,57.963185200002044,57.963185200002044,58.4635569001548,58.53035080013797,58.5804471001029,58.5804471001029,58.5804471001029,58.5804471001029,58.6303665000014,58.6303665000014,58.6303665000014,58.6303665000014,58.6303665000014,58.6303665000014,58.6303665000014,58.6303665000014,58.6303665000014,left,0.8373221000656486,59.498045100364834,59.498045100364834,None,,1,001,2025-12-16_10h19.17.281,2025C_exp1_comp,2022.2.4,59.75082710938289,
12.1,315,-1,0,0,23,23,9,59.498045100364834,59.498045100364834,59.99857270019129,60.06528569990769,60.11558150034398,60.11558150034398,60.11558150034398,60.11558150034398,60.16524560004473,60.16524560004473,60.16524560004473,60.16524560004473,60.16524560004473,60.16524560004473,60.16524560004473,60.16524560004473,60.16524560004473,right,1.2072356999851763,61.3997987001203,61.3997987001203,None,,1,001,2025-12-16_10h19.17.281,2025C_exp1_comp,2022.2.4,59.75082710938289,
39.2,45,1,1,0,24,24,61,61.3997987001203,61.3997987001203,61.90051450021565,61.967145500238985,62.01746700005606,62.01746700005606,62.01746700005606,62.01746700005606,62.067212500143796,62.067212500143796,62.067212500143796,62.067212500143796,62.067212500143796,62.067212500143796,62.067212500143796,62.067212500143796,62.067212500143796,left,0.8885807003825903,62.98453909996897,62.98453909996897,None,,1,001,2025-12-16_10h19.17.281,2025C_exp1_comp,2022.2.4,59.75082710938289,
12.1,315,1,0,0,25,25,27,62.98453909996897,62.98453909996897,63.485536199994385,63.55215839995071,63.60245670005679,63.60245670005679,63.60245670005679,63.60245670005679,63.65222280006856,63.65222280006856,63.65222280006856,63.65222280006856,63.65222280006856,63.65222280006856,63.65222280006856,63.65222280006856,63.65222280006856,left,0.9602546002715826,64.63640570035204,64.63640570035204,None,,1,001,2025-12-16_10h19.17.281,2025C_exp1_comp,2022.2.4,59.75082710938289,
15.7,315,-1,0,0,26,26,10,64.63640570035204,64.63640570035204,65.13681349996477,65.20363460015506,65.25375680020079,65.25375680020079,65.25375680020079,65.25375680020079,65.30369580024853,65.30369580024853,65.30369580024853,65.30369580024853,65.30369580024853,65.30369580024853,65.30369580024853,65.30369580024853,65.30369580024853,right,0.8133848002180457,66.13798280013725,66.13798280013725,None,,1,001,2025-12-16_10h19.17.281,2025C_exp1_comp,2022.2.4,59.75082710938289,
39.2,45,1,0,0,27,27,25,66.13798280013725,66.13798280013725,66.63838570006192,66.7052446003072,66.75553740002215,66.75553740002215,66.75553740002215,66.75553740002215,66.80524630006403,66.80524630006403,66.80524630006403,66.80524630006403,66.80524630006403,66.80524630006403,66.80524630006403,66.80524630006403,66.80524630006403,right,0.9424950000829995,67.77297060005367,67.77297060005367,None,,1,001,2025-12-16_10h19.17.281,2025C_exp1_comp,2022.2.4,59.75082710938289,
25.5,315,-1,-1,0,28,28,85,67.77297060005367,67.77297060005367,68.27340689999983,68.34010810032487,68.39054440008476,68.39054440008476,68.39054440008476,68.39054440008476,68.4403515001759,68.4403515001759,68.4403515001759,68.4403515001759,68.4403515001759,68.4403515001759,68.4403515001759,68.4403515001759,68.4403515001759,right,0.795287000015378,69.25748410029337,69.25748410029337,None,,1,001,2025-12-16_10h19.17.281,2025C_exp1_comp,2022.2.4,59.75082710938289,
25.5,45,-1,-1,0,29,29,76,69.25748410029337,69.25748410029337,69.75833539990708,69.82490599993616,69.87537370016798,69.87537370016798,69.87537370016798,69.87537370016798,69.92514590034261,69.92514590034261,69.92514590034261,69.92514590034261,69.92514590034261,69.92514590034261,69.92514590034261,69.92514590034261,69.92514590034261,right,1.1028974996879697,71.05945850024,71.05945850024,None,,1,001,2025-12-16_10h19.17.281,2025C_exp1_comp,2022.2.4,59.75082710938289,
39.2,45,-1,-1,0,30,30,79,71.05945850024,71.05945850024,71.56009360030293,71.62682100012898,71.67711890023202,71.67711890023202,71.67711890023202,71.67711890023202,71.72686230018735,71.72686230018735,71.72686230018735,71.72686230018735,71.72686230018735,71.72686230018735,71.72686230018735,71.72686230018735,71.72686230018735,left,0.9332269001752138,72.67765709990636,72.67765709990636,None,,1,001,2025-12-16_10h19.17.281,2025C_exp1_comp,2022.2.4,59.75082710938289,
29.4,315,1,1,0,31,31,68,72.67765709990636,72.67765709990636,73.17842400027439,73.24496030015871,73.29541729995981,73.29541729995981,73.29541729995981,73.29541729995981,73.3450059001334,73.3450059001334,73.3450059001334,73.3450059001334,73.3450059001334,73.3450059001334,73.3450059001334,73.3450059001334,73.3450059001334,left,0.9868483999744058,74.36274420004338,74.36274420004338,None,,1,001,2025-12-16_10h19.17.281,2025C_exp1_comp,2022.2.4,59.75082710938289,
25.5,45,-1,1,0,32,32,40,74.36274420004338,74.36274420004338,74.86341830017045,74.92986800009385,74.98043760005385,74.98043760005385,74.98043760005385,74.98043760005385,75.03023590007797,75.03023590007797,75.03023590007797,75.03023590007797,75.03023590007797,75.03023590007797,75.03023590007797,75.03023590007797,75.03023590007797,left,0.9503040998242795,75.99773110030219,75.99773110030219,None,,1,001,2025-12-16_10h19.17.281,2025C_exp1_comp,2022.2.4,59.75082710938289,
35.3,45,-1,-1,0,33,33,78,75.99773110030219,75.99773110030219,76.4984495001845,76.56507960008457,76.61555750016123,76.61555750016123,76.61555750016123,76.61555750016123,76.66518210014328,76.66518210014328,76.66518210014328,76.66518210014328,76.66518210014328,76.66518210014328,76.66518210014328,76.66518210014328,76.66518210014328,left,1.179495200049132,77.86651710001752,77.86651710001752,None,,1,001,2025-12-16_10h19.17.281,2025C_exp1_comp,2022.2.4,59.75082710938289,
19.6,45,1,1,0,34,34,56,77.86651710001752,77.86651710001752,78.36677110008895,78.43361910013482,78.48399320011958,78.48399320011958,78.48399320011958,78.48399320011958,78.53373550018296,78.53373550018296,78.53373550018296,78.53373550018296,78.53373550018296,78.53373550018296,78.53373550018296,78.53373550018296,78.53373550018296,right,0.9431428997777402,79.50139240035787,79.50139240035787,None,,1,001,2025-12-16_10h19.17.281,2025C_exp1_comp,2022.2.4,59.75082710938289,
35.3,315,-1,0,0,35,35,15,79.50139240035787,79.50139240035787,80.00183680001646,80.06847700010985,80.11887879995629,80.11887879995629,80.11887879995629,80.11887879995629,80.16863570036367,80.16863570036367,80.16863570036367,80.16863570036367,80.16863570036367,80.16863570036367,80.16863570036367,80.16863570036367,80.16863570036367,right,1.019539199769497,81.2197278002277,81.2197278002277,None,,1,001,2025-12-16_10h19.17.281,2025C_exp1_comp,2022.2.4,59.75082710938289,
15.7,45,-1,1,0,36,36,37,81.2197278002277,81.2197278002277,81.7202818999067,81.7869716999121,81.8373803999275,81.8373803999275,81.8373803999275,81.8373803999275,81.88693370018154,81.88693370018154,81.88693370018154,81.88693370018154,81.88693370018154,81.88693370018154,81.88693370018154,81.88693370018154,81.88693370018154,left,1.0375439003109932,82.95484100002795,82.95484100002795,None,,1,001,2025-12-16_10h19.17.281,2025C_exp1_comp,2022.2.4,59.75082710938289,
35.3,45,1,-1,0,37,37,96,82.95484100002795,82.95484100002795,83.45533209992573,83.52204710012302,83.57219969993457,83.57219969993457,83.57219969993457,83.57219969993457,83.62203980004415,83.62203980004415,83.62203980004415,83.62203980004415,83.62203980004415,83.62203980004415,83.62203980004415,83.62203980004415,83.62203980004415,left,1.0389403998851776,84.68974030017853,84.68974030017853,None,,1,001,2025-12-16_10h19.17.281,2025C_exp1_comp,2022.2.4,59.75082710938289,
42.7,315,1,0,0,38,38,35,84.68974030017853,84.68974030017853,85.1902618999593,85.25711390003562,85.30723519995809,85.30723519995809,85.30723519995809,85.30723519995809,85.35706950025633,85.35706950025633,85.35706950025633,85.35706950025633,85.35706950025633,85.35706950025633,85.35706950025633,85.35706950025633,85.35706950025633,left,0.8547368999570608,86.24129169993103,86.24129169993103,None,,1,001,2025-12-16_10h19.17.281,2025C_exp1_comp,2022.2.4,59.75082710938289,
19.6,45,-1,-1,0,39,39,74,86.24129169993103,86.24129169993103,86.74192710034549,86.80863910028711,86.85899530025199,86.85899530025199,86.85899530025199,86.85899530025199,86.9086477002129,86.9086477002129,86.9086477002129,86.9086477002129,86.9086477002129,86.9086477002129,86.9086477002129,86.9086477002129,86.9086477002129,right,1.1028363998048007,88.04932510014623,88.04932510014623,None,,1,001,2025-12-16_10h19.17.281,2025C_exp1_comp,2022.2.4,59.75082710938289,
35.3,45,-1,0,0,40,40,6,88.04932510014623,88.04932510014623,88.54371300013736,88.61039400007576,88.66081640031189,88.66081640031189,88.66081640031189,88.66081640031189,88.71056250017136,88.71056250017136,88.71056250017136,88.71056250017136,88.71056250017136,88.71056250017136,88.72726700035855,88.72726700035855,88.72726700035855,left,0.9323057997971773,89.6780548999086,89.6780548999086,None,,1,001,2025-12-16_10h19.17.281,2025C_exp1_comp,2022.2.4,59.75082710938289,
12.1,45,1,0,0,41,41,18,89.6780548999086,89.6780548999086,90.17867940012366,90.24542100029066,90.29564110003412,90.29564110003412,90.29564110003412,90.29564110003412,90.34554160013795,90.34554160013795,90.34554160013795,90.34554160013795,90.34554160013795,90.34554160013795,90.34554160013795,90.34554160013795,90.34554160013795,left,0.7948582996614277,91.16295969998464,91.16295969998464,None,,1,001,2025-12-16_10h19.17.281,2025C_exp1_comp,2022.2.4,59.75082710938289,
29.4,315,-1,1,0,42,42,50,91.16295969998464,91.16295969998464,91.66354160010815,91.73023260012269,91.78053690027446,91.78053690027446,91.78053690027446,91.78053690027446,91.83020990015939,91.83020990015939,91.83020990015939,91.83020990015939,91.83020990015939,91.83020990015939,91.83020990015939,91.83020990015939,91.83020990015939,left,0.8454533000476658,92.69788399990648,92.69788399990648,None,,1,001,2025-12-16_10h19.17.281,2025C_exp1_comp,2022.2.4,59.75082710938289,
22.7,45,1,-1,0,43,43,93,92.69788399990648,92.69788399990648,93.19843559991568,93.2653201003559,93.31547320028767,93.31547320028767,93.31547320028767,93.31547320028767,93.36525980010629,93.36525980010629,93.36525980010629,93.36525980010629,93.36525980010629,93.36525980010629,93.36525980010629,93.36525980010629,93.36525980010629,left,0.8067259998060763,94.1992101999931,94.1992101999931,None,,1,001,2025-12-16_10h19.17.281,2025C_exp1_comp,2022.2.4,59.75082710938289,
12.1,45,1,-1,0,44,44,90,94.1992101999931,94.1992101999931,94.6999731999822,94.76652850024402,94.8168558999896,94.8168558999896,94.8168558999896,94.8168558999896,94.86676779994741,94.86676779994741,94.86676779994741,94.86676779994741,94.86676779994741,94.86676779994741,94.86676779994741,94.86676779994741,94.86676779994741,left,0.8487740000709891,95.73404580028728,95.73404580028728,None,,1,001,2025-12-16_10h19.17.281,2025C_exp1_comp,2022.2.4,59.75082710938289,
35.3,315,1,-1,0,45,45,105,95.73404580028728,95.73404580028728,96.23457249999046,96.30138890026137,96.35180710023269,96.35180710023269,96.35180710023269,96.35180710023269,96.40158820012584,96.40158820012584,96.40158820012584,96.40158820012584,96.40158820012584,96.40158820012584,96.40158820012584,96.40158820012584,96.40158820012584,left,0.9634394999593496,97.38589149992913,97.38589149992913,None,,1,001,2025-12-16_10h19.17.281,2025C_exp1_comp,2022.2.4,59.75082710938289,
22.7,45,-1,0,0,46,46,3,97.38589149992913,97.38589149992913,97.88638940034434,97.95313110016286,98.00344320014119,98.00344320014119,98.00344320014119,98.00344320014119,98.05309640010819,98.05309640010819,98.05309640010819,98.05309640010819,98.05309640010819,98.05309640010819,98.05309640010819,98.05309640010819,98.05309640010819,right,0.7116410997696221,98.78718110034242,98.78718110034242,None,,1,001,2025-12-16_10h19.17.281,2025C_exp1_comp,2022.2.4,59.75082710938289,
35.3,315,1,0,0,47,47,33,98.78718110034242,98.78718110034242,99.28785260021687,99.3542872001417,99.40474410029128,99.40474410029128,99.40474410029128,99.40474410029128,99.45454660011455,99.45454660011455,99.45454660011455,99.45454660011455,99.45454660011455,99.45454660011455,99.45454660011455,99.45454660011455,99.45454660011455,right,0.8535195998847485,100.33871449995786,100.33871449995786,None,,1,001,2025-12-16_10h19.17.281,2025C_exp1_comp,2022.2.4,59.75082710938289,
42.7,45,-1,0,0,48,48,8,100.33871449995786,100.33871449995786,100.83934670034796,100.90620699990541,100.95631449995562,100.95631449995562,100.95631449995562,100.95631449995562,101.0060242000036,101.0060242000036,101.0060242000036,101.0060242000036,101.0060242000036,101.0060242000036,101.0060242000036,101.0060242000036,101.0060242000036,right,0.9817075999453664,102.00726420013234,102.00726420013234,None,,1,001,2025-12-16_10h19.17.281,2025C_exp1_comp,2022.2.4,59.75082710938289,
25.5,315,-1,0,0,49,49,13,102.00726420013234,102.00726420013234,102.5073935999535,102.57425260031596,102.62461420008913,102.62461420008913,102.62461420008913,102.62461420008913,102.67453770013526,102.67453770013526,102.67453770013526,102.67453770013526,102.67453770013526,102.67453770013526,102.67453770013526,102.67453770013526,102.67453770013526,right,0.9132513999938965,103.60852300003171,103.60852300003171,None,,1,001,2025-12-16_10h19.17.281,2025C_exp1_comp,2022.2.4,59.75082710938289,
42.7,315,-1,1,0,50,50,53,103.60852300003171,103.60852300003171,104.10929260030389,104.17602310003713,104.22629450028762,104.22629450028762,104.22629450028762,104.22629450028762,104.27592900022864,104.27592900022864,104.27592900022864,104.27592900022864,104.27592900022864,104.27592900022864,104.27592900022864,104.27592900022864,104.27592900022864,right,0.9931250996887684,105.29379440005869,105.29379440005869,None,,1,001,2025-12-16_10h19.17.281,2025C_exp1_comp,2022.2.4,59.75082710938289,
12.1,45,-1,-1,0,51,51,72,105.29379440005869,105.29379440005869,105.79436570033431,105.86102990014479,105.91135770035908,105.91135770035908,105.91135770035908,105.91135770035908,105.96100379992276,105.96100379992276,105.96100379992276,105.96100379992276,105.96100379992276,105.96100379992276,105.96100379992276,105.96100379992276,105.96100379992276,left,0.6589135001413524,106.64487920003012,106.64487920003012,None,,1,001,2025-12-16_10h19.17.281,2025C_exp1_comp,2022.2.4,59.75082710938289,
42.7,45,-1,1,0,52,52,44,106.64487920003012,106.64487920003012,107.14570910017937,107.21244959998876,107.26269289990887,107.26269289990887,107.26269289990887,107.26269289990887,107.31248910026625,107.31248910026625,107.31248910026625,107.31248910026625,107.31248910026625,107.31248910026625,107.31248910026625,107.31248910026625,107.31248910026625,left,0.708531899843365,108.04644170030951,108.04644170030951,None,,1,001,2025-12-16_10h19.17.281,2025C_exp1_comp,2022.2.4,59.75082710938289,
42.7,45,1,1,0,53,53,62,108.04644170030951,108.04644170030951,108.5469855000265,108.61383610032499,108.66409640014172,108.66409640014172,108.66409640014172,108.66409640014172,108.71367820026353,108.71367820026353,108.71367820026353,108.71367820026353,108.71367820026353,108.71367820026353,108.71367820026353,108.71367820026353,108.71367820026353,right,0.8025299003347754,109.54804569995031,109.54804569995031,None,,1,001,2025-12-16_10h19.17.281,2025C_exp1_comp,2022.2.4,59.75082710938289,
42.7,45,-1,-1,0,54,54,80,109.54804569995031,109.54804569995031,110.04874380026013,110.11533210007474,110.16566290007904,110.16566290007904,110.16566290007904,110.16566290007904,110.2153704999946,110.2153704999946,110.2153704999946,110.2153704999946,110.2153704999946,110.2153704999946,110.2153704999946,110.2153704999946,110.2153704999946,left,0.6764556001871824,110.91606980003417,110.91606980003417,None,,1,001,2025-12-16_10h19.17.281,2025C_exp1_comp,2022.2.4,59.75082710938289,
42.7,315,-1,-1,0,55,55,89,110.91606980003417,110.91606980003417,111.416478600353,111.48333190008998,111.53356550028548,111.53356550028548,111.53356550028548,111.53356550028548,111.58339689997956,111.58339689997956,111.58339689997956,111.58339689997956,111.58339689997956,111.58339689997956,111.58339689997956,111.58339689997956,111.58339689997956,left,0.7166897002607584,112.3176055001095,112.3176055001095,None,,1,001,2025-12-16_10h19.17.281,2025C_exp1_comp,2022.2.4,59.75082710938289,
15.7,315,1,0,0,56,56,28,112.3176055001095,112.3176055001095,112.81799820018932,112.88479349995032,112.93502270011231,112.93502270011231,112.93502270011231,112.93502270011231,112.9846856999211,112.9846856999211,112.9846856999211,112.9846856999211,112.9846856999211,112.9846856999211,112.9846856999211,112.9846856999211,112.9846856999211,left,0.6208811001852155,113.63545540021732,113.63545540021732,None,,1,001,2025-12-16_10h19.17.281,2025C_exp1_comp,2022.2.4,59.75082710938289,
29.4,315,-1,-1,0,57,57,86,113.63545540021732,113.63545540021732,114.13614010019228,114.20271040033549,114.25300069991499,114.25300069991499,114.25300069991499,114.25300069991499,114.3026745999232,114.3026745999232,114.3026745999232,114.3026745999232,114.3026745999232,114.3026745999232,114.3026745999232,114.3026745999232,114.3026745999232,left,0.621803100220859,114.95316180028021,114.95316180028021,None,,1,001,2025-12-16_10h19.17.281,2025C_exp1_comp,2022.2.4,59.75082710938289,
22.7,45,-1,1,0,58,58,39,114.95316180028021,114.95316180028021,115.4539805999957,115.52068349998444,115.57090880023316,115.57090880023316,115.57090880023316,115.57090880023316,115.62080800021067,115.62080800021067,115.62080800021067,115.62080800021067,115.62080800021067,115.62080800021067,115.62080800021067,115.62080800021067,115.62080800021067,left,0.7281157001852989,116.37141330027953,116.37141330027953,None,,1,001,2025-12-16_10h19.17.281,2025C_exp1_comp,2022.2.4,59.75082710938289,
35.3,315,-1,1,0,59,59,51,116.37141330027953,116.37141330027953,116.87206450011581,116.93880020035431,116.98888320010155,116.98888320010155,116.98888320010155,116.98888320010155,117.0386137003079,117.0386137003079,117.0386137003079,117.0386137003079,117.0386137003079,117.0386137003079,117.0386137003079,117.0386137003079,117.0386137003079,right,0.6376367001794279,117.7060691001825,117.7060691001825,None,,1,001,2025-12-16_10h19.17.281,2025C_exp1_comp,2022.2.4,59.75082710938289,
22.7,315,-1,0,0,60,60,12,117.7060691001825,117.7060691001825,118.20672850031406,118.27343990001827,118.3237179000862,118.3237179000862,118.3237179000862,118.3237179000862,118.37353780027479,118.37353780027479,118.37353780027479,118.37353780027479,118.37353780027479,118.37353780027479,118.37353780027479,118.37353780027479,118.37353780027479,right,0.878101700451225,119.27434189990163,119.27434189990163,None,,1,001,2025-12-16_10h19.17.281,2025C_exp1_comp,2022.2.4,59.75082710938289,
15.7,45,1,0,0,61,61,19,119.27434189990163,119.27434189990163,119.77496580034494,119.84165430022404,119.89198760036379,119.89198760036379,119.89198760036379,119.89198760036379,119.94176970003173,119.94176970003173,119.94176970003173,119.94176970003173,119.94176970003173,119.94176970003173,119.94176970003173,119.94176970003173,119.94176970003173,left,0.621902999933809,120.59232790023088,120.59232790023088,None,,1,001,2025-12-16_10h19.17.281,2025C_exp1_comp,2022.2.4,59.75082710938289,
25.5,45,-1,0,0,62,62,4,120.59232790023088,120.59232790023088,121.09262060001493,121.15939990011975,121.20997120020911,121.20997120020911,121.20997120020911,121.20997120020911,121.25981290033087,121.25981290033087,121.25981290033087,121.25981290033087,121.25981290033087,121.25981290033087,121.25981290033087,121.25981290033087,121.25981290033087,left,0.7843749998137355,122.06055560009554,122.06055560009554,None,,1,001,2025-12-16_10h19.17.281,2025C_exp1_comp,2022.2.4,59.75082710938289,
39.2,315,-1,0,0,63,63,16,122.06055560009554,122.06055560009554,122.56108079990372,122.62780370004475,122.67815860034898,122.67815860034898,122.67815860034898,122.67815860034898,122.72774260025471,122.72774260025471,122.72774260025471,122.72774260025471,122.72774260025471,122.72774260025471,122.72774260025471,122.72774260025471,122.72774260025471,left,0.7398403999395669,123.49517030036077,123.49517030036077,None,,1,001,2025-12-16_10h19.17.281,2025C_exp1_comp,2022.2.4,59.75082710938289,
15.7,45,1,-1,0,64,64,91,123.49517030036077,123.49517030036077,123.99571519996971,124.06256100023165,124.11289119999856,124.11289119999856,124.11289119999856,124.11289119999856,124.1625818000175,124.1625818000175,124.1625818000175,124.1625818000175,124.1625818000175,124.1625818000175,124.1625818000175,124.1625818000175,124.1625818000175,left,0.8180154003202915,124.99685740005225,124.99685740005225,None,,1,001,2025-12-16_10h19.17.281,2025C_exp1_comp,2022.2.4,59.75082710938289,
15.7,315,1,1,0,65,65,64,124.99685740005225,124.99685740005225,125.49710289994255,125.56405219994485,125.61438459996134,125.61438459996134,125.61438459996134,125.61438459996134,125.66398840025067,125.66398840025067,125.66398840025067,125.66398840025067,125.66398840025067,125.66398840025067,125.66398840025067,125.66398840025067,125.66398840025067,left,0.8436453999020159,126.5316858002916,126.5316858002916,None,,1,001,2025-12-16_10h19.17.281,2025C_exp1_comp,2022.2.4,59.75082710938289,
12.1,315,1,1,0,66,66,63,126.5316858002916,126.5316858002916,127.03222130006179,127.09891920024529,127.14923390001059,127.14923390001059,127.14923390001059,127.14923390001059,127.1989001003094,127.1989001003094,127.1989001003094,127.1989001003094,127.1989001003094,127.1989001003094,127.1989001003094,127.1989001003094,127.1989001003094,left,0.8053004997782409,128.0332526001148,128.0332526001148,None,,1,001,2025-12-16_10h19.17.281,2025C_exp1_comp,2022.2.4,59.75082710938289,
15.7,45,-1,0,0,67,67,1,128.0332526001148,128.0332526001148,128.53352040005848,128.6004014001228,128.65072689997032,128.65072689997032,128.65072689997032,128.65072689997032,128.70039250003174,128.70039250003174,128.70039250003174,128.70039250003174,128.70039250003174,128.70039250003174,128.70039250003174,128.70039250003174,128.70039250003174,left,0.6561377001926303,129.3847016999498,129.3847016999498,None,,1,001,2025-12-16_10h19.17.281,2025C_exp1_comp,2022.2.4,59.75082710938289,
12.1,45,-1,1,0,68,68,36,129.3847016999498,129.3847016999498,129.88506870018318,129.95178329991177,130.0020670001395,130.0020670001395,130.0020670001395,130.0020670001395,130.0517588001676,130.0517588001676,130.0517588001676,130.0517588001676,130.0517588001676,130.0517588001676,130.0517588001676,130.0517588001676,130.0517588001676,right,0.5998759004287422,130.6689929999411,130.6689929999411,None,,1,001,2025-12-16_10h19.17.281,2025C_exp1_comp,2022.2.4,59.75082710938289,
39.2,315,-1,1,0,69,69,52,130.6689929999411,130.6689929999411,131.1695669000037,131.2364020003006,131.28670870000497,131.28670870000497,131.28670870000497,131.28670870000497,131.33640940021724,131.33640940021724,131.33640940021724,131.33640940021724,131.33640940021724,131.33640940021724,131.33640940021724,131.33640940021724,131.33640940021724,left,0.6032955003902316,131.97044289996848,131.97044289996848,None,,1,001,2025-12-16_10h19.17.281,2025C_exp1_comp,2022.2.4,59.75082710938289,
29.4,45,-1,0,0,70,70,5,131.97044289996848,131.97044289996848,132.47098440025002,132.53760290006176,132.58787460019812,132.58787460019812,132.58787460019812,132.58787460019812,132.63780259992927,132.63780259992927,132.63780259992927,132.63780259992927,132.63780259992927,132.63780259992927,132.63780259992927,132.63780259992927,132.63780259992927,left,0.6781888999976218,133.3384664002806,133.3384664002806,None,,1,001,2025-12-16_10h19.17.281,2025C_exp1_comp,2022.2.4,59.75082710938289,
29.4,45,1,0,0,71,71,23,133.3384664002806,133.3384664002806,133.83903850009665,133.90574529999867,133.95711620012298,133.95711620012298,133.95711620012298,133.95711620012298,134.00569650018588,134.00569650018588,134.00569650018588,134.00569650018588,134.00569650018588,134.00569650018588,134.00569650018588,134.00569650018588,134.00569650018588,right,0.655160500202328,134.68971700035036,134.68971700035036,None,,1,001,2025-12-16_10h19.17.281,2025C_exp1_comp,2022.2.4,59.75082710938289,
22.7,45,-1,-1,0,72,72,75,134.68971700035036,134.68971700035036,135.19037030031905,135.25708110025153,135.3073966000229,135.3073966000229,135.3073966000229,135.3073966000229,135.35719030024484,135.35719030024484,135.35719030024484,135.35719030024484,135.35719030024484,135.35719030024484,135.35719030024484,135.35719030024484,135.35719030024484,right,0.7987098000012338,136.174551400356,136.174551400356,None,,1,001,2025-12-16_10h19.17.281,2025C_exp1_comp,2022.2.4,59.75082710938289,
29.4,45,-1,1,0,73,73,41,136.174551400356,136.174551400356,136.67533150035888,136.74207440018654,136.79235860006884,136.79235860006884,136.79235860006884,136.79235860006884,136.84195720031857,136.84195720031857,136.84195720031857,136.84195720031857,136.84195720031857,136.84195720031857,136.84195720031857,136.84195720031857,136.84195720031857,right,0.7228435003198683,137.59278780035675,137.59278780035675,None,,1,001,2025-12-16_10h19.17.281,2025C_exp1_comp,2022.2.4,59.75082710938289,
25.5,315,-1,1,0,74,74,49,137.59278780035675,137.59278780035675,138.09330680035055,138.1600052001886,138.21024310030043,138.21024310030043,138.21024310030043,138.21024310030043,138.25997100025415,138.25997100025415,138.25997100025415,138.25997100025415,138.25997100025415,138.25997100025415,138.25997100025415,138.25997100025415,138.25997100025415,left,0.6476270998828113,138.92732400028035,138.92732400028035,None,,1,001,2025-12-16_10h19.17.281,2025C_exp1_comp,2022.2.4,59.75082710938289,
39.2,315,1,0,0,75,75,34,138.92732400028035,138.92732400028035,139.4276082003489,139.4946365999058,139.54488760000095,139.54488760000095,139.54488760000095,139.54488760000095,139.59480000007898,139.59480000007898,139.59480000007898,139.59480000007898,139.59480000007898,139.59480000007898,139.59480000007898,139.59480000007898,139.59480000007898,left,0.7853807001374662,140.41240849997848,140.41240849997848,None,,1,001,2025-12-16_10h19.17.281,2025C_exp1_comp,2022.2.4,59.75082710938289,
19.6,315,-1,1,0,76,76,47,140.41240849997848,140.41240849997848,140.91261980030686,140.97947080014274,141.02975680027157,141.02975680027157,141.02975680027157,141.02975680027157,141.07940000016242,141.07940000016242,141.07940000016242,141.07940000016242,141.07940000016242,141.07940000016242,141.07940000016242,141.07940000016242,141.07940000016242,right,0.9729881002567708,142.0804492002353,142.0804492002353,None,,1,001,2025-12-16_10h19.17.281,2025C_exp1_comp,2022.2.4,59.75082710938289,
42.7,45,1,0,0,77,77,26,142.0804492002353,142.0804492002353,142.581067699939,142.64769650017843,142.69801239995286,142.69801239995286,142.69801239995286,142.69801239995286,142.74781080009416,142.74781080009416,142.74781080009416,142.74781080009416,142.74781080009416,142.74781080009416,142.74781080009416,142.74781080009416,142.74781080009416,right,0.7449452001601458,143.51526150014251,143.51526150014251,None,,1,001,2025-12-16_10h19.17.281,2025C_exp1_comp,2022.2.4,59.75082710938289,
22.7,315,-1,1,0,78,78,48,143.51526150014251,143.51526150014251,144.0157278003171,144.08236490003765,144.13261110009626,144.13261110009626,144.13261110009626,144.13261110009626,144.1825514002703,144.1825514002703,144.1825514002703,144.1825514002703,144.1825514002703,144.1825514002703,144.1825514002703,144.1825514002703,144.1825514002703,right,0.9823195999488235,145.1836459003389,145.1836459003389,None,,1,001,2025-12-16_10h19.17.281,2025C_exp1_comp,2022.2.4,59.75082710938289,
35.3,45,-1,1,0,79,79,42,145.1836459003389,145.1836459003389,145.68420160003006,145.7509090001695,145.80121320020407,145.80121320020407,145.80121320020407,145.80121320020407,145.85088060004637,145.85088060004637,145.85088060004637,145.85088060004637,145.85088060004637,145.85088060004637,145.85088060004637,145.85088060004637,145.85088060004637,left,0.7767773000523448,146.6517620002851,146.6517620002851,None,,1,001,2025-12-16_10h19.17.281,2025C_exp1_comp,2022.2.4,59.75082710938289,
29.4,315,1,-1,0,80,80,104,146.6517620002851,146.6517620002851,147.15224689990282,147.21910230023786,147.2694892999716,147.2694892999716,147.2694892999716,147.2694892999716,147.3190550999716,147.3190550999716,147.3190550999716,147.3190550999716,147.3190550999716,147.3190550999716,147.3190550999716,147.3190550999716,147.3190550999716,left,0.892497000284493,148.23680180031806,148.23680180031806,None,,1,001,2025-12-16_10h19.17.281,2025C_exp1_comp,2022.2.4,59.75082710938289,
15.7,315,-1,-1,0,81,81,82,148.23680180031806,148.23680180031806,148.7372976001352,148.8038674001582,148.8541604001075,148.8541604001075,148.8541604001075,148.8541604001075,148.90395640023053,148.90395640023053,148.90395640023053,148.90395640023053,148.90395640023053,148.90395640023053,148.90395640023053,148.90395640023053,148.90395640023053,right,0.7962001003324986,149.72153130033985,149.72153130033985,None,,1,001,2025-12-16_10h19.17.281,2025C_exp1_comp,2022.2.4,59.75082710938289,
19.6,315,1,0,0,82,82,29,149.72153130033985,149.72153130033985,150.22213440015912,150.28865940030664,150.33908150019124,150.33908150019124,150.33908150019124,150.33908150019124,150.3887454001233,150.3887454001233,150.3887454001233,150.3887454001233,150.3887454001233,150.3887454001233,150.3887454001233,150.3887454001233,150.3887454001233,right,0.9123296001926064,151.32312480034307,151.32312480034307,None,,1,001,2025-12-16_10h19.17.281,2025C_exp1_comp,2022.2.4,59.75082710938289,
39.2,45,-1,0,0,83,83,7,151.32312480034307,151.32312480034307,151.82352710003033,151.89030130021274,151.94068020023406,151.94068020023406,151.94068020023406,151.94068020023406,151.99035560013726,151.99035560013726,151.99035560013726,151.99035560013726,151.99035560013726,151.99035560013726,151.99035560013726,151.99035560013726,151.99035560013726,left,0.8624966996721923,152.87471200013533,152.87471200013533,None,,1,001,2025-12-16_10h19.17.281,2025C_exp1_comp,2022.2.4,59.75082710938289,
39.2,45,-1,1,0,84,84,43,152.87471200013533,152.87471200013533,153.37491820007563,153.44193620001897,153.49217110034078,153.49217110034078,153.49217110034078,153.49217110034078,153.5420498000458,153.5420498000458,153.5420498000458,153.5420498000458,153.5420498000458,153.5420498000458,153.5420498000458,153.5420498000458,153.5420498000458,right,0.9181253002025187,154.4929422000423,154.4929422000423,None,,1,001,2025-12-16_10h19.17.281,2025C_exp1_comp,2022.2.4,59.75082710938289,
19.6,45,1,-1,0,85,85,92,154.4929422000423,154.4929422000423,154.99349740007892,155.06020929990336,155.11046960018575,155.11046960018575,155.11046960018575,155.11046960018575,155.160172900185,155.160172900185,155.160172900185,155.160172900185,155.160172900185,155.160172900185,155.160172900185,155.160172900185,155.160172900185,left,0.8435113998129964,156.0277273003012,156.0277273003012,None,,1,001,2025-12-16_10h19.17.281,2025C_exp1_comp,2022.2.4,59.75082710938289,
29.4,315,-1,0,0,86,86,14,156.0277273003012,156.0277273003012,156.52817129995674,156.595060700085,156.64539929991588,156.64539929991588,156.64539929991588,156.64539929991588,156.69505630014464,156.69505630014464,156.69505630014464,156.69505630014464,156.69505630014464,156.69505630014464,156.69505630014464,156.69505630014464,156.69505630014464,left,1.0125846997834742,157.72958040004596,157.72958040004596,None,,1,001,2025-12-16_10h19.17.281,2025C_exp1_comp,2022.2.4,59.75082710938289,
35.3,45,1,0,0,87,87,24,157.72958040004596,157.72958040004596,158.2300761002116,158.29680170025676,158.34682420035824,158.34682420035824,158.34682420035824,158.34682420035824,158.39689350035042,158.39689350035042,158.39689350035042,158.39689350035042,158.39689350035042,158.39689350035042,158.39689350035042,158.39689350035042,158.39689350035042,left,0.7029281998984516,159.1309684002772,159.1309684002772,None,,1,001,2025-12-16_10h19.17.281,2025C_exp1_comp,2022.2.4,59.75082710938289,
25.5,315,1,1,0,88,88,67,159.1309684002772,159.1309684002772,159.63149229995906,159.6981995003298,159.74840850010514,159.74840850010514,159.74840850010514,159.74840850010514,159.79817670024931,159.79817670024931,159.79817670024931,159.79817670024931,159.79817670024931,159.79817670024931,159.79817670024931,159.79817670024931,159.79817670024931,left,0.7416429002769291,160.5655191000551,160.5655191000551,None,,1,001,2025-12-16_10h19.17.281,2025C_exp1_comp,2022.2.4,59.75082710938289,
35.3,315,-1,-1,0,89,89,87,160.5655191000551,160.5655191000551,161.06620910018682,161.13293420011178,161.1832596003078,161.1832596003078,161.1832596003078,161.1832596003078,161.23306509992108,161.23306509992108,161.23306509992108,161.23306509992108,161.23306509992108,161.23306509992108,161.23306509992108,161.23306509992108,161.23306509992108,right,0.7559191999025643,162.0170269999653,162.0170269999653,None,,1,001,2025-12-16_10h19.17.281,2025C_exp1_comp,2022.2.4,59.75082710938289,
22.7,315,-1,-1,0,90,90,84,162.0170269999653,162.0170269999653,162.5175725002773,162.58412870019674,162.63479560008273,162.63479560008273,162.63479560008273,162.63479560008273,162.6845325003378,162.6845325003378,162.6845325003378,162.6845325003378,162.6845325003378,162.6845325003378,162.6845325003378,162.6845325003378,162.6845325003378,right,0.7596320998854935,163.46840560017154,163.46840560017154,None,,1,001,2025-12-16_10h19.17.281,2025C_exp1_comp,2022.2.4,59.75082710938289,
25.5,315,1,0,0,91,91,31,163.46840560017154,163.46840560017154,163.96907850028947,164.03590570017695,164.08633120032027,164.08633120032027,164.08633120032027,164.08633120032027,164.13587290002033,164.13587290002033,164.13587290002033,164.13587290002033,164.13587290002033,164.13587290002033,164.13587290002033,164.13587290002033,164.13587290002033,left,0.6676040999591351,164.8365171002224,164.8365171002224,None,,1,001,2025-12-16_10h19.17.281,2025C_exp1_comp,2022.2.4,59.75082710938289,
25.5,45,1,0,0,92,92,22,164.8365171002224,164.8365171002224,165.3370020003058,165.40389860002324,165.45417540008202,165.45417540008202,165.45417540008202,165.45417540008202,165.50398920010775,165.50398920010775,165.50398920010775,165.50398920010775,165.50398920010775,165.50398920010775,165.50398920010775,165.50398920010775,165.50398920010775,left,0.588835199829191,166.121388300322,166.121388300322,None,,1,001,2025-12-16_10h19.17.281,2025C_exp1_comp,2022.2.4,59.75082710938289,
39.2,315,1,-1,0,93,93,106,166.121388300322,166.121388300322,166.621690900065,166.68850579997525,166.73881450016052,166.73881450016052,166.73881450016052,166.73881450016052,166.78861950011924,166.78861950011924,166.78861950011924,166.78861950011924,166.78861950011924,166.78861950011924,166.78861950011924,166.78861950011924,166.78861950011924,left,0.7121390998363495,167.52251629997045,167.52251629997045,None,,1,001,2025-12-16_10h19.17.281,2025C_exp1_comp,2022.2.4,59.75082710938289,
12.1,45,1,1,0,94,94,54,167.52251629997045,167.52251629997045,168.02320850035176,168.08988540014252,168.14021730003878,168.14021730003878,168.14021730003878,168.14021730003878,168.18987220013514,168.18987220013514,168.18987220013514,168.18987220013514,168.18987220013514,168.18987220013514,168.18987220013514,168.18987220013514,168.18987220013514,left,0.7419218998402357,168.95717800036073,168.95717800036073,None,,1,001,2025-12-16_10h19.17.281,2025C_exp1_comp,2022.2.4,59.75082710938289,
19.6,45,-1,1,0,95,95,38,168.95717800036073,168.95717800036073,169.4579747999087,169.5246896003373,169.57503860024735,169.57503860024735,169.57503860024735,169.57503860024735,169.62473990023136,169.62473990023136,169.62473990023136,169.62473990023136,169.62473990023136,169.62473990023136,169.62473990023136,169.62473990023136,169.62473990023136,left,0.8993759998120368,170.54236670024693,170.54236670024693,None,,1,001,2025-12-16_10h19.17.281,2025C_exp1_comp,2022.2.4,59.75082710938289,
29.4,45,1,-1,0,96,96,95,170.54236670024693,170.54236670024693,171.0427786000073,171.1094907000661,171.1598978000693,171.1598978000693,171.1598978000693,171.1598978000693,171.20960920024663,171.20960920024663,171.20960920024663,171.20960920024663,171.20960920024663,171.20960920024663,171.20960920024663,171.20960920024663,171.20960920024663,left,0.6420562998391688,171.8768935003318,171.8768935003318,None,,1,001,2025-12-16_10h19.17.281,2025C_exp1_comp,2022.2.4,59.75082710938289,
15.7,315,1,-1,0,97,97,100,171.8768935003318,171.8768935003318,172.37758790003136,172.4442883003503,172.49459929997101,172.49459929997101,172.49459929997101,172.49459929997101,172.54441029997543,172.54441029997543,172.54441029997543,172.54441029997543,172.54441029997543,172.54441029997543,172.54441029997543,172.54441029997543,172.54441029997543,left,0.635986200068146,173.21176540013403,173.21176540013403,None,,1,001,2025-12-16_10h19.17.281,2025C_exp1_comp,2022.2.4,59.75082710938289,
19.6,315,1,1,0,98,98,65,173.21176540013403,173.21176540013403,173.7120956000872,173.77909209998325,173.82926320005208,173.82926320005208,173.82926320005208,173.82926320005208,173.87907980009913,173.87907980009913,173.87907980009913,173.87907980009913,173.87907980009913,173.87907980009913,173.87907980009913,173.87907980009913,173.87907980009913,left,0.78100819978863,174.6795717002824,174.6795717002824,None,,1,001,2025-12-16_10h19.17.281,2025C_exp1_comp,2022.2.4,59.75082710938289,
12.1,315,-1,-1,0,99,99,81,174.6795717002824,174.6795717002824,175.18016460025683,175.2469236003235,175.2972603002563,175.2972603002563,175.2972603002563,175.2972603002563,175.34718060027808,175.34718060027808,175.34718060027808,175.34718060027808,175.34718060027808,175.34718060027808,175.34718060027808,175.34718060027808,175.34718060027808,right,0.71332379989326,176.08120590029284,176.08120590029284,None,,1,001,2025-12-16_10h19.17.281,2025C_exp1_comp,2022.2.4,59.75082710938289,
19.6,315,-1,0,0,100,100,11,176.08120590029284,176.08120590029284,176.58180380007252,176.6484306002967,176.69869650015607,176.69869650015607,176.69869650015607,176.69869650015607,176.748666100204,176.748666100204,176.748666100204,176.748666100204,176.748666100204,176.748666100204,176.748666100204,176.748666100204,176.748666100204,left,0.6795419999398291,177.44918020023033,177.44918020023033,None,,1,001,2025-12-16_10h19.17.281,2025C_exp1_comp,2022.2.4,59.75082710938289,
22.7,315,1,0,0,101,101,30,177.44918020023033,177.44918020023033,177.9498113002628,178.01640530023724,178.06682640034705,178.06682640034705,178.06682640034705,178.06682640034705,178.11663229996338,178.11663229996338,178.11663229996338,178.11663229996338,178.11663229996338,178.11663229996338,178.11663229996338,178.11663229996338,178.11663229996338,right,0.8961523999460042,179.03420130023733,179.03420130023733,None,,1,001,2025-12-16_10h19.17.281,2025C_exp1_comp,2022.2.4,59.75082710938289,
29.4,315,1,0,0,102,102,32,179.03420130023733,179.03420130023733,179.5346679002978,179.6014119000174,179.65170320030302,179.65170320030302,179.65170320030302,179.65170320030302,179.7012964002788,179.7012964002788,179.7012964002788,179.7012964002788,179.7012964002788,179.7012964002788,179.7012964002788,179.7012964002788,179.7012964002788,left,0.7344892001710832,180.452098000329,180.452098000329,None,,1,001,2025-12-16_10h19.17.281,2025C_exp1_comp,2022.2.4,59.75082710938289,
19.6,315,-1,-1,0,103,103,83,180.452098000329,180.452098000329,180.952783100307,181.01938630035147,181.06984370015562,181.06984370015562,181.06984370015562,181.06984370015562,181.1195110999979,181.1195110999979,181.1195110999979,181.1195110999979,181.1195110999979,181.1195110999979,181.1195110999979,181.1195110999979,181.1195110999979,right,0.7004261999391019,181.8369591999799,181.8369591999799,None,,1,001,2025-12-16_10h19.17.281,2025C_exp1_comp,2022.2.4,59.75082710938289,
35.3,45,1,1,0,104,104,60,181.8369591999799,181.8369591999799,182.3373699001968,182.4042191002518,182.45446230005473,182.45446230005473,182.45446230005473,182.45446230005473,182.5041646999307,182.5041646999307,182.5041646999307,182.5041646999307,182.5041646999307,182.5041646999307,182.5041646999307,182.5041646999307,182.5041646999307,left,0.8123758998699486,183.33839200017974,183.33839200017974,None,,1,001,2025-12-16_10h19.17.281,2025C_exp1_comp,2022.2.4,59.75082710938289,
42.7,315,1,-1,0,105,105,107,183.33839200017974,183.33839200017974,183.8390196999535,183.90570690017194,183.956005200278,183.956005200278,183.956005200278,183.956005200278,184.00568930013105,184.00568930013105,184.00568930013105,184.00568930013105,184.00568930013105,184.00568930013105,184.00568930013105,184.00568930013105,184.00568930013105,right,0.6948119001463056,184.72318019997329,184.72318019997329,None,,1,001,2025-12-16_10h19.17.281,2025C_exp1_comp,2022.2.4,59.75082710938289,
22.7,45,1,1,0,106,106,57,184.72318019997329,184.72318019997329,185.2236033002846,185.29040489997715,185.34051269991323,185.34051269991323,185.34051269991323,185.34051269991323,185.39041220024228,185.39041220024228,185.39041220024228,185.39041220024228,185.39041220024228,185.39041220024228,185.39041220024228,185.39041220024228,185.39041220024228,left,0.6142389001324773,186.02437360025942,186.02437360025942,None,,1,001,2025-12-16_10h19.17.281,2025C_exp1_comp,2022.2.4,59.75082710938289,
19.6,315,1,-1,0,107,107,101,186.02437360025942,186.02437360025942,186.52518250001594,186.5918756001629,186.64204060006887,186.64204060006887,186.64204060006887,186.64204060006887,186.69187019998208,186.69187019998208,186.69187019998208,186.69187019998208,186.69187019998208,186.69187019998208,186.69187019998208,186.69187019998208,186.69187019998208,left,0.6085330001078546,187.3258160999976,187.3258160999976,space,3.582606100011617,1,001,2025-12-16_10h19.17.281,2025C_exp1_comp,2022.2.4,59.75082710938289,
22.7,315,1,1,1,0,108,66,190.92937060026452,190.92937060026452,191.42972879996523,191.49666950013489,191.54696660023183,191.54696660023183,191.54696660023183,191.54696660023183,191.59660110017285,191.59660110017285,191.59660110017285,191.59660110017285,191.59660110017285,191.59660110017285,191.59660110017285,191.59660110017285,191.59660110017285,left,0.5923357997089624,192.21401520026848,192.21401520026848,None,,1,001,2025-12-16_10h19.17.281,2025C_exp1_comp,2022.2.4,59.75082710938289,
29.4,315,1,-1,1,1,109,104,192.21401520026848,192.21401520026848,192.71453020023182,192.781257300172,192.8315584002994,192.8315584002994,192.8315584002994,192.8315584002994,192.88120880024508,192.88120880024508,192.88120880024508,192.88120880024508,192.88120880024508,192.88120880024508,192.88120880024508,192.88120880024508,192.88120880024508,left,0.6585844000801444,193.56520340032876,193.56520340032876,None,,1,001,2025-12-16_10h19.17.281,2025C_exp1_comp,2022.2.4,59.75082710938289,
29.4,315,-1,0,1,2,110,14,193.56520340032876,193.56520340032876,194.06593749998137,194.13260139990598,194.18301820009947,194.18301820009947,194.18301820009947,194.18301820009947,194.23256990034133,194.23256990034133,194.23256990034133,194.23256990034133,194.23256990034133,194.23256990034133,194.23256990034133,194.23256990034133,194.23256990034133,left,0.6748196999542415,194.93326510023326,194.93326510023326,None,,1,001,2025-12-16_10h19.17.281,2025C_exp1_comp,2022.2.4,59.75082710938289,
12.1,315,-1,0,1,3,111,9,194.93326510023326,194.93326510023326,195.43389829993248,195.50064000021666,195.55092009995133,195.55092009995133,195.55092009995133,195.55092009995133,195.60060060024261,195.60060060024261,195.60060060024261,195.60060060024261,195.60060060024261,195.60060060024261,195.60060060024261,195.60060060024261,195.60060060024261,right,0.675255199894309,196.3014080999419,196.3014080999419,None,,1,001,2025-12-16_10h19.17.281,2025C_exp1_comp,2022.2.4,59.75082710938289,
42.7,45,1,-1,1,4,112,98,196.3014080999419,196.3014080999419,196.80195920029655,196.8686734000221,196.9189574001357,196.9189574001357,196.9189574001357,196.9189574001357,196.96875180024654,196.96875180024654,196.96875180024654,196.96875180024654,196.96875180024654,196.96875180024654,196.96875180024654,196.96875180024654,196.96875180024654,left,0.6758622000925243,197.6698842002079,197.6698842002079,None,,1,001,2025-12-16_10h19.17.281,2025C_exp1_comp,2022.2.4,59.75082710938289,
35.3,45,-1,-1,1,5,113,78,197.6698842002079,197.6698842002079,198.16989650018513,198.236668900121,198.2871087999083,198.2871087999083,198.2871087999083,198.2871087999083,198.336676500272,198.336676500272,198.336676500272,198.336676500272,198.336676500272,198.336676500272,198.336676500272,198.336676500272,198.336676500272,left,0.691257200203836,199.05387760000303,199.05387760000303,None,,1,001,2025-12-16_10h19.17.281,2025C_exp1_comp,2022.2.4,59.75082710938289,
19.6,45,-1,-1,1,6,114,74,199.05387760000303,199.05387760000303,199.55459630023688,199.62142529990524,199.67175380000845,199.67175380000845,199.67175380000845,199.67175380000845,199.7214085003361,199.7214085003361,199.7214085003361,199.7214085003361,199.7214085003361,199.7214085003361,199.7214085003361,199.7214085003361,199.7214085003361,right,0.6342931999824941,200.3722574999556,200.3722574999556,None,,1,001,2025-12-16_10h19.17.281,2025C_exp1_comp,2022.2.4,59.75082710938289,
25.5,315,1,-1,1,7,115,103,200.3722574999556,200.3722574999556,200.87268200004473,200.93946509994566,200.98970680031925,200.98970680031925,200.98970680031925,200.98970680031925,201.0393811003305,201.0393811003305,201.0393811003305,201.0393811003305,201.0393811003305,201.0393811003305,201.0393811003305,201.0393811003305,201.0393811003305,left,0.676759300287813,201.7400616002269,201.7400616002269,None,,1,001,2025-12-16_10h19.17.281,2025C_exp1_comp,2022.2.4,59.75082710938289,
12.1,315,1,-1,1,8,116,99,201.7400616002269,201.7400616002269,202.24067150009796,202.30715620005503,202.35772940004244,202.35772940004244,202.35772940004244,202.35772940004244,202.4076009001583,202.4076009001583,202.4076009001583,202.4076009001583,202.4076009001583,202.4076009001583,202.4076009001583,202.4076009001583,202.4076009001583,left,0.7806046004407108,203.20807310007513,203.20807310007513,None,,1,001,2025-12-16_10h19.17.281,2025C_exp1_comp,2022.2.4,59.75082710938289,
35.3,315,-1,1,1,9,117,51,203.20807310007513,203.20807310007513,203.7088753003627,203.77558739995584,203.82560960017145,203.82560960017145,203.82560960017145,203.82560960017145,203.87576320022345,203.87576320022345,203.87576320022345,203.87576320022345,203.87576320022345,203.87576320022345,203.87576320022345,203.87576320022345,203.87576320022345,right,0.7212127996608615,204.62629170017317,204.62629170017317,None,,1,001,2025-12-16_10h19.17.281,2025C_exp1_comp,2022.2.4,59.75082710938289,
12.1,45,1,0,1,10,118,18,204.62629170017317,204.62629170017317,205.12691840017214,205.19368040002882,205.24371670000255,205.24371670000255,205.24371670000255,205.24371670000255,205.29379330016673,205.29379330016673,205.29379330016673,205.29379330016673,205.29379330016673,205.29379330016673,205.29379330016673,205.29379330016673,205.29379330016673,left,0.7432265002280474,206.06120970007032,206.06120970007032,None,,1,001,2025-12-16_10h19.17.281,2025C_exp1_comp,2022.2.4,59.75082710938289,
25.5,315,-1,1,1,11,119,49,206.06120970007032,206.06120970007032,206.56170789990574,206.62842279998586,206.6787903001532,206.6787903001532,206.6787903001532,206.6787903001532,206.72849739994854,206.72849739994854,206.72849739994854,206.72849739994854,206.72849739994854,206.72849739994854,206.72849739994854,206.72849739994854,206.72849739994854,right,0.7078638998791575,207.46260000020266,207.46260000020266,None,,1,001,2025-12-16_10h19.17.281,2025C_exp1_comp,2022.2.4,59.75082710938289,
12.1,45,-1,0,1,12,120,0,207.46260000020266,207.46260000020266,207.96297150012106,208.0298299002461,208.08014250034466,208.08014250034466,208.08014250034466,208.08014250034466,208.12977110035717,208.12977110035717,208.12977110035717,208.12977110035717,208.12977110035717,208.12977110035717,208.12977110035717,208.12977110035717,208.12977110035717,right,0.8910389998927712,209.04738570004702,209.04738570004702,None,,1,001,2025-12-16_10h19.17.281,2025C_exp1_comp,2022.2.4,59.75082710938289,
35.3,315,1,0,1,13,121,33,209.04738570004702,209.04738570004702,209.54802370024845,209.61489839991555,209.66520760022104,209.66520760022104,209.66520760022104,209.66520760022104,209.71481500007212,209.71481500007212,209.71481500007212,209.71481500007212,209.71481500007212,209.71481500007212,209.71481500007212,209.71481500007212,209.71481500007212,right,0.7376697999425232,210.48223019996658,210.48223019996658,None,,1,001,2025-12-16_10h19.17.281,2025C_exp1_comp,2022.2.4,59.75082710938289,
22.7,315,1,0,1,14,122,30,210.48223019996658,210.48223019996658,210.9828261001967,211.04953319998458,211.0998594001867,211.0998594001867,211.0998594001867,211.0998594001867,211.14951879996806,211.14951879996806,211.14951879996806,211.14951879996806,211.14951879996806,211.14951879996806,211.14951879996806,211.14951879996806,211.14951879996806,left,0.7588464999571443,211.93353210017085,211.93353210017085,None,,1,001,2025-12-16_10h19.17.281,2025C_exp1_comp,2022.2.4,59.75082710938289,
12.1,315,-1,1,1,15,123,45,211.93353210017085,211.93353210017085,212.43426090013236,212.5008384999819,212.5512651000172,212.5512651000172,212.5512651000172,212.5512651000172,212.60093350009993,212.60093350009993,212.60093350009993,212.60093350009993,212.60093350009993,212.60093350009993,212.60093350009993,212.60093350009993,212.60093350009993,right,0.8026940999552608,213.4351369999349,213.4351369999349,None,,1,001,2025-12-16_10h19.17.281,2025C_exp1_comp,2022.2.4,59.75082710938289,
39.2,315,1,1,1,16,124,70,213.4351369999349,213.4351369999349,213.93544360017404,214.0024659000337,214.0527582000941,214.0527582000941,214.0527582000941,214.0527582000941,214.1024298002012,214.1024298002012,214.1024298002012,214.1024298002012,214.1024298002012,214.1024298002012,214.1024298002012,214.1024298002012,214.1024298002012,right,0.7415952999144793,214.86981820035726,214.86981820035726,None,,1,001,2025-12-16_10h19.17.281,2025C_exp1_comp,2022.2.4,59.75082710938289,
25.5,45,1,1,1,17,125,58,214.86981820035726,214.86981820035726,215.37051800033078,215.4371617003344,215.48753440007567,215.48753440007567,215.48753440007567,215.48753440007567,215.53718720003963,215.53718720003963,215.53718720003963,215.53718720003963,215.53718720003963,215.53718720003963,215.53718720003963,215.53718720003963,215.53718720003963,left,0.7546418001875281,216.3214527000673,216.3214527000673,None,,1,001,2025-12-16_10h19.17.281,2025C_exp1_comp,2022.2.4,59.75082710938289,
39.2,45,1,0,1,18,126,25,216.3214527000673,216.3214527000673,216.82168069994077,216.88867329992354,216.9389864001423,216.9389864001423,216.9389864001423,216.9389864001423,216.98864880017936,216.98864880017936,216.98864880017936,216.98864880017936,216.98864880017936,216.98864880017936,216.98864880017936,216.98864880017936,216.98864880017936,right,0.7511486001312733,217.7560537001118,217.7560537001118,None,,1,001,2025-12-16_10h19.17.281,2025C_exp1_comp,2022.2.4,59.75082710938289,
25.5,45,1,-1,1,19,127,94,217.7560537001118,217.7560537001118,218.25660370010883,218.3233922002837,218.37376740016043,218.37376740016043,218.37376740016043,218.37376740016043,218.4234132003039,218.4234132003039,218.4234132003039,218.4234132003039,218.4234132003039,218.4234132003039,218.4234132003039,218.4234132003039,218.4234132003039,right,0.7886161003261805,219.24087260011584,219.24087260011584,None,,1,001,2025-12-16_10h19.17.281,2025C_exp1_comp,2022.2.4,59.75082710938289,
25.5,315,-1,0,1,20,128,13,219.24087260011584,219.24087260011584,219.74142140010372,219.80827439995483,219.85856850026175,219.85856850026175,219.85856850026175,219.85856850026175,219.90823590010405,219.90823590010405,219.90823590010405,219.90823590010405,219.90823590010405,219.90823590010405,219.90823590010405,219.90823590010405,219.90823590010405,right,0.8154229000210762,220.7425493001938,220.7425493001938,None,,1,001,2025-12-16_10h19.17.281,2025C_exp1_comp,2022.2.4,59.75082710938289,
22.7,45,-1,-1,1,21,129,75,220.7425493001938,220.7425493001938,221.24311099993065,221.30987410014495,221.36011449992657,221.36011449992657,221.36011449992657,221.36011449992657,221.40989169990644,221.40989169990644,221.40989169990644,221.40989169990644,221.40989169990644,221.40989169990644,221.40989169990644,221.40989169990644,221.40989169990644,right,0.850186700001359,222.27743010036647,222.27743010036647,None,,1,001,2025-12-16_10h19.17.281,2025C_exp1_comp,2022.2.4,59.75082710938289,
15.7,45,-1,1,1,22,130,37,222.27743010036647,222.27743010036647,222.7779319002293,222.84452790021896,222.89490790013224,222.89490790013224,222.89490790013224,222.89490790013224,222.9445747002028,222.9445747002028,222.9445747002028,222.9445747002028,222.9445747002028,222.9445747002028,222.9445747002028,222.9445747002028,222.9445747002028,right,0.8040851997211576,223.77887920010835,223.77887920010835,None,,1,001,2025-12-16_10h19.17.281,2025C_exp1_comp,2022.2.4,59.75082710938289,
19.6,315,1,-1,1,23,131,101,223.77887920010835,223.77887920010835,224.2794118002057,224.34612679993734,224.3964466000907,224.3964466000907,224.3964466000907,224.3964466000907,224.44611860020086,224.44611860020086,224.44611860020086,224.44611860020086,224.44611860020086,224.44611860020086,224.44611860020086,224.44611860020086,224.44611860020086,left,0.7176224999129772,225.19705090019852,225.19705090019852,None,,1,001,2025-12-16_10h19.17.281,2025C_exp1_comp,2022.2.4,59.75082710938289,
22.7,315,-1,-1,1,24,132,84,225.19705090019852,225.19705090019852,225.69738280028105,225.76421080017462,225.81452050013468,225.81452050013468,225.81452050013468,225.81452050013468,225.864178000018,225.864178000018,225.864178000018,225.864178000018,225.864178000018,225.864178000018,225.864178000018,225.864178000018,225.864178000018,right,0.9394817999564111,226.83185929991305,226.83185929991305,None,,1,001,2025-12-16_10h19.17.281,2025C_exp1_comp,2022.2.4,59.75082710938289,
22.7,45,-1,0,1,25,133,3,226.83185929991305,226.83185929991305,227.33235440030694,227.39927250007167,227.44952790020034,227.44952790020034,227.44952790020034,227.44952790020034,227.49926620023325,227.49926620023325,227.49926620023325,227.49926620023325,227.49926620023325,227.49926620023325,227.49926620023325,227.49926620023325,227.49926620023325,right,0.7210360998287797,228.24999370006844,228.24999370006844,None,,1,001,2025-12-16_10h19.17.281,2025C_exp1_comp,2022.2.4,59.75082710938289,
39.2,315,-1,0,1,26,134,16,228.24999370006844,228.24999370006844,228.75056920014322,228.81728760013357,228.86748290015385,228.86748290015385,228.86748290015385,228.86748290015385,228.91726360004395,228.91726360004395,228.91726360004395,228.91726360004395,228.91726360004395,228.91726360004395,228.91726360004395,228.91726360004395,228.91726360004395,right,0.6224233000539243,229.56794520001858,229.56794520001858,None,,1,001,2025-12-16_10h19.17.281,2025C_exp1_comp,2022.2.4,59.75082710938289,
35.3,315,1,-1,1,27,135,105,229.56794520001858,229.56794520001858,230.06871289992705,230.13527370011434,230.18554890016094,230.18554890016094,230.18554890016094,230.18554890016094,230.2353715999052,230.2353715999052,230.2353715999052,230.2353715999052,230.2353715999052,230.2353715999052,230.2353715999052,230.2353715999052,230.2353715999052,right,0.7127983001992106,230.96925580035895,230.96925580035895,None,,1,001,2025-12-16_10h19.17.281,2025C_exp1_comp,2022.2.4,59.75082710938289,
19.6,315,-1,-1,1,28,136,83,230.96925580035895,230.96925580035895,231.4697744003497,231.53665760019794,231.58665970014408,231.58665970014408,231.58665970014408,231.58665970014408,231.63664899999276,231.63664899999276,231.63664899999276,231.63664899999276,231.63664899999276,231.63664899999276,231.63664899999276,231.63664899999276,231.63664899999276,left,0.6157700996845961,232.27072310028598,232.27072310028598,None,,1,001,2025-12-16_10h19.17.281,2025C_exp1_comp,2022.2.4,59.75082710938289,
22.7,45,-1,1,1,29,137,39,232.27072310028598,232.27072310028598,232.77123640011996,232.83807709999382,232.88831870025024,232.88831870025024,232.88831870025024,232.88831870025024,232.93819230003282,232.93819230003282,232.93819230003282,232.93819230003282,232.93819230003282,232.93819230003282,232.93819230003282,232.93819230003282,232.93819230003282,right,0.714655099902302,233.67213000031188,233.67213000031188,None,,1,001,2025-12-16_10h19.17.281,2025C_exp1_comp,2022.2.4,59.75082710938289,
15.7,45,-1,0,1,30,138,1,233.67213000031188,233.67213000031188,234.17264300026,234.23920050030574,234.2896519000642,234.2896519000642,234.2896519000642,234.2896519000642,234.33942450024188,234.33942450024188,234.33942450024188,234.33942450024188,234.33942450024188,234.33942450024188,234.33942450024188,234.33942450024188,234.33942450024188,right,0.5370281999930739,234.9066881001927,234.9066881001927,None,,1,001,2025-12-16_10h19.17.281,2025C_exp1_comp,2022.2.4,59.75082710938289,
29.4,45,-1,1,1,31,139,41,234.9066881001927,234.9066881001927,235.40719550009817,235.47393450001255,235.52397270035,235.52397270035,235.52397270035,235.52397270035,235.57380799995735,235.57380799995735,235.57380799995735,235.57380799995735,235.57380799995735,235.57380799995735,235.57380799995735,235.57380799995735,235.57380799995735,right,0.5192712000571191,236.12458080006763,236.12458080006763,None,,1,001,2025-12-16_10h19.17.281,2025C_exp1_comp,2022.2.4,59.75082710938289,
29.4,45,1,-1,1,32,140,95,236.12458080006763,236.12458080006763,236.62510080030188,236.69171590032056,236.74211370013654,236.74211370013654,236.74211370013654,236.74211370013654,236.79177800007164,236.79177800007164,236.79177800007164,236.79177800007164,236.79177800007164,236.79177800007164,236.79177800007164,236.79177800007164,236.79177800007164,left,0.605130999814719,237.42577830003574,237.42577830003574,None,,1,001,2025-12-16_10h19.17.281,2025C_exp1_comp,2022.2.4,59.75082710938289,
15.7,45,1,-1,1,33,141,91,237.42577830003574,237.42577830003574,237.92645520018414,237.99315160000697,238.0434560002759,238.0434560002759,238.0434560002759,238.0434560002759,238.09311409993097,238.09311409993097,238.09311409993097,238.09311409993097,238.09311409993097,238.09311409993097,238.09311409993097,238.09311409993097,238.09311409993097,left,0.5514887999743223,238.67713750014082,238.67713750014082,None,,1,001,2025-12-16_10h19.17.281,2025C_exp1_comp,2022.2.4,59.75082710938289,
25.5,45,-1,0,1,34,142,4,238.67713750014082,238.67713750014082,239.17755259992555,239.24440290033817,239.29469239991158,239.29469239991158,239.29469239991158,239.29469239991158,239.34448850015178,239.34448850015178,239.34448850015178,239.34448850015178,239.34448850015178,239.34448850015178,239.34448850015178,239.34448850015178,239.34448850015178,right,0.4910850999876857,239.8614167002961,239.8614167002961,None,,1,001,2025-12-16_10h19.17.281,2025C_exp1_comp,2022.2.4,59.75082710938289,
39.2,45,1,1,1,35,143,61,239.8614167002961,239.8614167002961,240.36222389992326,240.42898600036278,240.4792746999301,240.4792746999301,240.4792746999301,240.4792746999301,240.52885679993778,240.52885679993778,240.52885679993778,240.52885679993778,240.52885679993778,240.52885679993778,240.52885679993778,240.52885679993778,240.52885679993778,left,0.5157495001330972,241.06281840009615,241.06281840009615,None,,1,001,2025-12-16_10h19.17.281,2025C_exp1_comp,2022.2.4,59.75082710938289,
29.4,315,-1,1,1,36,144,50,241.06281840009615,241.06281840009615,241.56348620029166,241.6299113999121,241.68018099991605,241.68018099991605,241.68018099991605,241.68018099991605,241.73022880032659,241.73022880032659,241.73022880032659,241.73022880032659,241.73022880032659,241.73022880032659,241.73022880032659,241.73022880032659,241.73022880032659,right,0.5224786996841431,242.2807368002832,242.2807368002832,None,,1,001,2025-12-16_10h19.17.281,2025C_exp1_comp,2022.2.4,59.75082710938289,
25.5,45,-1,1,1,37,145,40,242.2807368002832,242.2807368002832,242.7812262000516,242.84796250006184,242.89830240001902,242.89830240001902,242.89830240001902,242.89830240001902,242.94795610010624,242.94795610010624,242.94795610010624,242.94795610010624,242.94795610010624,242.94795610010624,242.94795610010624,242.94795610010624,242.94795610010624,right,0.5357304001227021,243.51519700000063,243.51519700000063,None,,1,001,2025-12-16_10h19.17.281,2025C_exp1_comp,2022.2.4,59.75082710938289,
19.6,45,1,0,1,38,146,20,243.51519700000063,243.51519700000063,244.01585880015045,244.0824372000061,244.1328545003198,244.1328545003198,244.1328545003198,244.1328545003198,244.18260170007125,244.18260170007125,244.18260170007125,244.18260170007125,244.18260170007125,244.18260170007125,244.18260170007125,244.18260170007125,244.18260170007125,left,0.6448915000073612,244.8498281002976,244.8498281002976,None,,1,001,2025-12-16_10h19.17.281,2025C_exp1_comp,2022.2.4,59.75082710938289,
35.3,45,1,0,1,39,147,24,244.8498281002976,244.8498281002976,245.3503554002382,245.41724730003625,245.46735320007429,245.46735320007429,245.46735320007429,245.46735320007429,245.51731490017846,245.51731490017846,245.51731490017846,245.51731490017846,245.51731490017846,245.51731490017846,245.51731490017846,245.51731490017846,245.51731490017846,right,0.47856760025024414,246.0177958002314,246.0177958002314,None,,1,001,2025-12-16_10h19.17.281,2025C_exp1_comp,2022.2.4,59.75082710938289,
42.7,45,-1,-1,1,40,148,80,246.0177958002314,246.0177958002314,246.5183067000471,246.5849847001955,246.63540120003745,246.63540120003745,246.63540120003745,246.63540120003745,246.68502340000123,246.68502340000123,246.68502340000123,246.68502340000123,246.68502340000123,246.68502340000123,246.68502340000123,246.68502340000123,246.68502340000123,left,0.6223842999897897,247.33562850020826,247.33562850020826,None,,1,001,2025-12-16_10h19.17.281,2025C_exp1_comp,2022.2.4,59.75082710938289,
35.3,315,-1,-1,1,41,149,87,247.33562850020826,247.33562850020826,247.83618080010638,247.9030305002816,247.95333719998598,247.95333719998598,247.95333719998598,247.95333719998598,248.00285520032048,248.00285520032048,248.00285520032048,248.00285520032048,248.00285520032048,248.00285520032048,248.00285520032048,248.00285520032048,248.00285520032048,left,0.49009669991210103,248.5203108000569,248.5203108000569,None,,1,001,2025-12-16_10h19.17.281,2025C_exp1_comp,2022.2.4,59.75082710938289,
29.4,45,-1,0,1,42,150,5,248.5203108000569,248.5203108000569,249.02071000030264,249.0875442000106,249.13785360008478,249.13785360008478,249.13785360008478,249.13785360008478,249.1875414000824,249.1875414000824,249.1875414000824,249.1875414000824,249.1875414000824,249.1875414000824,249.1875414000824,249.1875414000824,249.1875414000824,right,0.529142000246793,249.73821990005672,249.73821990005672,None,,1,001,2025-12-16_10h19.17.281,2025C_exp1_comp,2022.2.4,59.75082710938289,
19.6,315,1,0,1,43,151,29,249.73821990005672,249.73821990005672,250.2386864,250.30552230030298,250.35577740008011,250.35577740008011,250.35577740008011,250.35577740008011,250.4054278000258,250.4054278000258,250.4054278000258,250.4054278000258,250.4054278000258,250.4054278000258,250.4054278000258,250.4054278000258,250.4054278000258,left,0.5905852997675538,251.02276380034164,251.02276380034164,None,,1,001,2025-12-16_10h19.17.281,2025C_exp1_comp,2022.2.4,59.75082710938289,
15.7,315,-1,1,1,44,152,46,251.02276380034164,251.02276380034164,251.5233343001455,251.5900399000384,251.64052770007402,251.64052770007402,251.64052770007402,251.64052770007402,251.6899260999635,251.6899260999635,251.6899260999635,251.6899260999635,251.6899260999635,251.6899260999635,251.6899260999635,251.6899260999635,251.6899260999635,right,0.4106227997690439,252.12377740023658,252.12377740023658,None,,1,001,2025-12-16_10h19.17.281,2025C_exp1_comp,2022.2.4,59.75082710938289,
39.2,45,1,-1,1,45,153,97,252.12377740023658,252.12377740023658,252.62429370032623,252.69105760008097,252.74142140010372,252.74142140010372,252.74142140010372,252.74142140010372,252.79113900009543,252.79113900009543,252.79113900009543,252.79113900009543,252.79113900009543,252.79113900009543,252.79113900009543,252.79113900009543,252.79113900009543,left,0.5165013000369072,253.32507590018213,253.32507590018213,None,,1,001,2025-12-16_10h19.17.281,2025C_exp1_comp,2022.2.4,59.75082710938289,
19.6,45,1,-1,1,46,154,92,253.32507590018213,253.32507590018213,253.82557540014386,253.89233370032161,253.9426241000183,253.9426241000183,253.9426241000183,253.9426241000183,253.99241340020671,253.99241340020671,253.99241340020671,253.99241340020671,253.99241340020671,253.99241340020671,253.99241340020671,253.99241340020671,253.99241340020671,right,0.5151225002482533,254.52635660022497,254.52635660022497,None,,1,001,2025-12-16_10h19.17.281,2025C_exp1_comp,2022.2.4,59.75082710938289,
19.6,315,-1,1,1,47,155,47,254.52635660022497,254.52635660022497,255.02682300005108,255.09354630019516,255.143865799997,255.143865799997,255.143865799997,255.143865799997,255.19350970024243,255.19350970024243,255.19350970024243,255.19350970024243,255.19350970024243,255.19350970024243,255.19350970024243,255.19350970024243,255.19350970024243,right,0.5223316000774503,255.74405850004405,255.74405850004405,None,,1,001,2025-12-16_10h19.17.281,2025C_exp1_comp,2022.2.4,59.75082710938289,
35.3,45,1,-1,1,48,156,96,255.74405850004405,255.74405850004405,256.2446121000685,256.31143170036376,256.3615192999132,256.3615192999132,256.3615192999132,256.3615192999132,256.41149580013007,256.41149580013007,256.41149580013007,256.41149580013007,256.41149580013007,256.41149580013007,256.41149580013007,256.41149580013007,256.41149580013007,left,0.5369906001724303,256.9787547001615,256.9787547001615,None,,1,001,2025-12-16_10h19.17.281,2025C_exp1_comp,2022.2.4,59.75082710938289,
12.1,45,1,-1,1,49,157,90,256.9787547001615,256.9787547001615,257.4791395002976,257.54598130006343,257.5963190002367,257.5963190002367,257.5963190002367,257.5963190002367,257.64604450017214,257.64604450017214,257.64604450017214,257.64604450017214,257.64604450017214,257.64604450017214,257.64604450017214,257.64604450017214,257.64604450017214,right,0.5573015999980271,258.22981100017205,258.22981100017205,None,,1,001,2025-12-16_10h19.17.281,2025C_exp1_comp,2022.2.4,59.75082710938289,
42.7,315,-1,1,1,50,158,53,258.22981100017205,258.22981100017205,258.7305485000834,258.79723950009793,258.84754340024665,258.84754340024665,258.84754340024665,258.84754340024665,258.8971999003552,258.8971999003552,258.8971999003552,258.8971999003552,258.8971999003552,258.8971999003552,258.8971999003552,258.8971999003552,258.8971999003552,left,0.7545905997976661,259.681441700086,259.681441700086,None,,1,001,2025-12-16_10h19.17.281,2025C_exp1_comp,2022.2.4,59.75082710938289,
22.7,315,1,-1,1,51,159,102,259.681441700086,259.681441700086,260.1819591000676,260.2484141001478,260.299003300257,260.299003300257,260.299003300257,260.299003300257,260.3486649999395,260.3486649999395,260.3486649999395,260.3486649999395,260.3486649999395,260.3486649999395,260.3486649999395,260.3486649999395,260.3486649999395,left,0.7033509002067149,261.0827144002542,261.0827144002542,None,,1,001,2025-12-16_10h19.17.281,2025C_exp1_comp,2022.2.4,59.75082710938289,
29.4,45,-1,-1,1,52,160,77,261.0827144002542,261.0827144002542,261.5832608002238,261.6500798002817,261.70042120013386,261.70042120013386,261.70042120013386,261.70042120013386,261.7499228003435,261.7499228003435,261.7499228003435,261.7499228003435,261.7499228003435,261.7499228003435,261.7499228003435,261.7499228003435,261.7499228003435,right,0.695019899867475,262.46743299998343,262.46743299998343,None,,1,001,2025-12-16_10h19.17.281,2025C_exp1_comp,2022.2.4,59.75082710938289,
42.7,315,-1,-1,1,53,161,89,262.46743299998343,262.46743299998343,262.9679609001614,263.034800699912,263.08506940025836,263.08506940025836,263.08506940025836,263.08506940025836,263.134901500307,263.134901500307,263.134901500307,263.134901500307,263.134901500307,263.134901500307,263.134901500307,263.134901500307,263.134901500307,right,0.5489827999845147,263.7021105000749,263.7021105000749,None,,1,001,2025-12-16_10h19.17.281,2025C_exp1_comp,2022.2.4,59.75082710938289,
42.7,315,-1,0,1,54,162,17,263.7021105000749,263.7021105000749,264.20261829998344,264.26938680000603,264.31955280015245,264.31955280015245,264.31955280015245,264.31955280015245,264.36934530036524,264.36934530036524,264.36934530036524,264.36934530036524,264.36934530036524,264.36934530036524,264.36934530036524,264.36934530036524,264.36934530036524,right,0.6663465001620352,265.0534760002047,265.0534760002047,None,,1,001,2025-12-16_10h19.17.281,2025C_exp1_comp,2022.2.4,59.75082710938289,
12.1,45,1,1,1,55,163,54,265.0534760002047,265.0534760002047,265.5538690001704,265.6205832003616,265.67086170008406,265.67086170008406,265.67086170008406,265.67086170008406,265.72082310030237,265.72082310030237,265.72082310030237,265.72082310030237,265.72082310030237,265.72082310030237,265.72082310030237,265.72082310030237,265.72082310030237,left,0.6194405001588166,266.37147970031947,266.37147970031947,None,,1,001,2025-12-16_10h19.17.281,2025C_exp1_comp,2022.2.4,59.75082710938289,
12.1,315,1,0,1,56,164,27,266.37147970031947,266.37147970031947,266.87201660033315,266.9387107002549,266.9889895003289,266.9889895003289,266.9889895003289,266.9889895003289,267.03870250005275,267.03870250005275,267.03870250005275,267.03870250005275,267.03870250005275,267.03870250005275,267.03870250005275,267.03870250005275,267.03870250005275,left,0.5340601000934839,267.5893421000801,267.5893421000801,None,,1,001,2025-12-16_10h19.17.281,2025C_exp1_comp,2022.2.4,59.75082710938289,
15.7,315,1,0,1,57,165,28,267.5893421000801,267.5893421000801,268.0898803002201,268.1565845999867,268.2069063000381,268.2069063000381,268.2069063000381,268.2069063000381,268.2565713999793,268.2565713999793,268.2565713999793,268.2565713999793,268.2565713999793,268.2565713999793,268.2565713999793,268.2565713999793,268.2565713999793,left,0.5794724998995662,268.857023099903,268.857023099903,None,,1,001,2025-12-16_10h19.17.281,2025C_exp1_comp,2022.2.4,59.75082710938289,
25.5,315,1,1,1,58,166,67,268.857023099903,268.857023099903,269.3577785002999,269.42452650005,269.4748460003175,269.4748460003175,269.4748460003175,269.4748460003175,269.52452900027856,269.52452900027856,269.52452900027856,269.52452900027856,269.52452900027856,269.52452900027856,269.52452900027856,269.52452900027856,269.52452900027856,left,0.5192688000388443,270.0749425003305,270.0749425003305,None,,1,001,2025-12-16_10h19.17.281,2025C_exp1_comp,2022.2.4,59.75082710938289,
15.7,315,1,-1,1,59,167,100,270.0749425003305,270.0749425003305,270.57556889997795,270.64238330023363,270.69272459996864,270.69272459996864,270.69272459996864,270.69272459996864,270.7423900999129,270.7423900999129,270.7423900999129,270.7423900999129,270.7423900999129,270.7423900999129,270.7423900999129,270.7423900999129,270.7423900999129,left,0.5497194998897612,271.3096385002136,271.3096385002136,None,,1,001,2025-12-16_10h19.17.281,2025C_exp1_comp,2022.2.4,59.75082710938289,
39.2,45,-1,1,1,60,168,43,271.3096385002136,271.3096385002136,271.80993650015444,271.8770886999555,271.9273659000173,271.9273659000173,271.9273659000173,271.9273659000173,271.9772061002441,271.9772061002441,271.9772061002441,271.9772061002441,271.9772061002441,271.9772061002441,271.9772061002441,271.9772061002441,271.9772061002441,left,0.5556841995567083,272.56084839999676,272.56084839999676,None,,1,001,2025-12-16_10h19.17.281,2025C_exp1_comp,2022.2.4,59.75082710938289,
25.5,315,1,0,1,61,169,31,272.56084839999676,272.56084839999676,273.06124850036576,273.12822760036215,273.1785414000042,273.1785414000042,273.1785414000042,273.1785414000042,273.22820300003514,273.22820300003514,273.22820300003514,273.22820300003514,273.22820300003514,273.22820300003514,273.22820300003514,273.22820300003514,273.22820300003514,left,0.4964605001732707,273.7455023000948,273.7455023000948,None,,1,001,2025-12-16_10h19.17.281,2025C_exp1_comp,2022.2.4,59.75082710938289,
19.6,45,1,1,1,62,170,56,273.7455023000948,273.7455023000948,274.2459041001275,274.3125948999077,274.36304520023987,274.36304520023987,274.36304520023987,274.36304520023987,274.41275059990585,274.41275059990585,274.41275059990585,274.41275059990585,274.41275059990585,274.41275059990585,274.41275059990585,274.41275059990585,274.41275059990585,left,0.6477614999748766,275.0802061003633,275.0802061003633,None,,1,001,2025-12-16_10h19.17.281,2025C_exp1_comp,2022.2.4,59.75082710938289,
15.7,45,1,1,1,63,171,55,275.0802061003633,275.0802061003633,275.5806440003216,275.6472120000981,275.69765429990366,275.69765429990366,275.69765429990366,275.69765429990366,275.7475147000514,275.7475147000514,275.7475147000514,275.7475147000514,275.7475147000514,275.7475147000514,275.7475147000514,275.7475147000514,275.7475147000514,left,0.6011512000113726,276.3814592002891,276.3814592002891,None,,1,001,2025-12-16_10h19.17.281,2025C_exp1_comp,2022.2.4,59.75082710938289,
39.2,315,1,-1,1,64,172,106,276.3814592002891,276.3814592002891,276.88200290035456,276.9486006000079,276.999024100136,276.999024100136,276.999024100136,276.999024100136,277.0486834002659,277.0486834002659,277.0486834002659,277.0486834002659,277.0486834002659,277.0486834002659,277.0486834002659,277.0486834002659,277.0486834002659,left,0.5470789996907115,277.6160202999599,277.6160202999599,None,,1,001,2025-12-16_10h19.17.281,2025C_exp1_comp,2022.2.4,59.75082710938289,
15.7,315,1,1,1,65,173,64,277.6160202999599,277.6160202999599,278.11653460003436,278.18326440034434,278.2335564000532,278.2335564000532,278.2335564000532,278.2335564000532,278.28325730003417,278.28325730003417,278.28325730003417,278.28325730003417,278.28325730003417,278.28325730003417,278.28325730003417,278.28325730003417,278.28325730003417,left,0.5283075999468565,278.83393310010433,278.83393310010433,None,,1,001,2025-12-16_10h19.17.281,2025C_exp1_comp,2022.2.4,59.75082710938289,
42.7,45,-1,0,1,66,174,8,278.83393310010433,278.83393310010433,279.3344487999566,279.4011667002924,279.4513838002458,279.4513838002458,279.4513838002458,279.4513838002458,279.5012727002613,279.5012727002613,279.5012727002613,279.5012727002613,279.5012727002613,279.5012727002613,279.5012727002613,279.5012727002613,279.5012727002613,left,0.48651379998773336,280.01832420006394,280.01832420006394,None,,1,001,2025-12-16_10h19.17.281,2025C_exp1_comp,2022.2.4,59.75082710938289,
12.1,45,-1,-1,1,67,175,72,280.01832420006394,280.01832420006394,280.51896480005234,280.58541890000924,280.63608380034566,280.63608380034566,280.63608380034566,280.63608380034566,280.68574459990487,280.68574459990487,280.68574459990487,280.68574459990487,280.68574459990487,280.68574459990487,280.68574459990487,280.68574459990487,280.68574459990487,right,0.49436220014467835,281.2029846999794,281.2029846999794,None,,1,001,2025-12-16_10h19.17.281,2025C_exp1_comp,2022.2.4,59.75082710938289,
15.7,45,-1,-1,1,68,176,73,281.2029846999794,281.2029846999794,281.70335370022804,281.77023990033194,281.8203088003211,281.8203088003211,281.8203088003211,281.8203088003211,281.8700641999021,281.8700641999021,281.8700641999021,281.8700641999021,281.8700641999021,281.8700641999021,281.8700641999021,281.8700641999021,281.8700641999021,left,0.3980474998243153,282.28715580003336,282.28715580003336,None,,1,001,2025-12-16_10h19.17.281,2025C_exp1_comp,2022.2.4,59.75082710938289,
42.7,315,1,0,1,69,177,35,282.28715580003336,282.28715580003336,282.787903400138,282.85462110023946,282.90494849998504,282.90494849998504,282.90494849998504,282.90494849998504,282.9547203001566,282.9547203001566,282.9547203001566,282.9547203001566,282.9547203001566,282.9547203001566,282.9547203001566,282.9547203001566,282.9547203001566,right,0.481199299916625,283.454928799998,283.454928799998,None,,1,001,2025-12-16_10h19.17.281,2025C_exp1_comp,2022.2.4,59.75082710938289,
22.7,45,1,-1,1,70,178,93,283.454928799998,283.454928799998,283.9557437002659,284.02230350021273,284.07245110021904,284.07245110021904,284.07245110021904,284.07245110021904,284.1222224002704,284.1222224002704,284.1222224002704,284.1222224002704,284.1222224002704,284.1222224002704,284.1222224002704,284.1222224002704,284.1222224002704,left,0.4583152001723647,284.6064595002681,284.6064595002681,None,,1,001,2025-12-16_10h19.17.281,2025C_exp1_comp,2022.2.4,59.75082710938289,
25.5,45,-1,-1,1,71,179,76,284.6064595002681,284.6064595002681,285.10675710020587,285.17359980009496,285.22393150022253,285.22393150022253,285.22393150022253,285.22393150022253,285.27363270008937,285.27363270008937,285.27363270008937,285.27363270008937,285.27363270008937,285.27363270008937,285.27363270008937,285.27363270008937,285.27363270008937,left,0.44318309985101223,285.74083480006084,285.74083480006084,None,,1,001,2025-12-16_10h19.17.281,2025C_exp1_comp,2022.2.4,59.75082710938289,
22.7,45,1,0,1,72,180,21,285.74083480006084,285.74083480006084,286.24123430019245,286.30807750020176,286.3583986000158,286.3583986000158,286.3583986000158,286.3583986000158,286.40792819997296,286.40792819997296,286.40792819997296,286.40792819997296,286.40792819997296,286.40792819997296,286.40792819997296,286.40792819997296,286.40792819997296,left,0.4445267003029585,286.87517919996753,286.87517919996753,None,,1,001,2025-12-16_10h19.17.281,2025C_exp1_comp,2022.2.4,59.75082710938289,
29.4,315,1,0,1,73,181,32,286.87517919996753,286.87517919996753,287.37563739996403,287.4426025003195,287.49283210001886,287.49283210001886,287.49283210001886,287.49283210001886,287.54266320029274,287.54266320029274,287.54266320029274,287.54266320029274,287.54266320029274,287.54266320029274,287.54266320029274,287.54266320029274,287.54266320029274,left,0.42891989974305034,287.99294569995254,287.99294569995254,None,,1,001,2025-12-16_10h19.17.281,2025C_exp1_comp,2022.2.4,59.75082710938289,
35.3,45,-1,1,1,74,182,42,287.99294569995254,287.99294569995254,288.49349630018696,288.56029740022495,288.61062670033425,288.61062670033425,288.61062670033425,288.61062670033425,288.6603558002971,288.6603558002971,288.6603558002971,288.6603558002971,288.6603558002971,288.6603558002971,288.6603558002971,288.6603558002971,288.6603558002971,left,0.4557338999584317,289.14421760011464,289.14421760011464,None,,1,001,2025-12-16_10h19.17.281,2025C_exp1_comp,2022.2.4,59.75082710938289,
15.7,315,-1,-1,1,75,183,82,289.14421760011464,289.14421760011464,289.644463500008,289.71136410022154,289.7617827001959,289.7617827001959,289.7617827001959,289.7617827001959,289.8115767003037,289.8115767003037,289.8115767003037,289.8115767003037,289.8115767003037,289.8115767003037,289.8115767003037,289.8115767003037,289.8115767003037,right,0.4483481999486685,290.27842089999467,290.27842089999467,None,,1,001,2025-12-16_10h19.17.281,2025C_exp1_comp,2022.2.4,59.75082710938289,
12.1,45,-1,1,1,76,184,36,290.27842089999467,290.27842089999467,290.77901560021564,290.8459423002787,290.89620999991894,290.89620999991894,290.89620999991894,290.89620999991894,290.94604249997064,290.94604249997064,290.94604249997064,290.94604249997064,290.94604249997064,290.94604249997064,290.94604249997064,290.94604249997064,290.94604249997064,left,0.44946200028061867,291.41317990003154,291.41317990003154,None,,1,001,2025-12-16_10h19.17.281,2025C_exp1_comp,2022.2.4,59.75082710938289,
22.7,315,-1,1,1,77,185,48,291.41317990003154,291.41317990003154,291.91355659998953,291.9804120003246,292.0306701003574,292.0306701003574,292.0306701003574,292.0306701003574,292.0804190002382,292.0804190002382,292.0804190002382,292.0804190002382,292.0804190002382,292.0804190002382,292.0804190002382,292.0804190002382,292.0804190002382,right,0.6752039999701083,292.78117329999804,292.78117329999804,None,,1,001,2025-12-16_10h19.17.281,2025C_exp1_comp,2022.2.4,59.75082710938289,
39.2,45,-1,-1,1,78,186,79,292.78117329999804,292.78117329999804,293.28174200002104,293.3484388999641,293.3986500003375,293.3986500003375,293.3986500003375,293.3986500003375,293.448534199968,293.448534199968,293.448534199968,293.448534199968,293.448534199968,293.448534199968,293.448534199968,293.448534199968,293.448534199968,left,0.5322126001119614,293.99909620033577,293.99909620033577,None,,1,001,2025-12-16_10h19.17.281,2025C_exp1_comp,2022.2.4,59.75082710938289,
19.6,45,-1,0,1,79,187,2,293.99909620033577,293.99909620033577,294.4996189000085,294.566117499955,294.61650269990787,294.61650269990787,294.61650269990787,294.61650269990787,294.66651199990883,294.66651199990883,294.66651199990883,294.66651199990883,294.66651199990883,294.66651199990883,294.66651199990883,294.66651199990883,294.66651199990883,left,0.5855609001591802,295.2835782999173,295.2835782999173,None,,1,001,2025-12-16_10h19.17.281,2025C_exp1_comp,2022.2.4,59.75082710938289,
22.7,315,-1,0,1,80,188,12,295.2835782999173,295.2835782999173,295.78422649996355,295.8509233002551,295.90095770033076,295.90095770033076,295.90095770033076,295.90095770033076,295.95096709998325,295.95096709998325,295.95096709998325,295.95096709998325,295.95096709998325,295.95096709998325,295.95096709998325,295.95096709998325,295.95096709998325,right,0.5736541002988815,296.5515489000827,296.5515489000827,None,,1,001,2025-12-16_10h19.17.281,2025C_exp1_comp,2022.2.4,59.75082710938289,
39.2,315,1,0,1,81,189,34,296.5515489000827,296.5515489000827,297.052165500354,297.11878059990704,297.1691767000593,297.1691767000593,297.1691767000593,297.1691767000593,297.2188470000401,297.2188470000401,297.2188470000401,297.2188470000401,297.2188470000401,297.2188470000401,297.2188470000401,297.2188470000401,297.2188470000401,left,0.6009047999978065,297.83618920017034,297.83618920017034,None,,1,001,2025-12-16_10h19.17.281,2025C_exp1_comp,2022.2.4,59.75082710938289,
25.5,45,1,0,1,82,190,22,297.83618920017034,297.83618920017034,298.33673400012776,298.4033665000461,298.45378570025787,298.45378570025787,298.45378570025787,298.45378570025787,298.5034727999009,298.5034727999009,298.5034727999009,298.5034727999009,298.5034727999009,298.5034727999009,298.5034727999009,298.5034727999009,298.5034727999009,left,0.6761063002049923,299.20429100003093,299.20429100003093,None,,1,001,2025-12-16_10h19.17.281,2025C_exp1_comp,2022.2.4,59.75082710938289,
19.6,315,1,1,1,83,191,65,299.20429100003093,299.20429100003093,299.7048308001831,299.7715016002767,299.82178660016507,299.82178660016507,299.82178660016507,299.82178660016507,299.871679100208,299.871679100208,299.871679100208,299.871679100208,299.871679100208,299.871679100208,299.871679100208,299.871679100208,299.871679100208,left,0.6364796999841928,300.53882180014625,300.53882180014625,None,,1,001,2025-12-16_10h19.17.281,2025C_exp1_comp,2022.2.4,59.75082710938289,
29.4,45,1,0,1,84,192,23,300.53882180014625,300.53882180014625,301.0396414003335,301.1062277001329,301.1566510000266,301.1566510000266,301.1566510000266,301.1566510000266,301.2062841001898,301.2062841001898,301.2062841001898,301.2062841001898,301.2062841001898,301.2062841001898,301.2062841001898,301.2062841001898,301.2062841001898,left,0.6378428000025451,301.87349520018324,301.87349520018324,None,,1,001,2025-12-16_10h19.17.281,2025C_exp1_comp,2022.2.4,59.75082710938289,
29.4,315,1,1,1,85,193,68,301.87349520018324,301.87349520018324,302.3742777002044,302.4408615999855,302.4911404000595,302.4911404000595,302.4911404000595,302.4911404000595,302.5408344003372,302.5408344003372,302.5408344003372,302.5408344003372,302.5408344003372,302.5408344003372,302.5408344003372,302.5408344003372,302.5408344003372,left,0.6635706997476518,303.2249707002193,303.2249707002193,None,,1,001,2025-12-16_10h19.17.281,2025C_exp1_comp,2022.2.4,59.75082710938289,
29.4,315,-1,-1,1,86,194,86,303.2249707002193,303.2249707002193,303.72550699999556,303.79220869997516,303.84249800024554,303.84249800024554,303.84249800024554,303.84249800024554,303.8923398000188,303.8923398000188,303.8923398000188,303.8923398000188,303.8923398000188,303.8923398000188,303.8923398000188,303.8923398000188,303.8923398000188,left,0.7193538001738489,304.64294520020485,304.64294520020485,None,,1,001,2025-12-16_10h19.17.281,2025C_exp1_comp,2022.2.4,59.75082710938289,
42.7,315,1,-1,1,87,195,107,304.64294520020485,304.64294520020485,305.1434426000342,305.2103066002019,305.2605075999163,305.2605075999163,305.2605075999163,305.2605075999163,305.31027600029483,305.31027600029483,305.31027600029483,305.31027600029483,305.31027600029483,305.31027600029483,305.31027600029483,305.31027600029483,305.31027600029483,left,0.6293268003500998,305.9608943001367,305.9608943001367,None,,1,001,2025-12-16_10h19.17.281,2025C_exp1_comp,2022.2.4,59.75082710938289,
19.6,45,-1,1,1,88,196,38,305.9608943001367,305.9608943001367,306.4615267002955,306.5282976003364,306.5785778001882,306.5785778001882,306.5785778001882,306.5785778001882,306.62839769991115,306.62839769991115,306.62839769991115,306.62839769991115,306.62839769991115,306.62839769991115,306.62839769991115,306.62839769991115,306.62839769991115,right,0.6644433001056314,307.3124279999174,307.3124279999174,None,,1,001,2025-12-16_10h19.17.281,2025C_exp1_comp,2022.2.4,59.75082710938289,
42.7,45,1,1,1,89,197,62,307.3124279999174,307.3124279999174,307.8129202001728,307.8796725003049,307.92996950028464,307.92996950028464,307.92996950028464,307.92996950028464,307.9796052002348,307.9796052002348,307.9796052002348,307.9796052002348,307.9796052002348,307.9796052002348,307.9796052002348,307.9796052002348,307.9796052002348,right,0.7526445002295077,308.76375319994986,308.76375319994986,None,,1,001,2025-12-16_10h19.17.281,2025C_exp1_comp,2022.2.4,59.75082710938289,
39.2,315,-1,-1,1,90,198,88,308.76375319994986,308.76375319994986,309.26423140009865,309.33106820005924,309.3812947003171,309.3812947003171,309.3812947003171,309.3812947003171,309.4310754002072,309.4310754002072,309.4310754002072,309.4310754002072,309.4310754002072,309.4310754002072,309.4310754002072,309.4310754002072,309.4310754002072,left,0.7097384999506176,310.16517780022696,310.16517780022696,None,,1,001,2025-12-16_10h19.17.281,2025C_exp1_comp,2022.2.4,59.75082710938289,
39.2,315,-1,1,1,91,199,52,310.16517780022696,310.16517780022696,310.66569339996204,310.7324783001095,310.7828001999296,310.7828001999296,310.7828001999296,310.7828001999296,310.8324763001874,310.8324763001874,310.8324763001874,310.8324763001874,310.8324763001874,310.8324763001874,310.8324763001874,310.8324763001874,310.8324763001874,left,0.6677505997940898,311.5165870003402,311.5165870003402,None,,1,001,2025-12-16_10h19.17.281,2025C_exp1_comp,2022.2.4,59.75082710938289,
35.3,45,1,1,1,92,200,60,311.5165870003402,311.5165870003402,312.0169898001477,312.08380990009755,312.13413330027834,312.13413330027834,312.13413330027834,312.13413330027834,312.18380560027435,312.18380560027435,312.18380560027435,312.18380560027435,312.18380560027435,312.18380560027435,312.18380560027435,312.18380560027435,312.18380560027435,right,0.684750400017947,312.8847833001055,312.8847833001055,None,,1,001,2025-12-16_10h19.17.281,2025C_exp1_comp,2022.2.4,59.75082710938289,
22.7,45,1,1,1,93,201,57,312.8847833001055,312.8847833001055,313.3851478002034,313.45187820028514,313.50219700019807,313.50219700019807,313.50219700019807,313.50219700019807,313.5518998000771,313.5518998000771,313.5518998000771,313.5518998000771,313.5518998000771,313.5518998000771,313.5518998000771,313.5518998000771,313.5518998000771,left,0.6932076001539826,314.26950070029125,314.26950070029125,None,,1,001,2025-12-16_10h19.17.281,2025C_exp1_comp,2022.2.4,59.75082710938289,
19.6,315,-1,0,1,94,202,11,314.26950070029125,314.26950070029125,314.76987370010465,314.83647170010954,314.8869058000855,314.8869058000855,314.8869058000855,314.8869058000855,314.93657190026715,314.93657190026715,314.93657190026715,314.93657190026715,314.93657190026715,314.93657190026715,314.93657190026715,314.93657190026715,314.93657190026715,right,0.6359272003173828,315.6038950001821,315.6038950001821,None,,1,001,2025-12-16_10h19.17.281,2025C_exp1_comp,2022.2.4,59.75082710938289,
39.2,45,-1,0,1,95,203,7,315.6038950001821,315.6038950001821,316.1045393003151,316.171248300001,316.2215591003187,316.2215591003187,316.2215591003187,316.2215591003187,316.2712384001352,316.2712384001352,316.2712384001352,316.2712384001352,316.2712384001352,316.2712384001352,316.2712384001352,316.2712384001352,316.2712384001352,left,0.5647934996522963,316.8552570003085,316.8552570003085,None,,1,001,2025-12-16_10h19.17.281,2025C_exp1_comp,2022.2.4,59.75082710938289,
25.5,315,-1,-1,1,96,204,85,316.8552570003085,316.8552570003085,317.35565990023315,317.42249950021505,317.47280080011114,317.47280080011114,317.47280080011114,317.47280080011114,317.5226072999649,317.5226072999649,317.5226072999649,317.5226072999649,317.5226072999649,317.5226072999649,317.5226072999649,317.5226072999649,317.5226072999649,left,0.5290478002279997,318.0730262999423,318.0730262999423,None,,1,001,2025-12-16_10h19.17.281,2025C_exp1_comp,2022.2.4,59.75082710938289,
15.7,315,-1,0,1,97,205,10,318.0730262999423,318.0730262999423,318.5735420999117,318.64038640027866,318.69068970019,318.69068970019,318.69068970019,318.69068970019,318.74036750011146,318.74036750011146,318.74036750011146,318.74036750011146,318.74036750011146,318.74036750011146,318.74036750011146,318.74036750011146,318.74036750011146,left,0.6072500003501773,319.374141999986,319.374141999986,None,,1,001,2025-12-16_10h19.17.281,2025C_exp1_comp,2022.2.4,59.75082710938289,
12.1,315,1,1,1,98,206,63,319.374141999986,319.374141999986,319.8749927999452,319.94169310014695,319.9919079001993,319.9919079001993,319.9919079001993,319.9919079001993,320.0416982001625,320.0416982001625,320.0416982001625,320.0416982001625,320.0416982001625,320.0416982001625,320.0416982001625,320.0416982001625,320.0416982001625,left,0.59445929992944,320.65919960010797,320.65919960010797,None,,1,001,2025-12-16_10h19.17.281,2025C_exp1_comp,2022.2.4,59.75082710938289,
