contrast,ori,side,precue,trials.thisRepN,trials.thisTrialN,trials.thisN,trials.thisIndex,fix1.started,fix2.started,precue_2.started,precue_2.stopped,left_grating.started,right_grating.started,noise_left2.started,noise_right2.started,fix1.stopped,fix2.stopped,left_grating.stopped,right_grating.stopped,noise_left2.stopped,noise_right2.stopped,key_resp.started,fix1_2.started,fix2_2.started,key_resp.keys,key_resp.rt,key_resp_2.started,break_text_2.started,key_resp_2.keys,key_resp_2.rt,participant,session,date,expName,psychopyVersion,frameRate,
42.7,315,1,0,0,0,0,35,14.564778900239617,14.564778900239617,15.0456775999628,15.112373100128025,15.203895600046962,15.203895600046962,15.203895600046962,15.203895600046962,15.228904800023884,15.228904800023884,15.228904800023884,15.228904800023884,15.228904800023884,15.228904800023884,15.228904800023884,15.228904800023884,15.228904800023884,right,17.19081800011918,32.446147799957544,32.446147799957544,None,,2,001,2025-12-16_13h00.36.463,2025C_exp1_comp,2022.2.4,59.77715086618489,
42.7,45,-1,-1,0,1,1,80,32.446147799957544,32.446147799957544,32.94679389987141,33.013484300114214,33.06366549991071,33.06366549991071,33.06366549991071,33.06366549991071,33.11362269986421,33.11362269986421,33.11362269986421,33.11362269986421,33.11362269986421,33.11362269986421,33.11362269986421,33.11362269986421,33.11362269986421,right,1.1544217001646757,34.29836730007082,34.29836730007082,None,,2,001,2025-12-16_13h00.36.463,2025C_exp1_comp,2022.2.4,59.77715086618489,
29.4,45,-1,-1,0,2,2,77,34.29836730007082,34.29836730007082,34.79869019985199,34.865416100248694,34.91558900009841,34.91558900009841,34.91558900009841,34.91558900009841,34.96547510009259,34.96547510009259,34.96547510009259,34.96547510009259,34.96547510009259,34.96547510009259,34.96547510009259,34.96547510009259,34.96547510009259,left,0.5909767001867294,35.58256040001288,35.58256040001288,None,,2,001,2025-12-16_13h00.36.463,2025C_exp1_comp,2022.2.4,59.77715086618489,
25.5,315,-1,-1,0,3,3,85,35.58256040001288,35.58256040001288,36.08321199985221,36.14983389992267,36.20013500005007,36.20013500005007,36.20013500005007,36.20013500005007,36.24989779992029,36.24989779992029,36.24989779992029,36.24989779992029,36.24989779992029,36.24989779992029,36.24989779992029,36.24989779992029,36.24989779992029,right,0.5945748002268374,36.86746089998633,36.86746089998633,None,,2,001,2025-12-16_13h00.36.463,2025C_exp1_comp,2022.2.4,59.77715086618489,
39.2,45,1,-1,0,4,4,97,36.86746089998633,36.86746089998633,37.367860599886626,37.434243800118566,37.48474310012534,37.48474310012534,37.48474310012534,37.48474310012534,37.53458630014211,37.53458630014211,37.53458630014211,37.53458630014211,37.53458630014211,37.53458630014211,37.53458630014211,37.53458630014211,37.53458630014211,left,0.5979234999977052,38.151886799838394,38.151886799838394,None,,2,001,2025-12-16_13h00.36.463,2025C_exp1_comp,2022.2.4,59.77715086618489,
15.7,315,-1,0,0,5,5,10,38.151886799838394,38.151886799838394,38.65244730003178,38.71915449993685,38.76941929990426,38.76941929990426,38.76941929990426,38.76941929990426,38.819109600037336,38.819109600037336,38.819109600037336,38.819109600037336,38.819109600037336,38.819109600037336,38.819109600037336,38.819109600037336,38.819109600037336,right,0.5451907003298402,39.38635249994695,39.38635249994695,None,,2,001,2025-12-16_13h00.36.463,2025C_exp1_comp,2022.2.4,59.77715086618489,
22.7,45,1,-1,0,6,6,93,39.38635249994695,39.38635249994695,39.8870164998807,39.95389370014891,40.004124800208956,40.004124800208956,40.004124800208956,40.004124800208956,40.05395459989086,40.05395459989086,40.05395459989086,40.05395459989086,40.05395459989086,40.05395459989086,40.05395459989086,40.05395459989086,40.05395459989086,left,0.4945975001901388,40.570947099942714,40.570947099942714,None,,2,001,2025-12-16_13h00.36.463,2025C_exp1_comp,2022.2.4,59.77715086618489,
12.1,45,1,0,0,7,7,18,40.570947099942714,40.570947099942714,41.07161210011691,41.13817990012467,41.18847749987617,41.18847749987617,41.18847749987617,41.18847749987617,41.23817660007626,41.23817660007626,41.23817660007626,41.23817660007626,41.23817660007626,41.23817660007626,41.23817660007626,41.23817660007626,41.23817660007626,left,0.7493318002671003,42.00581539981067,42.00581539981067,None,,2,001,2025-12-16_13h00.36.463,2025C_exp1_comp,2022.2.4,59.77715086618489,
29.4,45,-1,0,0,8,8,5,42.00581539981067,42.00581539981067,42.506256700027734,42.572906699962914,42.62334610009566,42.62334610009566,42.62334610009566,42.62334610009566,42.67314699990675,42.67314699990675,42.67314699990675,42.67314699990675,42.67314699990675,42.67314699990675,42.67314699990675,42.67314699990675,42.67314699990675,right,20.978371299803257,63.67761899996549,63.67761899996549,None,,2,001,2025-12-16_13h00.36.463,2025C_exp1_comp,2022.2.4,59.77715086618489,
19.6,45,1,-1,0,9,9,92,63.67761899996549,63.67761899996549,64.17813970008865,64.24458070006222,64.29480500007048,64.29480500007048,64.29480500007048,64.29480500007048,64.34466159995645,64.34466159995645,64.34466159995645,64.34466159995645,64.34466159995645,64.34466159995645,64.34466159995645,64.34466159995645,64.34466159995645,left,0.6025701002217829,64.97876580012962,64.97876580012962,None,,2,001,2025-12-16_13h00.36.463,2025C_exp1_comp,2022.2.4,59.77715086618489,
42.7,45,-1,0,0,10,10,8,64.97876580012962,64.97876580012962,65.47932410007343,65.54592420021072,65.59627819992602,65.59627819992602,65.59627819992602,65.59627819992602,65.64613400027156,65.64613400027156,65.64613400027156,65.64613400027156,65.64613400027156,65.64613400027156,65.64613400027156,65.64613400027156,65.64613400027156,left,0.5419212002307177,66.21331770019606,66.21331770019606,None,,2,001,2025-12-16_13h00.36.463,2025C_exp1_comp,2022.2.4,59.77715086618489,
42.7,315,1,1,0,11,11,71,66.21331770019606,66.21331770019606,66.71367780026048,66.78059130022302,66.83075600024313,66.83075600024313,66.83075600024313,66.83075600024313,66.88058080011979,66.88058080011979,66.88058080011979,66.88058080011979,66.88058080011979,66.88058080011979,66.88058080011979,66.88058080011979,66.88058080011979,right,0.41916629998013377,67.331111300271,67.331111300271,None,,2,001,2025-12-16_13h00.36.463,2025C_exp1_comp,2022.2.4,59.77715086618489,
29.4,315,1,0,0,12,12,32,67.331111300271,67.331111300271,67.83163309982046,67.89824530016631,67.94864280009642,67.94864280009642,67.94864280009642,67.94864280009642,67.9984547002241,67.9984547002241,67.9984547002241,67.9984547002241,67.9984547002241,67.9984547002241,67.9984547002241,67.9984547002241,67.9984547002241,left,0.46894320007413626,68.49900730000809,68.49900730000809,None,,2,001,2025-12-16_13h00.36.463,2025C_exp1_comp,2022.2.4,59.77715086618489,
35.3,45,1,-1,0,13,13,96,68.49900730000809,68.49900730000809,68.99959489982575,69.06622860021889,69.11653200024739,69.11653200024739,69.11653200024739,69.11653200024739,69.16639389982447,69.16639389982447,69.16639389982447,69.16639389982447,69.16639389982447,69.16639389982447,69.16639389982447,69.16639389982447,69.16639389982447,right,0.5407735002227128,69.73335380014032,69.73335380014032,None,,2,001,2025-12-16_13h00.36.463,2025C_exp1_comp,2022.2.4,59.77715086618489,
25.5,315,-1,0,0,14,14,13,69.73335380014032,69.73335380014032,70.23413500003517,70.30070760007948,70.35106479981914,70.35106479981914,70.35106479981914,70.35106479981914,70.40074450010434,70.40074450010434,70.40074450010434,70.40074450010434,70.40074450010434,70.40074450010434,70.40074450010434,70.40074450010434,70.40074450010434,right,0.48227700032293797,70.90107969986275,70.90107969986275,None,,2,001,2025-12-16_13h00.36.463,2025C_exp1_comp,2022.2.4,59.77715086618489,
25.5,45,-1,-1,0,15,15,76,70.90107969986275,70.90107969986275,71.40197570016608,71.46862060017884,71.51892960024998,71.51892960024998,71.51892960024998,71.51892960024998,71.56856659986079,71.56856659986079,71.56856659986079,71.56856659986079,71.56856659986079,71.56856659986079,71.56856659986079,71.56856659986079,71.56856659986079,left,0.523568999953568,72.11922900006175,72.11922900006175,None,,2,001,2025-12-16_13h00.36.463,2025C_exp1_comp,2022.2.4,59.77715086618489,
42.7,315,-1,0,0,16,16,17,72.11922900006175,72.11922900006175,72.61983400024474,72.68650009995326,72.7367973998189,72.7367973998189,72.7367973998189,72.7367973998189,72.78638050006703,72.78638050006703,72.78638050006703,72.78638050006703,72.78638050006703,72.78638050006703,72.78638050006703,72.78638050006703,72.78638050006703,right,0.5050043002702296,73.3201108998619,73.3201108998619,None,,2,001,2025-12-16_13h00.36.463,2025C_exp1_comp,2022.2.4,59.77715086618489,
15.7,45,-1,-1,0,17,17,73,73.3201108998619,73.3201108998619,73.82093260018155,73.88766400003806,73.93791719991714,73.93791719991714,73.93791719991714,73.93791719991714,73.98775919992477,73.98775919992477,73.98775919992477,73.98775919992477,73.98775919992477,73.98775919992477,73.98775919992477,73.98775919992477,73.98775919992477,right,0.5517707001417875,74.57150149997324,74.57150149997324,None,,2,001,2025-12-16_13h00.36.463,2025C_exp1_comp,2022.2.4,59.77715086618489,
25.5,315,-1,1,0,18,18,49,74.57150149997324,74.57150149997324,75.07219820003957,75.13915150007233,75.18943340005353,75.18943340005353,75.18943340005353,75.18943340005353,75.23915180005133,75.23915180005133,75.23915180005133,75.23915180005133,75.23915180005133,75.23915180005133,75.23915180005133,75.23915180005133,75.23915180005133,right,0.39746049977838993,75.65625280002132,75.65625280002132,None,,2,001,2025-12-16_13h00.36.463,2025C_exp1_comp,2022.2.4,59.77715086618489,
19.6,45,-1,-1,0,19,19,74,75.65625280002132,75.65625280002132,76.1567667000927,76.22340680006891,76.27348949993029,76.27348949993029,76.27348949993029,76.27348949993029,76.32333240006119,76.32333240006119,76.32333240006119,76.32333240006119,76.32333240006119,76.32333240006119,76.32333240006119,76.32333240006119,76.32333240006119,right,0.6002616002224386,76.94068170012906,76.94068170012906,None,,2,001,2025-12-16_13h00.36.463,2025C_exp1_comp,2022.2.4,59.77715086618489,
29.4,45,-1,1,0,20,20,41,76.94068170012906,76.94068170012906,77.44122970011085,77.50786289991811,77.55818649986759,77.55818649986759,77.55818649986759,77.55818649986759,77.60804380010813,77.60804380010813,77.60804380010813,77.60804380010813,77.60804380010813,77.60804380010813,77.60804380010813,77.60804380010813,77.60804380010813,right,0.8349449997767806,78.47539940010756,78.47539940010756,None,,2,001,2025-12-16_13h00.36.463,2025C_exp1_comp,2022.2.4,59.77715086618489,
35.3,45,-1,-1,0,21,21,78,78.47539940010756,78.47539940010756,78.97608380019665,79.0429557999596,79.09322920022532,79.09322920022532,79.09322920022532,79.09322920022532,79.142617800273,79.142617800273,79.142617800273,79.142617800273,79.142617800273,79.142617800273,79.142617800273,79.142617800273,79.142617800273,right,0.7245427002198994,79.8935684999451,79.8935684999451,None,,2,001,2025-12-16_13h00.36.463,2025C_exp1_comp,2022.2.4,59.77715086618489,
22.7,315,1,-1,0,22,22,102,79.8935684999451,79.8935684999451,80.39418350020424,80.46080220025033,80.51116520026699,80.51116520026699,80.51116520026699,80.51116520026699,80.5608673999086,80.5608673999086,80.5608673999086,80.5608673999086,80.5608673999086,80.5608673999086,80.5608673999086,80.5608673999086,80.5608673999086,right,0.6901734001003206,81.27829209994525,81.27829209994525,None,,2,001,2025-12-16_13h00.36.463,2025C_exp1_comp,2022.2.4,59.77715086618489,
19.6,45,-1,1,0,23,23,38,81.27829209994525,81.27829209994525,81.77892880002037,81.84566170023754,81.8958625998348,81.8958625998348,81.8958625998348,81.8958625998348,81.94573639985174,81.94573639985174,81.94573639985174,81.94573639985174,81.94573639985174,81.94573639985174,81.94573639985174,81.94573639985174,81.94573639985174,right,0.4986572000198066,82.46288280002773,82.46288280002773,None,,2,001,2025-12-16_13h00.36.463,2025C_exp1_comp,2022.2.4,59.77715086618489,
19.6,315,-1,0,0,24,24,11,82.46288280002773,82.46288280002773,82.96349869994447,83.03017550008371,83.080442099832,83.080442099832,83.080442099832,83.080442099832,83.13024500012398,83.13024500012398,83.13024500012398,83.13024500012398,83.13024500012398,83.13024500012398,83.13024500012398,83.13024500012398,83.13024500012398,right,0.5217233998700976,83.68062990019098,83.68062990019098,None,,2,001,2025-12-16_13h00.36.463,2025C_exp1_comp,2022.2.4,59.77715086618489,
42.7,45,-1,1,0,25,25,44,83.68062990019098,83.68062990019098,84.18143460014835,84.24804220022634,84.29832349997014,84.29832349997014,84.29832349997014,84.29832349997014,84.34792259987444,84.34792259987444,84.34792259987444,84.34792259987444,84.34792259987444,84.34792259987444,84.34792259987444,84.34792259987444,84.34792259987444,right,0.5117791001684964,84.8818397000432,84.8818397000432,None,,2,001,2025-12-16_13h00.36.463,2025C_exp1_comp,2022.2.4,59.77715086618489,
22.7,45,-1,0,0,26,26,3,84.8818397000432,84.8818397000432,85.38219679985195,85.44921500002965,85.49950119992718,85.49950119992718,85.49950119992718,85.49950119992718,85.54916669987142,85.54916669987142,85.54916669987142,85.54916669987142,85.54916669987142,85.54916669987142,85.54916669987142,85.54916669987142,85.54916669987142,right,0.471155300270766,86.0498584001325,86.0498584001325,None,,2,001,2025-12-16_13h00.36.463,2025C_exp1_comp,2022.2.4,59.77715086618489,
42.7,315,1,-1,0,27,27,107,86.0498584001325,86.0498584001325,86.5503827999346,86.61697060009465,86.66726410016418,86.66726410016418,86.66726410016418,86.66726410016418,86.71695609996095,86.71695609996095,86.71695609996095,86.71695609996095,86.71695609996095,86.71695609996095,86.71695609996095,86.71695609996095,86.71695609996095,right,0.4952254998497665,87.23426519986242,87.23426519986242,None,,2,001,2025-12-16_13h00.36.463,2025C_exp1_comp,2022.2.4,59.77715086618489,
12.1,315,1,-1,0,28,28,99,87.23426519986242,87.23426519986242,87.734844900202,87.80156120005995,87.8518078001216,87.8518078001216,87.8518078001216,87.8518078001216,87.90166380023584,87.90166380023584,87.90166380023584,87.90166380023584,87.90166380023584,87.90166380023584,87.90166380023584,87.90166380023584,87.90166380023584,left,0.5827525001950562,88.50256429985166,88.50256429985166,None,,2,001,2025-12-16_13h00.36.463,2025C_exp1_comp,2022.2.4,59.77715086618489,
39.2,45,1,1,0,29,29,61,88.50256429985166,88.50256429985166,89.00279900012538,89.06945089995861,89.11990710021928,89.11990710021928,89.11990710021928,89.11990710021928,89.16973139997572,89.16973139997572,89.16973139997572,89.16973139997572,89.16973139997572,89.16973139997572,89.16973139997572,89.16973139997572,89.16973139997572,right,0.5134208002127707,89.70313110016286,89.70313110016286,None,,2,001,2025-12-16_13h00.36.463,2025C_exp1_comp,2022.2.4,59.77715086618489,
35.3,45,1,1,0,30,30,60,89.70313110016286,89.70313110016286,90.20406999997795,90.27069910010323,90.32107149995863,90.32107149995863,90.32107149995863,90.32107149995863,90.37080070003867,90.37080070003867,90.37080070003867,90.37080070003867,90.37080070003867,90.37080070003867,90.37080070003867,90.37080070003867,90.37080070003867,right,0.43230529967695475,90.8212407999672,90.8212407999672,None,,2,001,2025-12-16_13h00.36.463,2025C_exp1_comp,2022.2.4,59.77715086618489,
35.3,315,-1,0,0,31,31,15,90.8212407999672,90.8212407999672,91.32176920026541,91.38837679987773,91.4387981002219,91.4387981002219,91.4387981002219,91.4387981002219,91.48856500023976,91.48856500023976,91.48856500023976,91.48856500023976,91.48856500023976,91.48856500023976,91.48856500023976,91.48856500023976,91.48856500023976,right,0.41856420040130615,91.939092699904,91.939092699904,None,,2,001,2025-12-16_13h00.36.463,2025C_exp1_comp,2022.2.4,59.77715086618489,
12.1,315,-1,0,0,32,32,9,91.939092699904,91.939092699904,92.43954430008307,92.5061782002449,92.5566360000521,92.5566360000521,92.5566360000521,92.5566360000521,92.60640399996191,92.60640399996191,92.60640399996191,92.60640399996191,92.60640399996191,92.60640399996191,92.60640399996191,92.60640399996191,92.60640399996191,right,0.38195120031014085,93.00678479997441,93.00678479997441,None,,2,001,2025-12-16_13h00.36.463,2025C_exp1_comp,2022.2.4,59.77715086618489,
15.7,315,-1,1,0,33,33,46,93.00678479997441,93.00678479997441,93.50743150012568,93.57407510001212,93.6242992002517,93.6242992002517,93.6242992002517,93.6242992002517,93.67386629991233,93.67386629991233,93.67386629991233,93.67386629991233,93.67386629991233,93.67386629991233,93.67386629991233,93.67386629991233,93.67386629991233,right,0.369414699729532,94.07454290008172,94.07454290008172,None,,2,001,2025-12-16_13h00.36.463,2025C_exp1_comp,2022.2.4,59.77715086618489,
12.1,315,-1,-1,0,34,34,81,94.07454290008172,94.07454290008172,94.57515490008518,94.64185999985784,94.69216160010546,94.69216160010546,94.69216160010546,94.69216160010546,94.7418507002294,94.7418507002294,94.7418507002294,94.7418507002294,94.7418507002294,94.7418507002294,94.7418507002294,94.7418507002294,94.7418507002294,right,0.3741142004728317,95.14207790000364,95.14207790000364,None,,2,001,2025-12-16_13h00.36.463,2025C_exp1_comp,2022.2.4,59.77715086618489,
19.6,315,1,1,0,35,35,65,95.14207790000364,95.14207790000364,95.64275259990245,95.70944829983637,95.75946049997583,95.75946049997583,95.75946049997583,95.75946049997583,95.80954129993916,95.80954129993916,95.80954129993916,95.80954129993916,95.80954129993916,95.80954129993916,95.80954129993916,95.80954129993916,95.80954129993916,left,0.48216640017926693,96.31022810004652,96.31022810004652,None,,2,001,2025-12-16_13h00.36.463,2025C_exp1_comp,2022.2.4,59.77715086618489,
22.7,315,-1,-1,0,36,36,84,96.31022810004652,96.31022810004652,96.81075049983338,96.8773503000848,96.92763980012387,96.92763980012387,96.92763980012387,96.92763980012387,96.9772246000357,96.9772246000357,96.9772246000357,96.9772246000357,96.9772246000357,96.9772246000357,96.9772246000357,96.9772246000357,96.9772246000357,right,0.4419879000633955,97.44449440017343,97.44449440017343,None,,2,001,2025-12-16_13h00.36.463,2025C_exp1_comp,2022.2.4,59.77715086618489,
39.2,315,1,1,0,37,37,70,97.44449440017343,97.44449440017343,97.94518070016056,98.01191159989685,98.06219620024785,98.06219620024785,98.06219620024785,98.06219620024785,98.11173480004072,98.11173480004072,98.11173480004072,98.11173480004072,98.11173480004072,98.11173480004072,98.11173480004072,98.11173480004072,98.11173480004072,right,0.37220630003139377,98.51225750008598,98.51225750008598,None,,2,001,2025-12-16_13h00.36.463,2025C_exp1_comp,2022.2.4,59.77715086618489,
35.3,315,1,-1,0,38,38,105,98.51225750008598,98.51225750008598,99.01254530018196,99.07942590024322,99.12963869981468,99.12963869981468,99.12963869981468,99.12963869981468,99.179571100045,99.179571100045,99.179571100045,99.179571100045,99.179571100045,99.179571100045,99.179571100045,99.179571100045,99.179571100045,right,0.5436187000013888,99.746828999836,99.746828999836,None,,2,001,2025-12-16_13h00.36.463,2025C_exp1_comp,2022.2.4,59.77715086618489,
22.7,45,1,0,0,39,39,21,99.746828999836,99.746828999836,100.24733179993927,100.31401430023834,100.36430180026218,100.36430180026218,100.36430180026218,100.36430180026218,100.41401730012149,100.41401730012149,100.41401730012149,100.41401730012149,100.41401730012149,100.41401730012149,100.41401730012149,100.41401730012149,100.41401730012149,right,0.8621721002273262,101.3047905000858,101.3047905000858,None,,2,001,2025-12-16_13h00.36.463,2025C_exp1_comp,2022.2.4,59.77715086618489,
25.5,45,-1,0,0,40,40,4,101.3047905000858,101.3047905000858,101.79902110015973,101.86575039988384,101.91605630004779,101.91605630004779,101.91605630004779,101.91605630004779,101.9653949001804,101.9653949001804,101.9653949001804,101.9653949001804,101.9653949001804,101.9653949001804,101.98211240023375,101.98211240023375,101.98211240023375,right,0.38213530043140054,102.38286500005051,102.38286500005051,None,,2,001,2025-12-16_13h00.36.463,2025C_exp1_comp,2022.2.4,59.77715086618489,
19.6,45,1,0,0,41,41,20,102.38286500005051,102.38286500005051,102.88331620022655,102.95003340020776,103.00024620024487,103.00024620024487,103.00024620024487,103.00024620024487,103.05010929983109,103.05010929983109,103.05010929983109,103.05010929983109,103.05010929983109,103.05010929983109,103.05010929983109,103.05010929983109,103.05010929983109,left,0.44944720016792417,103.51723180012777,103.51723180012777,None,,2,001,2025-12-16_13h00.36.463,2025C_exp1_comp,2022.2.4,59.77715086618489,
42.7,315,-1,-1,0,42,42,89,103.51723180012777,103.51723180012777,104.01749779982492,104.08448470011353,104.13476550020278,104.13476550020278,104.13476550020278,104.13476550020278,104.18461829982698,104.18461829982698,104.18461829982698,104.18461829982698,104.18461829982698,104.18461829982698,104.18461829982698,104.18461829982698,104.18461829982698,right,0.5550036001950502,104.76849769987166,104.76849769987166,None,,2,001,2025-12-16_13h00.36.463,2025C_exp1_comp,2022.2.4,59.77715086618489,
19.6,315,-1,-1,0,43,43,83,104.76849769987166,104.76849769987166,105.26901490008458,105.33579869987443,105.38615070004016,105.38615070004016,105.38615070004016,105.38615070004016,105.43586990004405,105.43586990004405,105.43586990004405,105.43586990004405,105.43586990004405,105.43586990004405,105.43586990004405,105.43586990004405,105.43586990004405,right,0.3840939002111554,105.83630830002949,105.83630830002949,None,,2,001,2025-12-16_13h00.36.463,2025C_exp1_comp,2022.2.4,59.77715086618489,
35.3,315,-1,-1,0,44,44,87,105.83630830002949,105.83630830002949,106.33652220014483,106.4032263001427,106.4541325001046,106.4541325001046,106.4541325001046,106.4541325001046,106.50338630005717,106.50338630005717,106.50338630005717,106.50338630005717,106.50338630005717,106.50338630005717,106.50338630005717,106.50338630005717,106.50338630005717,right,0.40371849993243814,106.93705340009183,106.93705340009183,None,,2,001,2025-12-16_13h00.36.463,2025C_exp1_comp,2022.2.4,59.77715086618489,
15.7,315,1,1,0,45,45,64,106.93705340009183,106.93705340009183,107.4376015001908,107.50429059984162,107.55461819982156,107.55461819982156,107.55461819982156,107.55461819982156,107.60521969990805,107.60521969990805,107.60521969990805,107.60521969990805,107.60521969990805,107.60521969990805,107.60521969990805,107.60521969990805,107.60521969990805,left,0.37377909990027547,108.00481150019914,108.00481150019914,None,,2,001,2025-12-16_13h00.36.463,2025C_exp1_comp,2022.2.4,59.77715086618489,
25.5,315,1,-1,0,46,46,103,108.00481150019914,108.00481150019914,108.50533670000732,108.57203610008582,108.62243890017271,108.62243890017271,108.62243890017271,108.62243890017271,108.67213639989495,108.67213639989495,108.67213639989495,108.67213639989495,108.67213639989495,108.67213639989495,108.67213639989495,108.67213639989495,108.67213639989495,left,0.4754003002308309,109.17264300026,109.17264300026,None,,2,001,2025-12-16_13h00.36.463,2025C_exp1_comp,2022.2.4,59.77715086618489,
25.5,45,1,1,0,47,47,58,109.17264300026,109.17264300026,109.67312890011817,109.73986069997773,109.79017690010369,109.79017690010369,109.79017690010369,109.79017690010369,109.8399967001751,109.8399967001751,109.8399967001751,109.8399967001751,109.8399967001751,109.8399967001751,109.8399967001751,109.8399967001751,109.8399967001751,left,0.4917819001711905,110.35716059990227,110.35716059990227,None,,2,001,2025-12-16_13h00.36.463,2025C_exp1_comp,2022.2.4,59.77715086618489,
39.2,45,1,0,0,48,48,25,110.35716059990227,110.35716059990227,110.85767039982602,110.92440629983321,110.97472209995613,110.97472209995613,110.97472209995613,110.97472209995613,111.0244932002388,111.0244932002388,111.0244932002388,111.0244932002388,111.0244932002388,111.0244932002388,111.0244932002388,111.0244932002388,111.0244932002388,left,0.5146659002639353,111.55835050018504,111.55835050018504,None,,2,001,2025-12-16_13h00.36.463,2025C_exp1_comp,2022.2.4,59.77715086618489,
15.7,45,-1,1,0,49,49,37,111.55835050018504,111.55835050018504,112.05889020022005,112.1255827001296,112.17597910016775,112.17597910016775,112.17597910016775,112.17597910016775,112.22569580003619,112.22569580003619,112.22569580003619,112.22569580003619,112.22569580003619,112.22569580003619,112.22569580003619,112.22569580003619,112.22569580003619,right,0.297921699937433,112.54280570009723,112.54280570009723,None,,2,001,2025-12-16_13h00.36.463,2025C_exp1_comp,2022.2.4,59.77715086618489,
12.1,45,1,-1,0,50,50,90,112.54280570009723,112.54280570009723,113.04347989987582,113.1102868001908,113.16062480024993,113.16062480024993,113.16062480024993,113.16062480024993,113.21040070010349,113.21040070010349,113.21040070010349,113.21040070010349,113.21040070010349,113.21040070010349,113.21040070010349,113.21040070010349,113.21040070010349,left,0.3379255998879671,113.57729700021446,113.57729700021446,None,,2,001,2025-12-16_13h00.36.463,2025C_exp1_comp,2022.2.4,59.77715086618489,
29.4,315,-1,1,0,51,51,50,113.57729700021446,113.57729700021446,114.0778655000031,114.14464979991317,114.19492099992931,114.19492099992931,114.19492099992931,114.19492099992931,114.24468939984217,114.24468939984217,114.24468939984217,114.24468939984217,114.24468939984217,114.24468939984217,114.24468939984217,114.24468939984217,114.24468939984217,left,0.35953349992632866,114.62857409985736,114.62857409985736,None,,2,001,2025-12-16_13h00.36.463,2025C_exp1_comp,2022.2.4,59.77715086618489,
12.1,45,1,1,0,52,52,54,114.62857409985736,114.62857409985736,115.12892059981823,115.19557520002127,115.24596370011568,115.24596370011568,115.24596370011568,115.24596370011568,115.29553500004113,115.29553500004113,115.29553500004113,115.29553500004113,115.29553500004113,115.29553500004113,115.29553500004113,115.29553500004113,115.29553500004113,left,0.39543749997392297,115.71251800004393,115.71251800004393,None,,2,001,2025-12-16_13h00.36.463,2025C_exp1_comp,2022.2.4,59.77715086618489,
39.2,315,-1,1,0,53,53,52,115.71251800004393,115.71251800004393,116.21300620026886,116.27968720020726,116.32999260025099,116.32999260025099,116.32999260025099,116.32999260025099,116.37978539988399,116.37978539988399,116.37978539988399,116.37978539988399,116.37978539988399,116.37978539988399,116.37978539988399,116.37978539988399,116.37978539988399,left,0.5035017002373934,116.91400470025837,116.91400470025837,None,,2,001,2025-12-16_13h00.36.463,2025C_exp1_comp,2022.2.4,59.77715086618489,
19.6,45,1,1,0,54,54,56,116.91400470025837,116.91400470025837,117.4146682000719,117.4812261001207,117.53157250024378,117.53157250024378,117.53157250024378,117.53157250024378,117.5813116999343,117.5813116999343,117.5813116999343,117.5813116999343,117.5813116999343,117.5813116999343,117.5813116999343,117.5813116999343,117.5813116999343,left,0.36676080012694,117.96510750008747,117.96510750008747,None,,2,001,2025-12-16_13h00.36.463,2025C_exp1_comp,2022.2.4,59.77715086618489,
29.4,315,1,-1,0,55,55,104,117.96510750008747,117.96510750008747,118.46547489985824,118.53199730021879,118.58258489985019,118.58258489985019,118.58258489985019,118.58258489985019,118.63239239994437,118.63239239994437,118.63239239994437,118.63239239994437,118.63239239994437,118.63239239994437,118.63239239994437,118.63239239994437,118.63239239994437,left,0.38806110015138984,119.04945260006934,119.04945260006934,None,,2,001,2025-12-16_13h00.36.463,2025C_exp1_comp,2022.2.4,59.77715086618489,
19.6,315,-1,1,0,56,56,47,119.04945260006934,119.04945260006934,119.54998240014538,119.61660340009257,119.66697939997539,119.66697939997539,119.66697939997539,119.66697939997539,119.71678879996762,119.71678879996762,119.71678879996762,119.71678879996762,119.71678879996762,119.71678879996762,119.71678879996762,119.71678879996762,119.71678879996762,right,0.3510706005617976,120.10034930007532,120.10034930007532,None,,2,001,2025-12-16_13h00.36.463,2025C_exp1_comp,2022.2.4,59.77715086618489,
12.1,315,1,0,0,57,57,27,120.10034930007532,120.10034930007532,120.60072749992833,120.667733900249,120.71813730010763,120.71813730010763,120.71813730010763,120.71813730010763,120.76797690009698,120.76797690009698,120.76797690009698,120.76797690009698,120.76797690009698,120.76797690009698,120.76797690009698,120.76797690009698,120.76797690009698,left,0.3806118001230061,121.16835580021143,121.16835580021143,None,,2,001,2025-12-16_13h00.36.463,2025C_exp1_comp,2022.2.4,59.77715086618489,
22.7,45,-1,1,0,58,58,39,121.16835580021143,121.16835580021143,121.66864129994065,121.73545379983261,121.78579979995266,121.78579979995266,121.78579979995266,121.78579979995266,121.83559150015935,121.83559150015935,121.83559150015935,121.83559150015935,121.83559150015935,121.83559150015935,121.83559150015935,121.83559150015935,121.83559150015935,right,0.3436886998824775,122.20263969991356,122.20263969991356,None,,2,001,2025-12-16_13h00.36.463,2025C_exp1_comp,2022.2.4,59.77715086618489,
12.1,45,-1,1,0,59,59,36,122.20263969991356,122.20263969991356,122.70285779982805,122.76987370010465,122.8202398000285,122.8202398000285,122.8202398000285,122.8202398000285,122.86988139990717,122.86988139990717,122.86988139990717,122.86988139990717,122.86988139990717,122.86988139990717,122.86988139990717,122.86988139990717,122.86988139990717,right,0.34202650003135204,123.23704259982333,123.23704259982333,None,,2,001,2025-12-16_13h00.36.463,2025C_exp1_comp,2022.2.4,59.77715086618489,
39.2,45,-1,0,0,60,60,7,123.23704259982333,123.23704259982333,123.73754190001637,123.80419549997896,123.85459889983758,123.85459889983758,123.85459889983758,123.85459889983758,123.90438049985096,123.90438049985096,123.90438049985096,123.90438049985096,123.90438049985096,123.90438049985096,123.90438049985096,123.90438049985096,123.90438049985096,left,0.4190953001379967,124.35484120016918,124.35484120016918,None,,2,001,2025-12-16_13h00.36.463,2025C_exp1_comp,2022.2.4,59.77715086618489,
22.7,315,1,1,0,61,61,66,124.35484120016918,124.35484120016918,124.85551019990817,124.92218360025436,124.97256090026349,124.97256090026349,124.97256090026349,124.97256090026349,125.02237439993769,125.02237439993769,125.02237439993769,125.02237439993769,125.02237439993769,125.02237439993769,125.02237439993769,125.02237439993769,125.02237439993769,left,0.3886340004391968,125.4393394999206,125.4393394999206,None,,2,001,2025-12-16_13h00.36.463,2025C_exp1_comp,2022.2.4,59.77715086618489,
35.3,315,-1,1,0,62,62,51,125.4393394999206,125.4393394999206,125.9396116998978,126.00644619995728,126.0567227001302,126.0567227001302,126.0567227001302,126.0567227001302,126.1064603002742,126.1064603002742,126.1064603002742,126.1064603002742,126.1064603002742,126.1064603002742,126.1064603002742,126.1064603002742,126.1064603002742,right,0.38512090034782887,126.5236177998595,126.5236177998595,None,,2,001,2025-12-16_13h00.36.463,2025C_exp1_comp,2022.2.4,59.77715086618489,
29.4,45,1,1,0,63,63,59,126.5236177998595,126.5236177998595,127.02424089983106,127.09084940003231,127.14124270016328,127.14124270016328,127.14124270016328,127.14124270016328,127.19104989990592,127.19104989990592,127.19104989990592,127.19104989990592,127.19104989990592,127.19104989990592,127.19104989990592,127.19104989990592,127.19104989990592,left,0.37206869991496205,127.59129709983245,127.59129709983245,None,,2,001,2025-12-16_13h00.36.463,2025C_exp1_comp,2022.2.4,59.77715086618489,
42.7,45,1,-1,0,64,64,98,127.59129709983245,127.59129709983245,128.09183359984308,128.15856370003894,128.2087130001746,128.2087130001746,128.2087130001746,128.2087130001746,128.25854140007868,128.25854140007868,128.25854140007868,128.25854140007868,128.25854140007868,128.25854140007868,128.25854140007868,128.25854140007868,128.25854140007868,left,0.3616956998594105,128.6423762999475,128.6423762999475,None,,2,001,2025-12-16_13h00.36.463,2025C_exp1_comp,2022.2.4,59.77715086618489,
29.4,315,-1,-1,0,65,65,86,128.6423762999475,128.6423762999475,129.14290020009503,129.20964530017227,129.25989540014416,129.25989540014416,129.25989540014416,129.25989540014416,129.30958430003375,129.30958430003375,129.30958430003375,129.30958430003375,129.30958430003375,129.30958430003375,129.30958430003375,129.30958430003375,129.30958430003375,left,0.3904562001116574,129.7266699001193,129.7266699001193,None,,2,001,2025-12-16_13h00.36.463,2025C_exp1_comp,2022.2.4,59.77715086618489,
15.7,45,1,0,0,66,66,19,129.7266699001193,129.7266699001193,130.22704540006816,130.29405699996278,130.34436979983002,130.34436979983002,130.34436979983002,130.34436979983002,130.39420690014958,130.39420690014958,130.39420690014958,130.39420690014958,130.39420690014958,130.39420690014958,130.39420690014958,130.39420690014958,130.39420690014958,left,0.3941909004934132,130.8112729000859,130.8112729000859,None,,2,001,2025-12-16_13h00.36.463,2025C_exp1_comp,2022.2.4,59.77715086618489,
12.1,45,-1,-1,0,67,67,72,130.8112729000859,130.8112729000859,131.31167360022664,131.37842949992046,131.42869229987264,131.42869229987264,131.42869229987264,131.42869229987264,131.47861350001767,131.47861350001767,131.47861350001767,131.47861350001767,131.47861350001767,131.47861350001767,131.47861350001767,131.47861350001767,131.47861350001767,right,0.3165125004015863,131.8121568998322,131.8121568998322,None,,2,001,2025-12-16_13h00.36.463,2025C_exp1_comp,2022.2.4,59.77715086618489,
22.7,45,-1,-1,0,68,68,75,131.8121568998322,131.8121568998322,132.31269130017608,132.37942330027,132.42971870023757,132.42971870023757,132.42971870023757,132.42971870023757,132.47963210009038,132.47963210009038,132.47963210009038,132.47963210009038,132.47963210009038,132.47963210009038,132.47963210009038,132.47963210009038,132.47963210009038,right,0.3474937002174556,132.8466830002144,132.8466830002144,None,,2,001,2025-12-16_13h00.36.463,2025C_exp1_comp,2022.2.4,59.77715086618489,
39.2,45,-1,-1,0,69,69,79,132.8466830002144,132.8466830002144,133.34708780003712,133.41365930018947,133.46393600013107,133.46393600013107,133.46393600013107,133.46393600013107,133.5136780999601,133.5136780999601,133.5136780999601,133.5136780999601,133.5136780999601,133.5136780999601,133.5136780999601,133.5136780999601,133.5136780999601,left,0.46579249994829297,133.9976089000702,133.9976089000702,None,,2,001,2025-12-16_13h00.36.463,2025C_exp1_comp,2022.2.4,59.77715086618489,
15.7,315,-1,-1,0,70,70,82,133.9976089000702,133.9976089000702,134.4980930001475,134.5649665002711,134.61514589982107,134.61514589982107,134.61514589982107,134.61514589982107,134.665038399864,134.665038399864,134.665038399864,134.665038399864,134.665038399864,134.665038399864,134.665038399864,134.665038399864,134.665038399864,right,0.3461441001854837,135.03210519999266,135.03210519999266,None,,2,001,2025-12-16_13h00.36.463,2025C_exp1_comp,2022.2.4,59.77715086618489,
29.4,45,1,-1,0,71,71,95,135.03210519999266,135.03210519999266,135.53265960002318,135.59934740001336,135.6495964000933,135.6495964000933,135.6495964000933,135.6495964000933,135.69920080015436,135.69920080015436,135.69920080015436,135.69920080015436,135.69920080015436,135.69920080015436,135.69920080015436,135.69920080015436,135.69920080015436,right,0.38465020013973117,136.11656250013039,136.11656250013039,None,,2,001,2025-12-16_13h00.36.463,2025C_exp1_comp,2022.2.4,59.77715086618489,
39.2,315,1,0,0,72,72,34,136.11656250013039,136.11656250013039,136.6171029000543,136.683827099856,136.73397130006924,136.73397130006924,136.73397130006924,136.73397130006924,136.7838983000256,136.7838983000256,136.7838983000256,136.7838983000256,136.7838983000256,136.7838983000256,136.7838983000256,136.7838983000256,136.7838983000256,right,0.25166539987549186,137.06728429999202,137.06728429999202,None,,2,001,2025-12-16_13h00.36.463,2025C_exp1_comp,2022.2.4,59.77715086618489,
29.4,315,-1,0,0,73,73,14,137.06728429999202,137.06728429999202,137.56794979982078,137.63481940003112,137.68501920020208,137.68501920020208,137.68501920020208,137.68501920020208,137.7344936002046,137.7344936002046,137.7344936002046,137.7344936002046,137.7344936002046,137.7344936002046,137.7344936002046,137.7344936002046,137.7344936002046,left,0.21314720017835498,137.96841350011528,137.96841350011528,None,,2,001,2025-12-16_13h00.36.463,2025C_exp1_comp,2022.2.4,59.77715086618489,
25.5,45,1,-1,0,74,74,94,137.96841350011528,137.96841350011528,138.46890440024436,138.53558429982513,138.5858418000862,138.5858418000862,138.5858418000862,138.5858418000862,138.63556159986183,138.63556159986183,138.63556159986183,138.63556159986183,138.63556159986183,138.63556159986183,138.63556159986183,138.63556159986183,138.63556159986183,right,0.20848360005766153,138.86929180007428,138.86929180007428,None,,2,001,2025-12-16_13h00.36.463,2025C_exp1_comp,2022.2.4,59.77715086618489,
15.7,45,1,1,0,75,75,55,138.86929180007428,138.86929180007428,139.36954169999808,139.43640619982034,139.4867527000606,139.4867527000606,139.4867527000606,139.4867527000606,139.53648110013455,139.53648110013455,139.53648110013455,139.53648110013455,139.53648110013455,139.53648110013455,139.53648110013455,139.53648110013455,139.53648110013455,left,0.15482839988544583,139.72016149992123,139.72016149992123,None,,2,001,2025-12-16_13h00.36.463,2025C_exp1_comp,2022.2.4,59.77715086618489,
19.6,45,-1,0,0,76,76,2,139.72016149992123,139.72016149992123,140.22052690014243,140.28714320017025,140.33773870021105,140.33773870021105,140.33773870021105,140.33773870021105,140.38728599995375,140.38728599995375,140.38728599995375,140.38728599995375,140.38728599995375,140.38728599995375,140.38728599995375,140.38728599995375,140.38728599995375,right,0.2729535000398755,140.68765529990196,140.68765529990196,None,,2,001,2025-12-16_13h00.36.463,2025C_exp1_comp,2022.2.4,59.77715086618489,
35.3,45,1,0,0,77,77,24,140.68765529990196,140.68765529990196,141.18826910015196,141.25498969992623,141.305180599913,141.305180599913,141.305180599913,141.305180599913,141.35507459985092,141.35507459985092,141.35507459985092,141.35507459985092,141.35507459985092,141.35507459985092,141.35507459985092,141.35507459985092,141.35507459985092,left,0.3447362999431789,141.72223159996793,141.72223159996793,None,,2,001,2025-12-16_13h00.36.463,2025C_exp1_comp,2022.2.4,59.77715086618489,
12.1,315,-1,1,0,78,78,45,141.72223159996793,141.72223159996793,142.2226128000766,142.28937479993328,142.33965389989316,142.33965389989316,142.33965389989316,142.33965389989316,142.3894588998519,142.3894588998519,142.3894588998519,142.3894588998519,142.3894588998519,142.3894588998519,142.3894588998519,142.3894588998519,142.3894588998519,right,0.3982847002334893,142.8063328000717,142.8063328000717,None,,2,001,2025-12-16_13h00.36.463,2025C_exp1_comp,2022.2.4,59.77715086618489,
12.1,45,-1,0,0,79,79,0,142.8063328000717,142.8063328000717,143.30704100010917,143.3737602001056,143.42394400015473,143.42394400015473,143.42394400015473,143.42394400015473,143.47385600022972,143.47385600022972,143.47385600022972,143.47385600022972,143.47385600022972,143.47385600022972,143.47385600022972,143.47385600022972,143.47385600022972,right,0.31413740012794733,143.80752479983494,143.80752479983494,None,,2,001,2025-12-16_13h00.36.463,2025C_exp1_comp,2022.2.4,59.77715086618489,
15.7,315,1,0,0,80,80,28,143.80752479983494,143.80752479983494,144.30805630004033,144.37485700007528,144.4250884000212,144.4250884000212,144.4250884000212,144.4250884000212,144.47464240016416,144.47464240016416,144.47464240016416,144.47464240016416,144.47464240016416,144.47464240016416,144.47464240016416,144.47464240016416,144.47464240016416,left,0.46531250048428774,144.95871719997376,144.95871719997376,None,,2,001,2025-12-16_13h00.36.463,2025C_exp1_comp,2022.2.4,59.77715086618489,
22.7,315,1,0,0,81,81,30,144.95871719997376,144.95871719997376,145.45904699992388,145.52593100024387,145.57596720010042,145.57596720010042,145.57596720010042,145.57596720010042,145.6260653999634,145.6260653999634,145.6260653999634,145.6260653999634,145.6260653999634,145.6260653999634,145.6260653999634,145.6260653999634,145.6260653999634,left,0.5296339001506567,146.1764465002343,146.1764465002343,None,,2,001,2025-12-16_13h00.36.463,2025C_exp1_comp,2022.2.4,59.77715086618489,
35.3,315,1,1,0,82,82,69,146.1764465002343,146.1764465002343,146.67715159989893,146.74384550005198,146.79414319992065,146.79414319992065,146.79414319992065,146.79414319992065,146.84392789984122,146.84392789984122,146.84392789984122,146.84392789984122,146.84392789984122,146.84392789984122,146.84392789984122,146.84392789984122,146.84392789984122,left,0.4001978999003768,147.26101869996637,147.26101869996637,None,,2,001,2025-12-16_13h00.36.463,2025C_exp1_comp,2022.2.4,59.77715086618489,
39.2,315,1,-1,0,83,83,106,147.26101869996637,147.26101869996637,147.76139339990914,147.82850850000978,147.87882620003074,147.87882620003074,147.87882620003074,147.87882620003074,147.92848240025342,147.92848240025342,147.92848240025342,147.92848240025342,147.92848240025342,147.92848240025342,147.92848240025342,147.92848240025342,147.92848240025342,right,0.5552035002037883,148.51242570020258,148.51242570020258,None,,2,001,2025-12-16_13h00.36.463,2025C_exp1_comp,2022.2.4,59.77715086618489,
35.3,45,-1,0,0,84,84,6,148.51242570020258,148.51242570020258,149.01285309996456,149.07961020013317,149.12976490007713,149.12976490007713,149.12976490007713,149.12976490007713,149.17972340015694,149.17972340015694,149.17972340015694,149.17972340015694,149.17972340015694,149.17972340015694,149.17972340015694,149.17972340015694,149.17972340015694,left,0.44013300025835633,149.64638750022277,149.64638750022277,None,,2,001,2025-12-16_13h00.36.463,2025C_exp1_comp,2022.2.4,59.77715086618489,
29.4,45,1,0,0,85,85,23,149.64638750022277,149.64638750022277,150.14729329990223,150.2140092998743,150.26428639981896,150.26428639981896,150.26428639981896,150.26428639981896,150.31375120021403,150.31375120021403,150.31375120021403,150.31375120021403,150.31375120021403,150.31375120021403,150.31375120021403,150.31375120021403,150.31375120021403,left,0.4019758002832532,150.74785829987377,150.74785829987377,None,,2,001,2025-12-16_13h00.36.463,2025C_exp1_comp,2022.2.4,59.77715086618489,
42.7,45,1,1,0,86,86,62,150.74785829987377,150.74785829987377,151.2483339998871,151.31503369985148,151.36529490025714,151.36529490025714,151.36529490025714,151.36529490025714,151.41514720022678,151.41514720022678,151.41514720022678,151.41514720022678,151.41514720022678,151.41514720022678,151.41514720022678,151.41514720022678,151.41514720022678,right,0.4843524000607431,151.93218930019066,151.93218930019066,None,,2,001,2025-12-16_13h00.36.463,2025C_exp1_comp,2022.2.4,59.77715086618489,
25.5,315,1,0,0,87,87,31,151.93218930019066,151.93218930019066,152.43274840014055,152.49946979992092,152.54989420017228,152.54989420017228,152.54989420017228,152.54989420017228,152.59967580018565,152.59967580018565,152.59967580018565,152.59967580018565,152.59967580018565,152.59967580018565,152.59967580018565,152.59967580018565,152.59967580018565,left,0.4044908001087606,153.03326109983027,153.03326109983027,None,,2,001,2025-12-16_13h00.36.463,2025C_exp1_comp,2022.2.4,59.77715086618489,
42.7,315,-1,1,0,88,88,53,153.03326109983027,153.03326109983027,153.5340265999548,153.60081769991666,153.6509984000586,153.6509984000586,153.6509984000586,153.6509984000586,153.7005811999552,153.7005811999552,153.7005811999552,153.7005811999552,153.7005811999552,153.7005811999552,153.7005811999552,153.7005811999552,153.7005811999552,left,0.3344243001192808,154.06760670011863,154.06760670011863,None,,2,001,2025-12-16_13h00.36.463,2025C_exp1_comp,2022.2.4,59.77715086618489,
39.2,45,-1,1,0,89,89,43,154.06760670011863,154.06760670011863,154.5684336000122,154.63517560018227,154.6854127999395,154.6854127999395,154.6854127999395,154.6854127999395,154.73504539998248,154.73504539998248,154.73504539998248,154.73504539998248,154.73504539998248,154.73504539998248,154.73504539998248,154.73504539998248,154.73504539998248,left,0.4522350998595357,155.21880340017378,155.21880340017378,None,,2,001,2025-12-16_13h00.36.463,2025C_exp1_comp,2022.2.4,59.77715086618489,
15.7,315,1,-1,0,90,90,100,155.21880340017378,155.21880340017378,155.7195566999726,155.78606300009415,155.83654019981623,155.83654019981623,155.83654019981623,155.83654019981623,155.88628489989787,155.88628489989787,155.88628489989787,155.88628489989787,155.88628489989787,155.88628489989787,155.88628489989787,155.88628489989787,155.88628489989787,left,0.4294967004097998,156.3367062001489,156.3367062001489,None,,2,001,2025-12-16_13h00.36.463,2025C_exp1_comp,2022.2.4,59.77715086618489,
25.5,315,1,1,0,91,91,67,156.3367062001489,156.3367062001489,156.83725599991158,156.9039551001042,156.9542489000596,156.9542489000596,156.9542489000596,156.9542489000596,157.00410170014948,157.00410170014948,157.00410170014948,157.00410170014948,157.00410170014948,157.00410170014948,157.00410170014948,157.00410170014948,157.00410170014948,left,0.4963509002700448,157.52108100010082,157.52108100010082,None,,2,001,2025-12-16_13h00.36.463,2025C_exp1_comp,2022.2.4,59.77715086618489,
25.5,45,1,0,0,92,92,22,157.52108100010082,157.52108100010082,158.02178760012612,158.08821809990332,158.13847510004416,158.13847510004416,158.13847510004416,158.13847510004416,158.18849029997364,158.18849029997364,158.18849029997364,158.18849029997364,158.18849029997364,158.18849029997364,158.18849029997364,158.18849029997364,158.18849029997364,right,0.43074290035292506,158.63891329988837,158.63891329988837,None,,2,001,2025-12-16_13h00.36.463,2025C_exp1_comp,2022.2.4,59.77715086618489,
42.7,45,1,0,0,93,93,26,158.63891329988837,158.63891329988837,159.13959310017526,159.20627669990063,159.25657960027456,159.25657960027456,159.25657960027456,159.25657960027456,159.30628179991618,159.30628179991618,159.30628179991618,159.30628179991618,159.30628179991618,159.30628179991618,159.30628179991618,159.30628179991618,159.30628179991618,left,0.28197949985042214,159.606666599866,159.606666599866,None,,2,001,2025-12-16_13h00.36.463,2025C_exp1_comp,2022.2.4,59.77715086618489,
12.1,315,1,1,0,94,94,63,159.606666599866,159.606666599866,160.10706350021064,160.17416690010577,160.2242462001741,160.2242462001741,160.2242462001741,160.2242462001741,160.27398299984634,160.27398299984634,160.27398299984634,160.27398299984634,160.27398299984634,160.27398299984634,160.27398299984634,160.27398299984634,160.27398299984634,right,0.12101850006729364,160.42399720009416,160.42399720009416,None,,2,001,2025-12-16_13h00.36.463,2025C_exp1_comp,2022.2.4,59.77715086618489,
39.2,315,-1,-1,0,95,95,88,160.42399720009416,160.42399720009416,160.92465949989855,160.99135310016572,161.04168249992654,161.04168249992654,161.04168249992654,161.04168249992654,161.09147470025346,161.09147470025346,161.09147470025346,161.09147470025346,161.09147470025346,161.09147470025346,161.09147470025346,161.09147470025346,161.09147470025346,right,0.03232500050216913,161.14134680014104,161.14134680014104,None,,2,001,2025-12-16_13h00.36.463,2025C_exp1_comp,2022.2.4,59.77715086618489,
25.5,45,-1,1,0,96,96,40,161.14134680014104,161.14134680014104,161.64208870008588,161.7084566000849,161.75875890022144,161.75875890022144,161.75875890022144,161.75875890022144,161.80862849997357,161.80862849997357,161.80862849997357,161.80862849997357,161.80862849997357,161.80862849997357,161.80862849997357,161.80862849997357,161.80862849997357,left,0.09924010001122952,161.92537030018866,161.92537030018866,None,,2,001,2025-12-16_13h00.36.463,2025C_exp1_comp,2022.2.4,59.77715086618489,
22.7,315,-1,0,0,97,97,12,161.92537030018866,161.92537030018866,162.42629719991237,162.49303370015696,162.54333300003782,162.54333300003782,162.54333300003782,162.54333300003782,162.59303800016642,162.59303800016642,162.59303800016642,162.59303800016642,162.59303800016642,162.59303800016642,162.59303800016642,162.59303800016642,162.59303800016642,left,0.11530299996957183,162.72649340005592,162.72649340005592,None,,2,001,2025-12-16_13h00.36.463,2025C_exp1_comp,2022.2.4,59.77715086618489,
39.2,315,-1,0,0,98,98,16,162.72649340005592,162.72649340005592,163.22708370024338,163.29380490025505,163.34426929987967,163.34426929987967,163.34426929987967,163.34426929987967,163.39403370022774,163.39403370022774,163.39403370022774,163.39403370022774,163.39403370022774,163.39403370022774,163.39403370022774,163.39403370022774,163.39403370022774,left,0.3862373000010848,163.81092530023307,163.81092530023307,None,,2,001,2025-12-16_13h00.36.463,2025C_exp1_comp,2022.2.4,59.77715086618489,
15.7,45,-1,0,0,99,99,1,163.81092530023307,163.81092530023307,164.31105689983815,164.37823450006545,164.4283922999166,164.4283922999166,164.4283922999166,164.4283922999166,164.4782409002073,164.4782409002073,164.4782409002073,164.4782409002073,164.4782409002073,164.4782409002073,164.4782409002073,164.4782409002073,164.4782409002073,right,0.5339720002375543,165.02881200006232,165.02881200006232,None,,2,001,2025-12-16_13h00.36.463,2025C_exp1_comp,2022.2.4,59.77715086618489,
22.7,45,1,1,0,100,100,57,165.02881200006232,165.02881200006232,165.5293177999556,165.5960173001513,165.64634380023926,165.64634380023926,165.64634380023926,165.64634380023926,165.69612970016897,165.69612970016897,165.69612970016897,165.69612970016897,165.69612970016897,165.69612970016897,165.69612970016897,165.69612970016897,165.69612970016897,left,0.4028969001956284,166.1298882002011,166.1298882002011,None,,2,001,2025-12-16_13h00.36.463,2025C_exp1_comp,2022.2.4,59.77715086618489,
22.7,315,-1,1,0,101,101,48,166.1298882002011,166.1298882002011,166.63053329987451,166.69720289995894,166.74739179993048,166.74739179993048,166.74739179993048,166.74739179993048,166.79720150027424,166.79720150027424,166.79720150027424,166.79720150027424,166.79720150027424,166.79720150027424,166.79720150027424,166.79720150027424,166.79720150027424,left,0.44614919973537326,167.26418759999797,167.26418759999797,None,,2,001,2025-12-16_13h00.36.463,2025C_exp1_comp,2022.2.4,59.77715086618489,
15.7,45,1,-1,0,102,102,91,167.26418759999797,167.26418759999797,167.76482169982046,167.8315274999477,167.88170649996027,167.88170649996027,167.88170649996027,167.88170649996027,167.9315077001229,167.9315077001229,167.9315077001229,167.9315077001229,167.9315077001229,167.9315077001229,167.9315077001229,167.9315077001229,167.9315077001229,left,0.5116771999746561,168.465240099933,168.465240099933,None,,2,001,2025-12-16_13h00.36.463,2025C_exp1_comp,2022.2.4,59.77715086618489,
29.4,315,1,1,0,103,103,68,168.465240099933,168.465240099933,168.96631120005623,169.03304210025817,169.08334350027144,169.08334350027144,169.08334350027144,169.08334350027144,169.1330141001381,169.1330141001381,169.1330141001381,169.1330141001381,169.1330141001381,169.1330141001381,169.1330141001381,169.1330141001381,169.1330141001381,left,0.6789711001329124,169.83346319990233,169.83346319990233,None,,2,001,2025-12-16_13h00.36.463,2025C_exp1_comp,2022.2.4,59.77715086618489,
35.3,45,-1,1,0,104,104,42,169.83346319990233,169.83346319990233,170.33380849985406,170.40078529994935,170.4507361999713,170.4507361999713,170.4507361999713,170.4507361999713,170.5009801001288,170.5009801001288,170.5009801001288,170.5009801001288,170.5009801001288,170.5009801001288,170.5009801001288,170.5009801001288,170.5009801001288,left,0.4631611998192966,170.98486240021884,170.98486240021884,None,,2,001,2025-12-16_13h00.36.463,2025C_exp1_comp,2022.2.4,59.77715086618489,
19.6,315,1,-1,0,105,105,101,170.98486240021884,170.98486240021884,171.48550960002467,171.55222389986739,171.60251600015908,171.60251600015908,171.60251600015908,171.60251600015908,171.65231500007212,171.65231500007212,171.65231500007212,171.65231500007212,171.65231500007212,171.65231500007212,171.65231500007212,171.65231500007212,171.65231500007212,left,0.3753618001937866,172.05231969989836,172.05231969989836,None,,2,001,2025-12-16_13h00.36.463,2025C_exp1_comp,2022.2.4,59.77715086618489,
19.6,315,1,0,0,106,106,29,172.05231969989836,172.05231969989836,172.55315090017393,172.61947129992768,172.66995880007744,172.66995880007744,172.66995880007744,172.66995880007744,172.72003220021725,172.72003220021725,172.72003220021725,172.72003220021725,172.72003220021725,172.72003220021725,172.72003220021725,172.72003220021725,172.72003220021725,left,0.515809700358659,173.2536189001985,173.2536189001985,None,,2,001,2025-12-16_13h00.36.463,2025C_exp1_comp,2022.2.4,59.77715086618489,
35.3,315,1,0,0,107,107,33,173.2536189001985,173.2536189001985,173.75413809996098,173.82083560014144,173.87113540014252,173.87113540014252,173.87113540014252,173.87113540014252,173.92081669997424,173.92081669997424,173.92081669997424,173.92081669997424,173.92081669997424,173.92081669997424,173.92081669997424,173.92081669997424,173.92081669997424,right,0.47540670027956367,174.421652500052,174.421652500052,space,1.6696104002185166,2,001,2025-12-16_13h00.36.463,2025C_exp1_comp,2022.2.4,59.77715086618489,
19.6,315,1,1,1,0,108,65,176.12319660000503,176.12319660000503,176.62357830023393,176.6904360000044,176.74064440000802,176.74064440000802,176.74064440000802,176.74064440000802,176.79019560012966,176.79019560012966,176.79019560012966,176.79019560012966,176.79019560012966,176.79019560012966,176.79019560012966,176.79019560012966,176.79019560012966,left,0.3819265002384782,177.19119339995086,177.19119339995086,None,,2,001,2025-12-16_13h00.36.463,2025C_exp1_comp,2022.2.4,59.77715086618489,
19.6,45,1,1,1,1,109,56,177.19119339995086,177.19119339995086,177.6914837001823,177.75816840026528,177.80847930023447,177.80847930023447,177.80847930023447,177.80847930023447,177.8582910001278,177.8582910001278,177.8582910001278,177.8582910001278,177.8582910001278,177.8582910001278,177.8582910001278,177.8582910001278,177.8582910001278,left,0.3849659003317356,178.27533950004727,178.27533950004727,None,,2,001,2025-12-16_13h00.36.463,2025C_exp1_comp,2022.2.4,59.77715086618489,
22.7,315,-1,1,1,2,110,48,178.27533950004727,178.27533950004727,178.77581629995257,178.8423858000897,178.89255090011284,178.89255090011284,178.89255090011284,178.89255090011284,178.94262719992548,178.94262719992548,178.94262719992548,178.94262719992548,178.94262719992548,178.94262719992548,178.94262719992548,178.94262719992548,178.94262719992548,left,0.3975702002644539,179.3597523001954,179.3597523001954,None,,2,001,2025-12-16_13h00.36.463,2025C_exp1_comp,2022.2.4,59.77715086618489,
29.4,315,1,0,1,3,111,32,179.3597523001954,179.3597523001954,179.86025869986042,179.92699579987675,179.97721240017563,179.97721240017563,179.97721240017563,179.97721240017563,180.02696839999408,180.02696839999408,180.02696839999408,180.02696839999408,180.02696839999408,180.02696839999408,180.02696839999408,180.02696839999408,180.02696839999408,right,0.32122800033539534,180.3773747999221,180.3773747999221,None,,2,001,2025-12-16_13h00.36.463,2025C_exp1_comp,2022.2.4,59.77715086618489,
42.7,315,1,0,1,4,112,35,180.3773747999221,180.3773747999221,180.87799669988453,180.94462760025635,180.99485100014135,180.99485100014135,180.99485100014135,180.99485100014135,181.0446120002307,181.0446120002307,181.0446120002307,181.0446120002307,181.0446120002307,181.0446120002307,181.0446120002307,181.0446120002307,181.0446120002307,left,0.4951479001902044,181.5617526001297,181.5617526001297,None,,2,001,2025-12-16_13h00.36.463,2025C_exp1_comp,2022.2.4,59.77715086618489,
12.1,45,-1,0,1,5,113,0,181.5617526001297,181.5617526001297,182.06245899992064,182.1291779000312,182.1793227000162,182.1793227000162,182.1793227000162,182.1793227000162,182.2292975001037,182.2292975001037,182.2292975001037,182.2292975001037,182.2292975001037,182.2292975001037,182.2292975001037,182.2292975001037,182.2292975001037,right,0.5028615002520382,182.76299960026518,182.76299960026518,None,,2,001,2025-12-16_13h00.36.463,2025C_exp1_comp,2022.2.4,59.77715086618489,
35.3,45,-1,1,1,6,114,42,182.76299960026518,182.76299960026518,183.2634844998829,183.3302942002192,183.38063229992986,183.38063229992986,183.38063229992986,183.38063229992986,183.430535600055,183.430535600055,183.430535600055,183.430535600055,183.430535600055,183.430535600055,183.430535600055,183.430535600055,183.430535600055,left,0.5739298001863062,184.03107440005988,184.03107440005988,None,,2,001,2025-12-16_13h00.36.463,2025C_exp1_comp,2022.2.4,59.77715086618489,
12.1,315,-1,1,1,7,115,45,184.03107440005988,184.03107440005988,184.5316963000223,184.59814230026677,184.64872840000317,184.64872840000317,184.64872840000317,184.64872840000317,184.69849370000884,184.69849370000884,184.69849370000884,184.69849370000884,184.69849370000884,184.69849370000884,184.69849370000884,184.69849370000884,184.69849370000884,right,0.4011623002588749,185.13190109981224,185.13190109981224,None,,2,001,2025-12-16_13h00.36.463,2025C_exp1_comp,2022.2.4,59.77715086618489,
35.3,45,-1,0,1,8,116,6,185.13190109981224,185.13190109981224,185.6327168000862,185.6992696998641,185.74963349988684,185.74963349988684,185.74963349988684,185.74963349988684,185.79940759995952,185.79940759995952,185.79940759995952,185.79940759995952,185.79940759995952,185.79940759995952,185.79940759995952,185.79940759995952,185.79940759995952,left,0.4130937000736594,186.23314910009503,186.23314910009503,None,,2,001,2025-12-16_13h00.36.463,2025C_exp1_comp,2022.2.4,59.77715086618489,
15.7,45,-1,-1,1,9,117,73,186.23314910009503,186.23314910009503,186.73381010023877,186.8006666000001,186.85093310009688,186.85093310009688,186.85093310009688,186.85093310009688,186.90073650004342,186.90073650004342,186.90073650004342,186.90073650004342,186.90073650004342,186.90073650004342,186.90073650004342,186.90073650004342,186.90073650004342,right,0.4707787004299462,187.40128060011193,187.40128060011193,None,,2,001,2025-12-16_13h00.36.463,2025C_exp1_comp,2022.2.4,59.77715086618489,
12.1,315,-1,0,1,10,118,9,187.40128060011193,187.40128060011193,187.90168360015377,187.96842020004988,188.01865320000798,188.01865320000798,188.01865320000798,188.01865320000798,188.0684914002195,188.0684914002195,188.0684914002195,188.0684914002195,188.0684914002195,188.0684914002195,188.0684914002195,188.0684914002195,188.0684914002195,right,0.3830106002278626,188.4689123998396,188.4689123998396,None,,2,001,2025-12-16_13h00.36.463,2025C_exp1_comp,2022.2.4,59.77715086618489,
29.4,315,-1,1,1,11,119,50,188.4689123998396,188.4689123998396,188.96949659986421,189.03619890008122,189.0863378001377,189.0863378001377,189.0863378001377,189.0863378001377,189.1362164001912,189.1362164001912,189.1362164001912,189.1362164001912,189.1362164001912,189.1362164001912,189.1362164001912,189.1362164001912,189.1362164001912,right,0.4197110999375582,189.58669780008495,189.58669780008495,None,,2,001,2025-12-16_13h00.36.463,2025C_exp1_comp,2022.2.4,59.77715086618489,
39.2,45,1,0,1,12,120,25,189.58669780008495,189.58669780008495,190.08705510012805,190.15382560016587,190.20423759985715,190.20423759985715,190.20423759985715,190.20423759985715,190.2537866998464,190.2537866998464,190.2537866998464,190.2537866998464,190.2537866998464,190.2537866998464,190.2537866998464,190.2537866998464,190.2537866998464,right,0.3573529999703169,190.63760260026902,190.63760260026902,None,,2,001,2025-12-16_13h00.36.463,2025C_exp1_comp,2022.2.4,59.77715086618489,
39.2,45,1,1,1,13,121,61,190.63760260026902,190.63760260026902,191.13817910011858,191.2049245000817,191.2549275001511,191.2549275001511,191.2549275001511,191.2549275001511,191.30507369991392,191.30507369991392,191.30507369991392,191.30507369991392,191.30507369991392,191.30507369991392,191.30507369991392,191.30507369991392,191.30507369991392,left,0.3473842004314065,191.67189350025728,191.67189350025728,None,,2,001,2025-12-16_13h00.36.463,2025C_exp1_comp,2022.2.4,59.77715086618489,
35.3,45,1,0,1,14,122,24,191.67189350025728,191.67189350025728,192.17255879985169,192.2392728999257,192.28949470026419,192.28949470026419,192.28949470026419,192.28949470026419,192.33925419999287,192.33925419999287,192.33925419999287,192.33925419999287,192.33925419999287,192.33925419999287,192.33925419999287,192.33925419999287,192.33925419999287,left,0.2879238002933562,192.65637410013005,192.65637410013005,None,,2,001,2025-12-16_13h00.36.463,2025C_exp1_comp,2022.2.4,59.77715086618489,
39.2,45,1,-1,1,15,123,97,192.65637410013005,192.65637410013005,193.15687520010397,193.22350590024143,193.27387849986553,193.27387849986553,193.27387849986553,193.27387849986553,193.32370549999177,193.32370549999177,193.32370549999177,193.32370549999177,193.32370549999177,193.32370549999177,193.32370549999177,193.32370549999177,193.32370549999177,left,0.4154905001632869,193.75745180016384,193.75745180016384,None,,2,001,2025-12-16_13h00.36.463,2025C_exp1_comp,2022.2.4,59.77715086618489,
19.6,45,-1,1,1,16,124,38,193.75745180016384,193.75745180016384,194.2579777999781,194.3245705999434,194.37487940024585,194.37487940024585,194.37487940024585,194.37487940024585,194.42469260003418,194.42469260003418,194.42469260003418,194.42469260003418,194.42469260003418,194.42469260003418,194.42469260003418,194.42469260003418,194.42469260003418,right,0.34669140027835965,194.79183880006894,194.79183880006894,None,,2,001,2025-12-16_13h00.36.463,2025C_exp1_comp,2022.2.4,59.77715086618489,
42.7,45,-1,0,1,17,125,8,194.79183880006894,194.79183880006894,195.29233560012653,195.35907729994506,195.40934649994597,195.40934649994597,195.40934649994597,195.40934649994597,195.45903589995578,195.45903589995578,195.45903589995578,195.45903589995578,195.45903589995578,195.45903589995578,195.45903589995578,195.45903589995578,195.45903589995578,left,0.44132639979943633,195.92629490001127,195.92629490001127,None,,2,001,2025-12-16_13h00.36.463,2025C_exp1_comp,2022.2.4,59.77715086618489,
19.6,45,1,0,1,18,126,20,195.92629490001127,195.92629490001127,196.42684519989416,196.49354320019484,196.5438455999829,196.5438455999829,196.5438455999829,196.5438455999829,196.59362949989736,196.59362949989736,196.59362949989736,196.59362949989736,196.59362949989736,196.59362949989736,196.59362949989736,196.59362949989736,196.59362949989736,left,0.3548055998980999,196.9773416002281,196.9773416002281,None,,2,001,2025-12-16_13h00.36.463,2025C_exp1_comp,2022.2.4,59.77715086618489,
22.7,45,-1,1,1,19,127,39,196.9773416002281,196.9773416002281,197.47787979990244,197.5445719002746,197.59460210008547,197.59460210008547,197.59460210008547,197.59460210008547,197.6446152999997,197.6446152999997,197.6446152999997,197.6446152999997,197.6446152999997,197.6446152999997,197.6446152999997,197.6446152999997,197.6446152999997,right,0.3189913001842797,197.99512250022963,197.99512250022963,None,,2,001,2025-12-16_13h00.36.463,2025C_exp1_comp,2022.2.4,59.77715086618489,
25.5,45,-1,0,1,20,128,4,197.99512250022963,197.99512250022963,198.49546570004895,198.56227379990742,198.61260699993,198.61260699993,198.61260699993,198.61260699993,198.662346099969,198.662346099969,198.662346099969,198.662346099969,198.662346099969,198.662346099969,198.662346099969,198.662346099969,198.662346099969,right,0.3255297001451254,199.01259060017765,199.01259060017765,None,,2,001,2025-12-16_13h00.36.463,2025C_exp1_comp,2022.2.4,59.77715086618489,
29.4,45,1,1,1,21,129,59,199.01259060017765,199.01259060017765,199.51324639981613,199.57980410009623,199.63025260018185,199.63025260018185,199.63025260018185,199.63025260018185,199.6798068000935,199.6798068000935,199.6798068000935,199.6798068000935,199.6798068000935,199.6798068000935,199.6798068000935,199.6798068000935,199.6798068000935,right,0.30800480023026466,200.01375330006704,200.01375330006704,None,,2,001,2025-12-16_13h00.36.463,2025C_exp1_comp,2022.2.4,59.77715086618489,
35.3,315,1,0,1,22,130,33,200.01375330006704,200.01375330006704,200.5141012999229,200.58097970020026,200.63095710007474,200.63095710007474,200.63095710007474,200.63095710007474,200.6811889000237,200.6811889000237,200.6811889000237,200.6811889000237,200.6811889000237,200.6811889000237,200.6811889000237,200.6811889000237,200.6811889000237,right,0.34595280000939965,201.0479545998387,201.0479545998387,None,,2,001,2025-12-16_13h00.36.463,2025C_exp1_comp,2022.2.4,59.77715086618489,
19.6,315,-1,0,1,23,131,11,201.0479545998387,201.0479545998387,201.548600200098,201.61529809981585,201.66560880001634,201.66560880001634,201.66560880001634,201.66560880001634,201.7154164998792,201.7154164998792,201.7154164998792,201.7154164998792,201.7154164998792,201.7154164998792,201.7154164998792,201.7154164998792,201.7154164998792,right,0.45600360026583076,202.19936530012637,202.19936530012637,None,,2,001,2025-12-16_13h00.36.463,2025C_exp1_comp,2022.2.4,59.77715086618489,
15.7,315,-1,-1,1,24,132,82,202.19936530012637,202.19936530012637,202.6998113002628,202.766387199983,202.81680190004408,202.81680190004408,202.81680190004408,202.81680190004408,202.86660009995103,202.86660009995103,202.86660009995103,202.86660009995103,202.86660009995103,202.86660009995103,202.86660009995103,202.86660009995103,202.86660009995103,right,0.3528189999051392,203.2503670998849,203.2503670998849,None,,2,001,2025-12-16_13h00.36.463,2025C_exp1_comp,2022.2.4,59.77715086618489,
19.6,45,1,-1,1,25,133,92,203.2503670998849,203.2503670998849,203.75085570011288,203.81734850024804,203.8676004000008,203.8676004000008,203.8676004000008,203.8676004000008,203.91742879990488,203.91742879990488,203.91742879990488,203.91742879990488,203.91742879990488,203.91742879990488,203.91742879990488,203.91742879990488,203.91742879990488,left,0.3750383001752198,204.31799150025472,204.31799150025472,None,,2,001,2025-12-16_13h00.36.463,2025C_exp1_comp,2022.2.4,59.77715086618489,
15.7,315,-1,0,1,26,134,10,204.31799150025472,204.31799150025472,204.8185633001849,204.88535070000216,204.93549120007083,204.93549120007083,204.93549120007083,204.93549120007083,204.98536249995232,204.98536249995232,204.98536249995232,204.98536249995232,204.98536249995232,204.98536249995232,204.98536249995232,204.98536249995232,204.98536249995232,right,0.3868538998067379,205.4024056000635,205.4024056000635,None,,2,001,2025-12-16_13h00.36.463,2025C_exp1_comp,2022.2.4,59.77715086618489,
12.1,45,1,0,1,27,135,18,205.4024056000635,205.4024056000635,205.90295339981094,205.96961189992726,206.0202353000641,206.0202353000641,206.0202353000641,206.0202353000641,206.06999649992213,206.06999649992213,206.06999649992213,206.06999649992213,206.06999649992213,206.06999649992213,206.06999649992213,206.06999649992213,206.06999649992213,left,0.3651868999004364,206.45371389994398,206.45371389994398,None,,2,001,2025-12-16_13h00.36.463,2025C_exp1_comp,2022.2.4,59.77715086618489,
35.3,315,-1,0,1,28,136,15,206.45371389994398,206.45371389994398,206.95399710023776,207.0205346001312,207.07104049995542,207.07104049995542,207.07104049995542,207.07104049995542,207.12085819989443,207.12085819989443,207.12085819989443,207.12085819989443,207.12085819989443,207.12085819989443,207.12085819989443,207.12085819989443,207.12085819989443,right,0.3870823001489043,207.53766380017623,207.53766380017623,None,,2,001,2025-12-16_13h00.36.463,2025C_exp1_comp,2022.2.4,59.77715086618489,
35.3,315,-1,1,1,29,137,51,207.53766380017623,207.53766380017623,208.03814810002223,208.10514520015568,208.15542529989034,208.15542529989034,208.15542529989034,208.15542529989034,208.20523199997842,208.20523199997842,208.20523199997842,208.20523199997842,208.20523199997842,208.20523199997842,208.20523199997842,208.20523199997842,208.20523199997842,left,0.3909845002926886,208.622330899816,208.622330899816,None,,2,001,2025-12-16_13h00.36.463,2025C_exp1_comp,2022.2.4,59.77715086618489,
12.1,45,1,1,1,30,138,54,208.622330899816,208.622330899816,209.12254110025242,209.18946789996698,209.24004819989204,209.24004819989204,209.24004819989204,209.24004819989204,209.2898046001792,209.2898046001792,209.2898046001792,209.2898046001792,209.2898046001792,209.2898046001792,209.2898046001792,209.2898046001792,209.2898046001792,left,0.3219683999195695,209.63968360004947,209.63968360004947,None,,2,001,2025-12-16_13h00.36.463,2025C_exp1_comp,2022.2.4,59.77715086618489,
12.1,315,1,0,1,31,139,27,209.63968360004947,209.63968360004947,210.1402779999189,210.20733120013028,210.25745159992948,210.25745159992948,210.25745159992948,210.25745159992948,210.3072045999579,210.3072045999579,210.3072045999579,210.3072045999579,210.3072045999579,210.3072045999579,210.3072045999579,210.3072045999579,210.3072045999579,left,0.34450900042429566,210.67407019995153,210.67407019995153,None,,2,001,2025-12-16_13h00.36.463,2025C_exp1_comp,2022.2.4,59.77715086618489,
42.7,45,1,-1,1,32,140,98,210.67407019995153,210.67407019995153,211.17488940013573,211.24161239992827,211.29191600019112,211.29191600019112,211.29191600019112,211.29191600019112,211.3416784000583,211.3416784000583,211.3416784000583,211.3416784000583,211.3416784000583,211.3416784000583,211.3416784000583,211.3416784000583,211.3416784000583,right,0.38936399994418025,211.75877169985324,211.75877169985324,None,,2,001,2025-12-16_13h00.36.463,2025C_exp1_comp,2022.2.4,59.77715086618489,
42.7,315,-1,1,1,33,141,53,211.75877169985324,211.75877169985324,212.25923420023173,212.3260571002029,212.37628500023857,212.37628500023857,212.37628500023857,212.37628500023857,212.4261508998461,212.4261508998461,212.4261508998461,212.4261508998461,212.4261508998461,212.4261508998461,212.4261508998461,212.4261508998461,212.4261508998461,left,0.5853530000895262,213.04344409983605,213.04344409983605,None,,2,001,2025-12-16_13h00.36.463,2025C_exp1_comp,2022.2.4,59.77715086618489,
12.1,45,1,-1,1,34,142,90,213.04344409983605,213.04344409983605,213.5439595002681,213.61064499989152,213.66094070021063,213.66094070021063,213.66094070021063,213.66094070021063,213.71076249983162,213.71076249983162,213.71076249983162,213.71076249983162,213.71076249983162,213.71076249983162,213.71076249983162,213.71076249983162,213.71076249983162,left,0.3724410003051162,214.111159699969,214.111159699969,None,,2,001,2025-12-16_13h00.36.463,2025C_exp1_comp,2022.2.4,59.77715086618489,
39.2,315,-1,0,1,35,143,16,214.111159699969,214.111159699969,214.61173549992964,214.67829209985211,214.72867590002716,214.72867590002716,214.72867590002716,214.72867590002716,214.7784890998155,214.7784890998155,214.7784890998155,214.7784890998155,214.7784890998155,214.7784890998155,214.7784890998155,214.7784890998155,214.7784890998155,left,0.37730030016973615,215.17878209985793,215.17878209985793,None,,2,001,2025-12-16_13h00.36.463,2025C_exp1_comp,2022.2.4,59.77715086618489,
22.7,45,1,0,1,36,144,21,215.17878209985793,215.17878209985793,215.679485199973,215.74602620024234,215.79644960025325,215.79644960025325,215.79644960025325,215.79644960025325,215.8462249999866,215.8462249999866,215.8462249999866,215.8462249999866,215.8462249999866,215.8462249999866,215.8462249999866,215.8462249999866,215.8462249999866,left,0.37403459986671805,216.24662980018184,216.24662980018184,None,,2,001,2025-12-16_13h00.36.463,2025C_exp1_comp,2022.2.4,59.77715086618489,
42.7,45,-1,1,1,37,145,44,216.24662980018184,216.24662980018184,216.74715560022742,216.81390530010685,216.8641230999492,216.8641230999492,216.8641230999492,216.8641230999492,216.91395660024136,216.91395660024136,216.91395660024136,216.91395660024136,216.91395660024136,216.91395660024136,216.91395660024136,216.91395660024136,216.91395660024136,left,0.36136640002951026,217.2975177001208,217.2975177001208,None,,2,001,2025-12-16_13h00.36.463,2025C_exp1_comp,2022.2.4,59.77715086618489,
22.7,45,1,-1,1,38,146,93,217.2975177001208,217.2975177001208,217.7982036001049,217.86480990005657,217.91511580022052,217.91511580022052,217.91511580022052,217.91511580022052,217.96500989980996,217.96500989980996,217.96500989980996,217.96500989980996,217.96500989980996,217.96500989980996,217.96500989980996,217.96500989980996,217.96500989980996,left,0.38245500018820167,218.36528619984165,218.36528619984165,None,,2,001,2025-12-16_13h00.36.463,2025C_exp1_comp,2022.2.4,59.77715086618489,
22.7,315,-1,0,1,39,147,12,218.36528619984165,218.36528619984165,218.8660204000771,218.93263049982488,218.98286580014974,218.98286580014974,218.98286580014974,218.98286580014974,219.0325696002692,219.0325696002692,219.0325696002692,219.0325696002692,219.0325696002692,219.0325696002692,219.0325696002692,219.0325696002692,219.0325696002692,right,0.5395053001120687,219.60006379988045,219.60006379988045,None,,2,001,2025-12-16_13h00.36.463,2025C_exp1_comp,2022.2.4,59.77715086618489,
39.2,315,1,0,1,40,148,34,219.60006379988045,219.60006379988045,220.10048469994217,220.16729470016435,220.2174992999062,220.2174992999062,220.2174992999062,220.2174992999062,220.26736170006916,220.26736170006916,220.26736170006916,220.26736170006916,220.26736170006916,220.26736170006916,220.26736170006916,220.26736170006916,220.26736170006916,right,0.791945000179112,221.08486719988286,221.08486719988286,None,,2,001,2025-12-16_13h00.36.463,2025C_exp1_comp,2022.2.4,59.77715086618489,
25.5,315,1,-1,1,41,149,103,221.08486719988286,221.08486719988286,221.58498510019854,221.6522707999684,221.70257910015061,221.70257910015061,221.70257910015061,221.70257910015061,221.75212980015203,221.75212980015203,221.75212980015203,221.75212980015203,221.75212980015203,221.75212980015203,221.75212980015203,221.75212980015203,221.75212980015203,left,0.411964800208807,222.1857294002548,222.1857294002548,None,,2,001,2025-12-16_13h00.36.463,2025C_exp1_comp,2022.2.4,59.77715086618489,
15.7,45,1,-1,1,42,150,91,222.1857294002548,222.1857294002548,222.6866815998219,222.7531288000755,222.80353489983827,222.80353489983827,222.80353489983827,222.80353489983827,222.8533463999629,222.8533463999629,222.8533463999629,222.8533463999629,222.8533463999629,222.8533463999629,222.8533463999629,222.8533463999629,222.8533463999629,left,0.3589768004603684,223.23695399984717,223.23695399984717,None,,2,001,2025-12-16_13h00.36.463,2025C_exp1_comp,2022.2.4,59.77715086618489,
29.4,45,-1,-1,1,43,151,77,223.23695399984717,223.23695399984717,223.7373532000929,223.8041848000139,223.8544199001044,223.8544199001044,223.8544199001044,223.8544199001044,223.90427020005882,223.90427020005882,223.90427020005882,223.90427020005882,223.90427020005882,223.90427020005882,223.90427020005882,223.90427020005882,223.90427020005882,left,0.38696160027757287,224.32140879984945,224.32140879984945,None,,2,001,2025-12-16_13h00.36.463,2025C_exp1_comp,2022.2.4,59.77715086618489,
22.7,315,1,1,1,44,152,66,224.32140879984945,224.32140879984945,224.82186560006812,224.88857109984383,224.93888969998807,224.93888969998807,224.93888969998807,224.93888969998807,224.98866620007902,224.98866620007902,224.98866620007902,224.98866620007902,224.98866620007902,224.98866620007902,224.98866620007902,224.98866620007902,224.98866620007902,left,0.3828678000718355,225.38914750004187,225.38914750004187,None,,2,001,2025-12-16_13h00.36.463,2025C_exp1_comp,2022.2.4,59.77715086618489,
25.5,315,1,1,1,45,153,67,225.38914750004187,225.38914750004187,225.88960959995165,225.95617929985747,226.00664009992033,226.00664009992033,226.00664009992033,226.00664009992033,226.05630359984934,226.05630359984934,226.05630359984934,226.05630359984934,226.05630359984934,226.05630359984934,226.05630359984934,226.05630359984934,226.05630359984934,left,0.403606700245291,226.4901899001561,226.4901899001561,None,,2,001,2025-12-16_13h00.36.463,2025C_exp1_comp,2022.2.4,59.77715086618489,
25.5,315,-1,0,1,46,154,13,226.4901899001561,226.4901899001561,226.99075820017606,227.05745259998366,227.1076740999706,227.1076740999706,227.1076740999706,227.1076740999706,227.15754250017926,227.15754250017926,227.15754250017926,227.15754250017926,227.15754250017926,227.15754250017926,227.15754250017926,227.15754250017926,227.15754250017926,left,0.83889070013538,228.02505180006847,228.02505180006847,None,,2,001,2025-12-16_13h00.36.463,2025C_exp1_comp,2022.2.4,59.77715086618489,
39.2,315,-1,-1,1,47,155,88,228.02505180006847,228.02505180006847,228.52541350014508,228.59230550006032,228.64249389991164,228.64249389991164,228.64249389991164,228.64249389991164,228.6924268999137,228.6924268999137,228.6924268999137,228.6924268999137,228.6924268999137,228.6924268999137,228.6924268999137,228.6924268999137,228.6924268999137,left,0.4479546998627484,229.15952520025894,229.15952520025894,None,,2,001,2025-12-16_13h00.36.463,2025C_exp1_comp,2022.2.4,59.77715086618489,
22.7,45,1,1,1,48,156,57,229.15952520025894,229.15952520025894,229.66013160021976,229.72683499986306,229.77709109988064,229.77709109988064,229.77709109988064,229.77709109988064,229.82686269981787,229.82686269981787,229.82686269981787,229.82686269981787,229.82686269981787,229.82686269981787,229.82686269981787,229.82686269981787,229.82686269981787,left,0.417227600235492,230.26054609986022,230.26054609986022,None,,2,001,2025-12-16_13h00.36.463,2025C_exp1_comp,2022.2.4,59.77715086618489,
42.7,315,-1,0,1,49,157,17,230.26054609986022,230.26054609986022,230.76094020018354,230.8278010999784,230.87793069984764,230.87793069984764,230.87793069984764,230.87793069984764,230.92764420015737,230.92764420015737,230.92764420015737,230.92764420015737,230.92764420015737,230.92764420015737,230.92764420015737,230.92764420015737,230.92764420015737,right,0.5874172002077103,231.54518639994785,231.54518639994785,None,,2,001,2025-12-16_13h00.36.463,2025C_exp1_comp,2022.2.4,59.77715086618489,
29.4,45,1,-1,1,50,158,95,231.54518639994785,231.54518639994785,232.04577460000291,232.11247690021992,232.1628880999051,232.1628880999051,232.1628880999051,232.1628880999051,232.21269880002365,232.21269880002365,232.21269880002365,232.21269880002365,232.21269880002365,232.21269880002365,232.21269880002365,232.21269880002365,232.21269880002365,left,0.34280440025031567,232.57961629983038,232.57961629983038,None,,2,001,2025-12-16_13h00.36.463,2025C_exp1_comp,2022.2.4,59.77715086618489,
12.1,315,-1,-1,1,51,159,81,232.57961629983038,232.57961629983038,233.08013290027156,233.14685259992257,233.19714569998905,233.19714569998905,233.19714569998905,233.19714569998905,233.24697350012138,233.24697350012138,233.24697350012138,233.24697350012138,233.24697350012138,233.24697350012138,233.24697350012138,233.24697350012138,233.24697350012138,right,0.41285640001296997,233.68056569993496,233.68056569993496,None,,2,001,2025-12-16_13h00.36.463,2025C_exp1_comp,2022.2.4,59.77715086618489,
29.4,315,1,1,1,52,160,68,233.68056569993496,233.68056569993496,234.18125300016254,234.24791530007496,234.2982414998114,234.2982414998114,234.2982414998114,234.2982414998114,234.34802780020982,234.34802780020982,234.34802780020982,234.34802780020982,234.34802780020982,234.34802780020982,234.34802780020982,234.34802780020982,234.34802780020982,left,0.43187580024823546,234.79849900025874,234.79849900025874,None,,2,001,2025-12-16_13h00.36.463,2025C_exp1_comp,2022.2.4,59.77715086618489,
12.1,45,-1,1,1,53,161,36,234.79849900025874,234.79849900025874,235.2990578999743,235.36576429987326,235.41594230011106,235.41594230011106,235.41594230011106,235.41594230011106,235.4657434001565,235.4657434001565,235.4657434001565,235.4657434001565,235.4657434001565,235.4657434001565,235.4657434001565,235.4657434001565,235.4657434001565,right,0.433370899874717,235.9161445000209,235.9161445000209,None,,2,001,2025-12-16_13h00.36.463,2025C_exp1_comp,2022.2.4,59.77715086618489,
12.1,45,-1,-1,1,54,162,72,235.9161445000209,235.9161445000209,236.41674110013992,236.48355450015515,236.53391799982637,236.53391799982637,236.53391799982637,236.53391799982637,236.58371330006048,236.58371330006048,236.58371330006048,236.58371330006048,236.58371330006048,236.58371330006048,236.58371330006048,236.58371330006048,236.58371330006048,right,0.40435960004106164,237.0173265999183,237.0173265999183,None,,2,001,2025-12-16_13h00.36.463,2025C_exp1_comp,2022.2.4,59.77715086618489,
25.5,45,-1,-1,1,55,163,76,237.0173265999183,237.0173265999183,237.51805850025266,237.58485510013998,237.63463839981705,237.63463839981705,237.63463839981705,237.63463839981705,237.68452210025862,237.68452210025862,237.68452210025862,237.68452210025862,237.68452210025862,237.68452210025862,237.68452210025862,237.68452210025862,237.68452210025862,left,0.3668102999217808,238.06823679991066,238.06823679991066,None,,2,001,2025-12-16_13h00.36.463,2025C_exp1_comp,2022.2.4,59.77715086618489,
22.7,45,-1,0,1,56,164,3,238.06823679991066,238.06823679991066,238.56881979992613,238.63566280016676,238.68583150021732,238.68583150021732,238.68583150021732,238.68583150021732,238.7357398001477,238.7357398001477,238.7357398001477,238.7357398001477,238.7357398001477,238.7357398001477,238.7357398001477,238.7357398001477,238.7357398001477,right,0.4606146002188325,239.21954130008817,239.21954130008817,None,,2,001,2025-12-16_13h00.36.463,2025C_exp1_comp,2022.2.4,59.77715086618489,
42.7,315,1,-1,1,57,165,107,239.21954130008817,239.21954130008817,239.7199140000157,239.78670269995928,239.83705430012196,239.83705430012196,239.83705430012196,239.83705430012196,239.88677289988846,239.88677289988846,239.88677289988846,239.88677289988846,239.88677289988846,239.88677289988846,239.88677289988846,239.88677289988846,239.88677289988846,left,0.4771135002374649,240.38727860013023,240.38727860013023,None,,2,001,2025-12-16_13h00.36.463,2025C_exp1_comp,2022.2.4,59.77715086618489,
15.7,45,1,1,1,58,166,55,240.38727860013023,240.38727860013023,240.88774550007656,240.95474680000916,241.00504190009087,241.00504190009087,241.00504190009087,241.00504190009087,241.05465329997241,241.05465329997241,241.05465329997241,241.05465329997241,241.05465329997241,241.05465329997241,241.05465329997241,241.05465329997241,241.05465329997241,left,0.3737423000857234,241.45516210002825,241.45516210002825,None,,2,001,2025-12-16_13h00.36.463,2025C_exp1_comp,2022.2.4,59.77715086618489,
35.3,315,1,1,1,59,167,69,241.45516210002825,241.45516210002825,241.95558449998498,242.02243020012975,242.07271880004555,242.07271880004555,242.07271880004555,242.07271880004555,242.12235580012202,242.12235580012202,242.12235580012202,242.12235580012202,242.12235580012202,242.12235580012202,242.12235580012202,242.12235580012202,242.12235580012202,left,0.376834100112319,242.52273700013757,242.52273700013757,None,,2,001,2025-12-16_13h00.36.463,2025C_exp1_comp,2022.2.4,59.77715086618489,
29.4,315,1,-1,1,60,168,104,242.52273700013757,242.52273700013757,243.0234079998918,243.09013639995828,243.14036280009896,243.14036280009896,243.14036280009896,243.14036280009896,243.19022009987384,243.19022009987384,243.19022009987384,243.19022009987384,243.19022009987384,243.19022009987384,243.19022009987384,243.19022009987384,243.19022009987384,left,0.4460948999039829,243.6575445001945,243.6575445001945,None,,2,001,2025-12-16_13h00.36.463,2025C_exp1_comp,2022.2.4,59.77715086618489,
25.5,315,1,0,1,61,169,31,243.6575445001945,243.6575445001945,244.15797950001433,244.22446900000796,244.27490830002353,244.27490830002353,244.27490830002353,244.27490830002353,244.32461920008063,244.32461920008063,244.32461920008063,244.32461920008063,244.32461920008063,244.32461920008063,244.32461920008063,244.32461920008063,244.32461920008063,left,0.4475649003870785,244.79169350024313,244.79169350024313,None,,2,001,2025-12-16_13h00.36.463,2025C_exp1_comp,2022.2.4,59.77715086618489,
15.7,45,1,0,1,62,170,19,244.79169350024313,244.79169350024313,245.29233309999108,245.35892960010096,245.40932920016348,245.40932920016348,245.40932920016348,245.40932920016348,245.4591661999002,245.4591661999002,245.4591661999002,245.4591661999002,245.4591661999002,245.4591661999002,245.4591661999002,245.4591661999002,245.4591661999002,left,0.4007798000238836,245.89286360004917,245.89286360004917,None,,2,001,2025-12-16_13h00.36.463,2025C_exp1_comp,2022.2.4,59.77715086618489,
39.2,45,-1,0,1,63,171,7,245.89286360004917,245.89286360004917,246.39354059984908,246.4601632002741,246.51056150021031,246.51056150021031,246.51056150021031,246.51056150021031,246.56026470009238,246.56026470009238,246.56026470009238,246.56026470009238,246.56026470009238,246.56026470009238,246.56026470009238,246.56026470009238,246.56026470009238,left,0.594945500139147,247.17752789985389,247.17752789985389,None,,2,001,2025-12-16_13h00.36.463,2025C_exp1_comp,2022.2.4,59.77715086618489,
39.2,315,-1,1,1,64,172,52,247.17752789985389,247.17752789985389,247.67797309998423,247.7447477998212,247.79505169996992,247.79505169996992,247.79505169996992,247.79505169996992,247.84484820021316,247.84484820021316,247.84484820021316,247.84484820021316,247.84484820021316,247.84484820021316,247.84484820021316,247.84484820021316,247.84484820021316,right,0.7588649005629122,248.62890460016206,248.62890460016206,None,,2,001,2025-12-16_13h00.36.463,2025C_exp1_comp,2022.2.4,59.77715086618489,
35.3,315,-1,-1,1,65,173,87,248.62890460016206,248.62890460016206,249.12959269993007,249.19626110000536,249.24658189993352,249.24658189993352,249.24658189993352,249.24658189993352,249.29636010015383,249.29636010015383,249.29636010015383,249.29636010015383,249.29636010015383,249.29636010015383,249.29636010015383,249.29636010015383,249.29636010015383,left,0.8428889000788331,250.16386809991673,250.16386809991673,None,,2,001,2025-12-16_13h00.36.463,2025C_exp1_comp,2022.2.4,59.77715086618489,
42.7,45,1,0,1,66,174,26,250.16386809991673,250.16386809991673,250.66445659985766,250.73106250027195,250.7813634998165,250.7813634998165,250.7813634998165,250.7813634998165,250.8311900999397,250.8311900999397,250.8311900999397,250.8311900999397,250.8311900999397,250.8311900999397,250.8311900999397,250.8311900999397,250.8311900999397,right,0.4600296001881361,251.3148517999798,251.3148517999798,None,,2,001,2025-12-16_13h00.36.463,2025C_exp1_comp,2022.2.4,59.77715086618489,
29.4,45,-1,1,1,67,175,41,251.3148517999798,251.3148517999798,251.81553639983758,251.88193640019745,251.93258999986574,251.93258999986574,251.93258999986574,251.93258999986574,251.982582999859,251.982582999859,251.982582999859,251.982582999859,251.982582999859,251.982582999859,251.982582999859,251.982582999859,251.982582999859,left,0.6447378997690976,252.64969690004364,252.64969690004364,None,,2,001,2025-12-16_13h00.36.463,2025C_exp1_comp,2022.2.4,59.77715086618489,
35.3,315,1,-1,1,68,176,105,252.64969690004364,252.64969690004364,253.15023719985038,253.2167962999083,253.2670284002088,253.2670284002088,253.2670284002088,253.2670284002088,253.31684580026194,253.31684580026194,253.31684580026194,253.31684580026194,253.31684580026194,253.31684580026194,253.31684580026194,253.31684580026194,253.31684580026194,left,0.3903878000564873,253.73406590009108,253.73406590009108,None,,2,001,2025-12-16_13h00.36.463,2025C_exp1_comp,2022.2.4,59.77715086618489,
22.7,315,1,0,1,69,177,30,253.73406590009108,253.73406590009108,254.23459389992058,254.30131420027465,254.3517010002397,254.3517010002397,254.3517010002397,254.3517010002397,254.40147759998217,254.40147759998217,254.40147759998217,254.40147759998217,254.40147759998217,254.40147759998217,254.40147759998217,254.40147759998217,254.40147759998217,left,0.3948734002187848,254.8184647001326,254.8184647001326,None,,2,001,2025-12-16_13h00.36.463,2025C_exp1_comp,2022.2.4,59.77715086618489,
29.4,315,-1,0,1,70,178,14,254.8184647001326,254.8184647001326,255.31907780002803,255.38576170010492,255.4359984002076,255.4359984002076,255.4359984002076,255.4359984002076,255.48591670021415,255.48591670021415,255.48591670021415,255.48591670021415,255.48591670021415,255.48591670021415,255.48591670021415,255.48591670021415,255.48591670021415,left,0.4617767999880016,255.96934630023316,255.96934630023316,None,,2,001,2025-12-16_13h00.36.463,2025C_exp1_comp,2022.2.4,59.77715086618489,
22.7,45,-1,-1,1,71,179,75,255.96934630023316,255.96934630023316,256.47029680013657,256.5369295999408,256.58722139988095,256.58722139988095,256.58722139988095,256.58722139988095,256.63702959986404,256.63702959986404,256.63702959986404,256.63702959986404,256.63702959986404,256.63702959986404,256.63702959986404,256.63702959986404,256.63702959986404,left,0.4226720002479851,257.08746149996296,257.08746149996296,None,,2,001,2025-12-16_13h00.36.463,2025C_exp1_comp,2022.2.4,59.77715086618489,
22.7,315,-1,-1,1,72,180,84,257.08746149996296,257.08746149996296,257.58785599982366,257.6545841000043,257.7049814998172,257.7049814998172,257.7049814998172,257.7049814998172,257.754782400094,257.754782400094,257.754782400094,257.754782400094,257.754782400094,257.754782400094,257.754782400094,257.754782400094,257.754782400094,left,0.44134189980104566,258.22176659991965,258.22176659991965,None,,2,001,2025-12-16_13h00.36.463,2025C_exp1_comp,2022.2.4,59.77715086618489,
15.7,45,-1,0,1,73,181,1,258.22176659991965,258.22176659991965,258.722396499943,258.7892109998502,258.839457700029,258.839457700029,258.839457700029,258.839457700029,258.8892991999164,258.8892991999164,258.8892991999164,258.8892991999164,258.8892991999164,258.8892991999164,258.8892991999164,258.8892991999164,258.8892991999164,left,0.6108228997327387,259.5232195002027,259.5232195002027,None,,2,001,2025-12-16_13h00.36.463,2025C_exp1_comp,2022.2.4,59.77715086618489,
19.6,45,-1,-1,1,74,182,74,259.5232195002027,259.5232195002027,260.0236221002415,260.09022929985076,260.14044300001115,260.14044300001115,260.14044300001115,260.14044300001115,260.190528200008,260.190528200008,260.190528200008,260.190528200008,260.190528200008,260.190528200008,260.190528200008,260.190528200008,260.190528200008,left,0.5727292001247406,260.7909931000322,260.7909931000322,None,,2,001,2025-12-16_13h00.36.463,2025C_exp1_comp,2022.2.4,59.77715086618489,
12.1,315,1,1,1,75,183,63,260.7909931000322,260.7909931000322,261.29170079994947,261.3584392000921,261.40874070022255,261.40874070022255,261.40874070022255,261.40874070022255,261.4585775001906,261.4585775001906,261.4585775001906,261.4585775001906,261.4585775001906,261.4585775001906,261.4585775001906,261.4585775001906,261.4585775001906,left,0.409638199955225,261.89230629988015,261.89230629988015,None,,2,001,2025-12-16_13h00.36.463,2025C_exp1_comp,2022.2.4,59.77715086618489,
15.7,45,-1,1,1,76,184,37,261.89230629988015,261.89230629988015,262.3926706998609,262.4594820998609,262.5097862998955,262.5097862998955,262.5097862998955,262.5097862998955,262.5595920002088,262.5595920002088,262.5595920002088,262.5595920002088,262.5595920002088,262.5595920002088,262.5595920002088,262.5595920002088,262.5595920002088,left,0.5562980002723634,263.1435381998308,263.1435381998308,None,,2,001,2025-12-16_13h00.36.463,2025C_exp1_comp,2022.2.4,59.77715086618489,
39.2,45,-1,1,1,77,185,43,263.1435381998308,263.1435381998308,263.64392339996994,263.7107707001269,263.76105439988896,263.76105439988896,263.76105439988896,263.76105439988896,263.81093880021945,263.81093880021945,263.81093880021945,263.81093880021945,263.81093880021945,263.81093880021945,263.81093880021945,263.81093880021945,263.81093880021945,left,0.5452304999344051,264.37805940024555,264.37805940024555,None,,2,001,2025-12-16_13h00.36.463,2025C_exp1_comp,2022.2.4,59.77715086618489,
25.5,45,1,-1,1,78,186,94,264.37805940024555,264.37805940024555,264.87885930016637,264.94552770024166,264.9957738998346,264.9957738998346,264.9957738998346,264.9957738998346,265.04566750023514,265.04566750023514,265.04566750023514,265.04566750023514,265.04566750023514,265.04566750023514,265.04566750023514,265.04566750023514,265.04566750023514,left,0.4941304000094533,265.562622200232,265.562622200232,None,,2,001,2025-12-16_13h00.36.463,2025C_exp1_comp,2022.2.4,59.77715086618489,
15.7,315,1,-1,1,79,187,100,265.562622200232,265.562622200232,266.0632282998413,266.1297101001255,266.18012070003897,266.18012070003897,266.18012070003897,266.18012070003897,266.22962350025773,266.22962350025773,266.22962350025773,266.22962350025773,266.22962350025773,266.22962350025773,266.22962350025773,266.22962350025773,266.22962350025773,left,0.542546299751848,266.7968905000016,266.7968905000016,None,,2,001,2025-12-16_13h00.36.463,2025C_exp1_comp,2022.2.4,59.77715086618489,
15.7,315,1,0,1,80,188,28,266.7968905000016,266.7968905000016,267.29763159994036,267.3643916002475,267.41457440005615,267.41457440005615,267.41457440005615,267.41457440005615,267.4645346002653,267.4645346002653,267.4645346002653,267.4645346002653,267.4645346002653,267.4645346002653,267.4645346002653,267.4645346002653,267.4645346002653,left,0.4829843998886645,267.96496960008517,267.96496960008517,None,,2,001,2025-12-16_13h00.36.463,2025C_exp1_comp,2022.2.4,59.77715086618489,
39.2,315,1,-1,1,81,189,106,267.96496960008517,267.96496960008517,268.4654260999523,268.5321952002123,268.58244180027395,268.58244180027395,268.58244180027395,268.58244180027395,268.63230940001085,268.63230940001085,268.63230940001085,268.63230940001085,268.63230940001085,268.63230940001085,268.63230940001085,268.63230940001085,268.63230940001085,left,0.5553458002395928,269.2159716999158,269.2159716999158,None,,2,001,2025-12-16_13h00.36.463,2025C_exp1_comp,2022.2.4,59.77715086618489,
42.7,315,-1,-1,1,82,190,89,269.2159716999158,269.2159716999158,269.71643269993365,269.7835372001864,269.8339281999506,269.8339281999506,269.8339281999506,269.8339281999506,269.88366830023006,269.88366830023006,269.88366830023006,269.88366830023006,269.88366830023006,269.88366830023006,269.88366830023006,269.88366830023006,269.88366830023006,left,0.6075948001816869,270.5172369000502,270.5172369000502,None,,2,001,2025-12-16_13h00.36.463,2025C_exp1_comp,2022.2.4,59.77715086618489,
19.6,315,-1,1,1,83,191,47,270.5172369000502,270.5172369000502,271.01781760016456,271.0847924002446,271.1350997998379,271.1350997998379,271.1350997998379,271.1350997998379,271.18486469984055,271.18486469984055,271.18486469984055,271.18486469984055,271.18486469984055,271.18486469984055,271.18486469984055,271.18486469984055,271.18486469984055,left,0.7473454000428319,271.9523155000061,271.9523155000061,None,,2,001,2025-12-16_13h00.36.463,2025C_exp1_comp,2022.2.4,59.77715086618489,
29.4,45,-1,0,1,84,192,5,271.9523155000061,271.9523155000061,272.4528232999146,272.519500200171,272.5695497998968,272.5695497998968,272.5695497998968,272.5695497998968,272.6193270999938,272.6193270999938,272.6193270999938,272.6193270999938,272.6193270999938,272.6193270999938,272.6193270999938,272.6193270999938,272.6193270999938,left,0.4566017999313772,273.1033197999932,273.1033197999932,None,,2,001,2025-12-16_13h00.36.463,2025C_exp1_comp,2022.2.4,59.77715086618489,
25.5,315,-1,1,1,85,193,49,273.1033197999932,273.1033197999932,273.6040560002439,273.67056899983436,273.72094860021025,273.72094860021025,273.72094860021025,273.72094860021025,273.77063590008765,273.77063590008765,273.77063590008765,273.77063590008765,273.77063590008765,273.77063590008765,273.77063590008765,273.77063590008765,273.77063590008765,left,0.5771574000827968,274.37135110003874,274.37135110003874,None,,2,001,2025-12-16_13h00.36.463,2025C_exp1_comp,2022.2.4,59.77715086618489,
19.6,315,-1,-1,1,86,194,83,274.37135110003874,274.37135110003874,274.872069099918,274.9387735002674,274.9891718002036,274.9891718002036,274.9891718002036,274.9891718002036,275.03898889990523,275.03898889990523,275.03898889990523,275.03898889990523,275.03898889990523,275.03898889990523,275.03898889990523,275.03898889990523,275.03898889990523,left,0.5089254002086818,275.57258319994435,275.57258319994435,None,,2,001,2025-12-16_13h00.36.463,2025C_exp1_comp,2022.2.4,59.77715086618489,
25.5,45,1,1,1,87,195,58,275.57258319994435,275.57258319994435,276.0732962000184,276.1398744001053,276.1903136000037,276.1903136000037,276.1903136000037,276.1903136000037,276.2399951000698,276.2399951000698,276.2399951000698,276.2399951000698,276.2399951000698,276.2399951000698,276.2399951000698,276.2399951000698,276.2399951000698,left,0.5394055000506341,276.8073603999801,276.8073603999801,None,,2,001,2025-12-16_13h00.36.463,2025C_exp1_comp,2022.2.4,59.77715086618489,
39.2,315,1,1,1,88,196,70,276.8073603999801,276.8073603999801,277.3078779000789,277.3744870000519,277.42476900015026,277.42476900015026,277.42476900015026,277.42476900015026,277.4744739998132,277.4744739998132,277.4744739998132,277.4744739998132,277.4744739998132,277.4744739998132,277.4744739998132,277.4744739998132,277.4744739998132,left,0.6419147998094559,278.1418142002076,278.1418142002076,None,,2,001,2025-12-16_13h00.36.463,2025C_exp1_comp,2022.2.4,59.77715086618489,
35.3,45,1,1,1,89,197,60,278.1418142002076,278.1418142002076,278.6424377001822,278.7088731001131,278.7593359001912,278.7593359001912,278.7593359001912,278.7593359001912,278.80883779982105,278.80883779982105,278.80883779982105,278.80883779982105,278.80883779982105,278.80883779982105,278.80883779982105,278.80883779982105,278.80883779982105,left,0.6745073003694415,279.50984140019864,279.50984140019864,None,,2,001,2025-12-16_13h00.36.463,2025C_exp1_comp,2022.2.4,59.77715086618489,
29.4,45,1,0,1,90,198,23,279.50984140019864,279.50984140019864,280.0103623000905,280.07706440007314,280.1273932000622,280.1273932000622,280.1273932000622,280.1273932000622,280.17715679993853,280.17715679993853,280.17715679993853,280.17715679993853,280.17715679993853,280.17715679993853,280.17715679993853,280.17715679993853,280.17715679993853,left,0.49894570000469685,280.69421119987965,280.69421119987965,None,,2,001,2025-12-16_13h00.36.463,2025C_exp1_comp,2022.2.4,59.77715086618489,
35.3,45,-1,-1,1,91,199,78,280.69421119987965,280.69421119987965,281.19488500012085,281.26158769987524,281.3117483998649,281.3117483998649,281.3117483998649,281.3117483998649,281.3615486002527,281.3615486002527,281.3615486002527,281.3615486002527,281.3615486002527,281.3615486002527,281.3615486002527,281.3615486002527,281.3615486002527,left,0.5296555999666452,281.91220400016755,281.91220400016755,None,,2,001,2025-12-16_13h00.36.463,2025C_exp1_comp,2022.2.4,59.77715086618489,
15.7,315,-1,1,1,92,200,46,281.91220400016755,281.91220400016755,282.4128849999979,282.4796378002502,282.5300310999155,282.5300310999155,282.5300310999155,282.5300310999155,282.5793618001044,282.5793618001044,282.5793618001044,282.5793618001044,282.5793618001044,282.5793618001044,282.5793618001044,282.5793618001044,282.5793618001044,left,0.8797896998003125,283.4804735998623,283.4804735998623,None,,2,001,2025-12-16_13h00.36.463,2025C_exp1_comp,2022.2.4,59.77715086618489,
25.5,45,1,0,1,93,201,22,283.4804735998623,283.4804735998623,283.9809984001331,284.0476298001595,284.09804040007293,284.09804040007293,284.09804040007293,284.09804040007293,284.14770229998976,284.14770229998976,284.14770229998976,284.14770229998976,284.14770229998976,284.14770229998976,284.14770229998976,284.14770229998976,284.14770229998976,left,0.5924925003200769,284.76511530019343,284.76511530019343,None,,2,001,2025-12-16_13h00.36.463,2025C_exp1_comp,2022.2.4,59.77715086618489,
42.7,45,-1,-1,1,94,202,80,284.76511530019343,284.76511530019343,285.2658155998215,285.3325148001313,285.3828027001582,285.3828027001582,285.3828027001582,285.3828027001582,285.4326304998249,285.4326304998249,285.4326304998249,285.4326304998249,285.4326304998249,285.4326304998249,285.4326304998249,285.4326304998249,285.4326304998249,left,0.9151435997337103,286.3663898999803,286.3663898999803,None,,2,001,2025-12-16_13h00.36.463,2025C_exp1_comp,2022.2.4,59.77715086618489,
35.3,45,1,-1,1,95,203,96,286.3663898999803,286.3663898999803,286.8668805002235,286.93359229993075,286.9840056998655,286.9840056998655,286.9840056998655,286.9840056998655,287.0337736001238,287.0337736001238,287.0337736001238,287.0337736001238,287.0337736001238,287.0337736001238,287.0337736001238,287.0337736001238,287.0337736001238,left,0.4972089002840221,287.55088290013373,287.55088290013373,None,,2,001,2025-12-16_13h00.36.463,2025C_exp1_comp,2022.2.4,59.77715086618489,
22.7,315,1,-1,1,96,204,102,287.55088290013373,287.55088290013373,288.0514148999937,288.118123000022,288.1685756999068,288.1685756999068,288.1685756999068,288.1685756999068,288.2182167000137,288.2182167000137,288.2182167000137,288.2182167000137,288.2182167000137,288.2182167000137,288.2182167000137,288.2182167000137,288.2182167000137,left,0.5294359005056322,288.7687737001106,288.7687737001106,None,,2,001,2025-12-16_13h00.36.463,2025C_exp1_comp,2022.2.4,59.77715086618489,
15.7,315,1,1,1,97,205,64,288.7687737001106,288.7687737001106,289.2692697998136,289.33668299997225,289.3863015999086,289.3863015999086,289.3863015999086,289.3863015999086,289.43614730006084,289.43614730006084,289.43614730006084,289.43614730006084,289.43614730006084,289.43614730006084,289.43614730006084,289.43614730006084,289.43614730006084,left,0.5754828001372516,290.03671550005674,290.03671550005674,None,,2,001,2025-12-16_13h00.36.463,2025C_exp1_comp,2022.2.4,59.77715086618489,
