contrast,ori,lefttarget,righttarget,postcue,precue,trials.thisRepN,trials.thisTrialN,trials.thisN,trials.thisIndex,fix1.started,fix2.started,precue_2.started,precue_2.stopped,left_grating.started,right_grating.started,noise_left.started,noise_right.started,fix1.stopped,fix2.stopped,left_grating.stopped,right_grating.stopped,noise_left.stopped,noise_right.stopped,key_resp.started,postcue_2.started,fix1_2.started,fix2_2.started,key_resp.keys,key_resp.rt,key_resp_2.started,break_text_2.started,key_resp_2.keys,key_resp_2.rt,participant,session,date,expName,psychopyVersion,frameRate,
29.4,45,1,1,-1,1,0,0,0,347,51.67109559988603,51.67109559988603,52.152507399674505,52.21894389996305,52.278144099749625,52.278144099749625,52.278144099749625,52.278144099749625,52.31919679977,52.31919679977,52.31919679977,52.31919679977,52.31919679977,52.31919679977,52.31919679977,52.31919679977,52.31919679977,52.31919679977,num_1,0.6849754001013935,53.03672299999744,53.03672299999744,None,,2,001,2025-12-16_13h32.10.229,2025C_exp1_detect,2022.2.4,59.87339175150998,
22.7,315,1,1,-1,1,0,1,1,354,53.03672299999744,53.03672299999744,53.537317799869925,53.60385059984401,53.65409579966217,53.65409579966217,53.65409579966217,53.65409579966217,53.704079200048,53.704079200048,53.704079200048,53.704079200048,53.704079200048,53.704079200048,53.704079200048,53.704079200048,53.704079200048,53.704079200048,num_3,1.1723327999934554,54.90511259995401,54.90511259995401,None,,2,001,2025-12-16_13h32.10.229,2025C_exp1_detect,2022.2.4,59.87339175150998,
35.3,315,1,0,-1,1,0,2,2,321,54.90511259995401,54.90511259995401,55.40563609963283,55.47265219967812,55.52282639965415,55.52282639965415,55.52282639965415,55.52282639965415,55.57251979969442,55.57251979969442,55.57251979969442,55.57251979969442,55.57251979969442,55.57251979969442,55.57251979969442,55.57251979969442,55.57251979969442,55.57251979969442,num_3,0.6322626997716725,56.22324809990823,56.22324809990823,None,,2,001,2025-12-16_13h32.10.229,2025C_exp1_detect,2022.2.4,59.87339175150998,
35.3,45,1,1,-1,1,0,3,3,348,56.22324809990823,56.22324809990823,56.72350209997967,56.79055029992014,56.84094029990956,56.84094029990956,56.84094029990956,56.84094029990956,56.890775399748236,56.890775399748236,56.890775399748236,56.890775399748236,56.890775399748236,56.890775399748236,56.890775399748236,56.890775399748236,56.890775399748236,56.890775399748236,num_1,0.616726600099355,57.52443249989301,57.52443249989301,None,,2,001,2025-12-16_13h32.10.229,2025C_exp1_detect,2022.2.4,59.87339175150998,
35.3,315,1,1,1,1,0,4,4,429,57.52443249989301,57.52443249989301,58.0250857998617,58.091790499631315,58.141915099695325,58.141915099695325,58.141915099695325,58.141915099695325,58.19192669959739,58.19192669959739,58.19192669959739,58.19192669959739,58.19192669959739,58.19192669959739,58.19192669959739,58.19192669959739,58.19192669959739,58.19192669959739,num_3,0.7005217000842094,58.90920399967581,58.90920399967581,None,,2,001,2025-12-16_13h32.10.229,2025C_exp1_detect,2022.2.4,59.87339175150998,
29.4,45,0,1,-1,-1,0,5,5,185,58.90920399967581,58.90920399967581,59.40978939970955,59.476496999617666,59.52669409988448,59.52669409988448,59.52669409988448,59.52669409988448,59.57665029959753,59.57665029959753,59.57665029959753,59.57665029959753,59.57665029959753,59.57665029959753,59.57665029959753,59.57665029959753,59.57665029959753,59.57665029959753,num_3,13.924347400199622,73.52363889990374,73.52363889990374,None,,2,001,2025-12-16_13h32.10.229,2025C_exp1_detect,2022.2.4,59.87339175150998,
19.6,45,0,1,-1,0,0,6,6,38,73.52363889990374,73.52363889990374,74.02431269967929,74.09103669971228,74.14114800002426,74.14114800002426,74.14114800002426,74.14114800002426,74.1909478995949,74.1909478995949,74.1909478995949,74.1909478995949,74.1909478995949,74.1909478995949,74.1909478995949,74.1909478995949,74.1909478995949,74.1909478995949,num_3,1.6051849001087248,75.8258659997955,75.8258659997955,None,,2,001,2025-12-16_13h32.10.229,2025C_exp1_detect,2022.2.4,59.87339175150998,
22.7,315,1,0,1,-1,0,7,7,246,75.8258659997955,75.8258659997955,76.3267704998143,76.39351329999045,76.44378109974787,76.44378109974787,76.44378109974787,76.44378109974787,76.49359269998968,76.49359269998968,76.49359269998968,76.49359269998968,76.49359269998968,76.49359269998968,76.49359269998968,76.49359269998968,76.49359269998968,76.49359269998968,num_3,1.5907062003389,78.11158379958943,78.11158379958943,None,,2,001,2025-12-16_13h32.10.229,2025C_exp1_detect,2022.2.4,59.87339175150998,
29.4,315,0,0,-1,-1,0,8,8,158,78.11158379958943,78.11158379958943,78.61235759966075,78.67890849988908,78.72933609969914,78.72933609969914,78.72933609969914,78.72933609969914,78.77922859974205,78.77922859974205,78.77922859974205,78.77922859974205,78.77922859974205,78.77922859974205,78.77922859974205,78.77922859974205,78.77922859974205,78.77922859974205,num_3,0.7057047998532653,79.51294169994071,79.51294169994071,None,,2,001,2025-12-16_13h32.10.229,2025C_exp1_detect,2022.2.4,59.87339175150998,
22.7,315,1,0,1,0,0,9,9,102,79.51294169994071,79.51294169994071,80.01344659971073,80.0805895999074,80.1309389998205,80.1309389998205,80.1309389998205,80.1309389998205,80.1805602000095,80.1805602000095,80.1805602000095,80.1805602000095,80.1805602000095,80.1805602000095,80.1805602000095,80.1805602000095,80.1805602000095,80.1805602000095,num_3,0.727102099917829,80.93102379981428,80.93102379981428,None,,2,001,2025-12-16_13h32.10.229,2025C_exp1_detect,2022.2.4,59.87339175150998,
35.3,315,0,0,-1,-1,0,10,10,159,80.93102379981428,80.93102379981428,81.43149059964344,81.49851369997486,81.54869999969378,81.54869999969378,81.54869999969378,81.54869999969378,81.598545699846,81.598545699846,81.598545699846,81.598545699846,81.598545699846,81.598545699846,81.598545699846,81.598545699846,81.598545699846,81.598545699846,num_1,0.6775988000445068,82.29907769989222,82.29907769989222,None,,2,001,2025-12-16_13h32.10.229,2025C_exp1_detect,2022.2.4,59.87339175150998,
42.7,45,1,0,1,1,0,11,11,386,82.29907769989222,82.29907769989222,82.79981759982184,82.86634569987655,82.91685769986361,82.91685769986361,82.91685769986361,82.91685769986361,82.96674489974976,82.96674489974976,82.96674489974976,82.96674489974976,82.96674489974976,82.96674489974976,82.96674489974976,82.96674489974976,82.96674489974976,82.96674489974976,num_3,0.46203469997271895,83.45019819959998,83.45019819959998,None,,2,001,2025-12-16_13h32.10.229,2025C_exp1_detect,2022.2.4,59.87339175150998,
35.3,45,0,0,1,1,0,12,12,366,83.45019819959998,83.45019819959998,83.95075119985268,84.0177099998109,84.06799689959735,84.06799689959735,84.06799689959735,84.06799689959735,84.11773839965463,84.11773839965463,84.11773839965463,84.11773839965463,84.11773839965463,84.11773839965463,84.11773839965463,84.11773839965463,84.11773839965463,84.11773839965463,num_3,0.5746461004018784,84.71821429999545,84.71821429999545,None,,2,001,2025-12-16_13h32.10.229,2025C_exp1_detect,2022.2.4,59.87339175150998,
12.1,45,1,0,1,0,0,13,13,90,84.71821429999545,84.71821429999545,85.21906019980088,85.28565219976008,85.33606190001592,85.33606190001592,85.33606190001592,85.33606190001592,85.38580989977345,85.38580989977345,85.38580989977345,85.38580989977345,85.38580989977345,85.38580989977345,85.38580989977345,85.38580989977345,85.38580989977345,85.38580989977345,num_3,0.6017352999188006,86.0196925997734,86.0196925997734,None,,2,001,2025-12-16_13h32.10.229,2025C_exp1_detect,2022.2.4,59.87339175150998,
22.7,45,0,1,1,0,0,14,14,111,86.0196925997734,86.0196925997734,86.52027849992737,86.58706349972636,86.63722289958969,86.63722289958969,86.63722289958969,86.63722289958969,86.68710839981213,86.68710839981213,86.68710839981213,86.68710839981213,86.68710839981213,86.68710839981213,86.68710839981213,86.68710839981213,86.68710839981213,86.68710839981213,num_1,0.6537247002124786,87.37074319971725,87.37074319971725,None,,2,001,2025-12-16_13h32.10.229,2025C_exp1_detect,2022.2.4,59.87339175150998,
22.7,315,1,1,-1,-1,0,15,15,210,87.37074319971725,87.37074319971725,87.87159619992599,87.93821989977732,87.98847999982536,87.98847999982536,87.98847999982536,87.98847999982536,88.03819319978356,88.03819319978356,88.03819319978356,88.03819319978356,88.03819319978356,88.03819319978356,88.03819319978356,88.03819319978356,88.03819319978356,88.03819319978356,num_3,0.6454175002872944,88.70548299979419,88.70548299979419,None,,2,001,2025-12-16_13h32.10.229,2025C_exp1_detect,2022.2.4,59.87339175150998,
12.1,315,0,0,1,1,0,16,16,369,88.70548299979419,88.70548299979419,89.2064948999323,89.2732047997415,89.32352459989488,89.32352459989488,89.32352459989488,89.32352459989488,89.3732518996112,89.3732518996112,89.3732518996112,89.3732518996112,89.3732518996112,89.3732518996112,89.3732518996112,89.3732518996112,89.3732518996112,89.3732518996112,num_3,0.6715289000421762,90.07372129987925,90.07372129987925,None,,2,001,2025-12-16_13h32.10.229,2025C_exp1_detect,2022.2.4,59.87339175150998,
35.3,45,0,1,1,0,0,17,17,114,90.07372129987925,90.07372129987925,90.57431549998,90.64097539987415,90.69113209983334,90.69113209983334,90.69113209983334,90.69113209983334,90.74099949980155,90.74099949980155,90.74099949980155,90.74099949980155,90.74099949980155,90.74099949980155,90.74099949980155,90.74099949980155,90.74099949980155,90.74099949980155,num_3,0.6145968995988369,91.37485060002655,91.37485060002655,None,,2,001,2025-12-16_13h32.10.229,2025C_exp1_detect,2022.2.4,59.87339175150998,
29.4,45,0,0,-1,-1,0,18,18,149,91.37485060002655,91.37485060002655,91.87564469967037,91.94231559988111,91.99246810004115,91.99246810004115,91.99246810004115,91.99246810004115,92.04256960004568,92.04256960004568,92.04256960004568,92.04256960004568,92.04256960004568,92.04256960004568,92.04256960004568,92.04256960004568,92.04256960004568,92.04256960004568,num_1,0.5612316997721791,92.62618879973888,92.62618879973888,None,,2,001,2025-12-16_13h32.10.229,2025C_exp1_detect,2022.2.4,59.87339175150998,
12.1,45,1,1,-1,-1,0,19,19,198,92.62618879973888,92.62618879973888,93.12688239989802,93.19346809992567,93.2437327997759,93.2437327997759,93.2437327997759,93.2437327997759,93.29376379959285,93.29376379959285,93.29376379959285,93.29376379959285,93.29376379959285,93.29376379959285,93.29376379959285,93.29376379959285,93.29376379959285,93.29376379959285,num_1,0.6380778001621366,93.96069279965013,93.96069279965013,None,,2,001,2025-12-16_13h32.10.229,2025C_exp1_detect,2022.2.4,59.87339175150998,
19.6,45,0,0,-1,1,0,20,20,290,93.96069279965013,93.96069279965013,94.46148219984025,94.52818829985335,94.57867509964854,94.57867509964854,94.57867509964854,94.57867509964854,94.62808940000832,94.62808940000832,94.62808940000832,94.62808940000832,94.62808940000832,94.62808940000832,94.62808940000832,94.62808940000832,94.62808940000832,94.62808940000832,num_1,0.48867750028148293,95.1452871998772,95.1452871998772,None,,2,001,2025-12-16_13h32.10.229,2025C_exp1_detect,2022.2.4,59.87339175150998,
19.6,315,0,0,1,0,0,21,21,83,95.1452871998772,95.1452871998772,95.645983599592,95.71266820002347,95.76300779962912,95.76300779962912,95.76300779962912,95.76300779962912,95.81290799984708,95.81290799984708,95.81290799984708,95.81290799984708,95.81290799984708,95.81290799984708,95.81290799984708,95.81290799984708,95.81290799984708,95.81290799984708,num_3,0.7196188000962138,96.5634564999491,96.5634564999491,None,,2,001,2025-12-16_13h32.10.229,2025C_exp1_detect,2022.2.4,59.87339175150998,
42.7,45,0,0,-1,0,0,22,22,8,96.5634564999491,96.5634564999491,97.06406849995255,97.13078879984096,97.18108269991353,97.18108269991353,97.18108269991353,97.18108269991353,97.23082309961319,97.23082309961319,97.23082309961319,97.23082309961319,97.23082309961319,97.23082309961319,97.23082309961319,97.23082309961319,97.23082309961319,97.23082309961319,num_3,0.5010037999600172,97.76520789973438,97.76520789973438,None,,2,001,2025-12-16_13h32.10.229,2025C_exp1_detect,2022.2.4,59.87339175150998,
22.7,45,1,1,-1,1,0,23,23,345,97.76520789973438,97.76520789973438,98.26521399989724,98.33196449978277,98.38230129983276,98.38230129983276,98.38230129983276,98.38230129983276,98.43215909972787,98.43215909972787,98.43215909972787,98.43215909972787,98.43215909972787,98.43215909972787,98.43215909972787,98.43215909972787,98.43215909972787,98.43215909972787,num_1,0.6286498000845313,99.08249909989536,99.08249909989536,None,,2,001,2025-12-16_13h32.10.229,2025C_exp1_detect,2022.2.4,59.87339175150998,
35.3,45,0,1,1,1,0,24,24,402,99.08249909989536,99.08249909989536,99.5832848995924,99.64999209996313,99.70017219986767,99.70017219986767,99.70017219986767,99.70017219986767,99.75021799979731,99.75021799979731,99.75021799979731,99.75021799979731,99.75021799979731,99.75021799979731,99.75021799979731,99.75021799979731,99.75021799979731,99.75021799979731,num_3,0.5019988999702036,100.28374159988016,100.28374159988016,None,,2,001,2025-12-16_13h32.10.229,2025C_exp1_detect,2022.2.4,59.87339175150998,
39.2,315,0,1,1,0,0,25,25,124,100.28374159988016,100.28374159988016,100.78422469971702,100.85118439979851,100.90124109992757,100.90124109992757,100.90124109992757,100.90124109992757,100.95117399981245,100.95117399981245,100.95117399981245,100.95117399981245,100.95117399981245,100.95117399981245,100.95117399981245,100.95117399981245,100.95117399981245,100.95117399981245,num_3,0.43774190032854676,101.4181916997768,101.4181916997768,None,,2,001,2025-12-16_13h32.10.229,2025C_exp1_detect,2022.2.4,59.87339175150998,
39.2,45,0,1,1,0,0,26,26,115,101.4181916997768,101.4181916997768,101.91894609993324,101.98565499996766,102.03594570001587,102.03594570001587,102.03594570001587,102.03594570001587,102.08582789963111,102.08582789963111,102.08582789963111,102.08582789963111,102.08582789963111,102.08582789963111,102.08582789963111,102.08582789963111,102.08582789963111,102.08582789963111,num_3,0.4629720002412796,102.56926479982212,102.56926479982212,None,,2,001,2025-12-16_13h32.10.229,2025C_exp1_detect,2022.2.4,59.87339175150998,
15.7,315,1,0,-1,0,0,27,27,28,102.56926479982212,102.56926479982212,103.06993639981374,103.13682999974117,103.1871470999904,103.1871470999904,103.1871470999904,103.1871470999904,103.23699199967086,103.23699199967086,103.23699199967086,103.23699199967086,103.23699199967086,103.23699199967086,103.23699199967086,103.23699199967086,103.23699199967086,103.23699199967086,num_1,0.36758079985156655,103.63723659981042,103.63723659981042,None,,2,001,2025-12-16_13h32.10.229,2025C_exp1_detect,2022.2.4,59.87339175150998,
22.7,315,0,0,1,0,0,28,28,84,103.63723659981042,103.63723659981042,104.1377371000126,104.20455889962614,104.25486809993163,104.25486809993163,104.25486809993163,104.25486809993163,104.30452020000666,104.30452020000666,104.30452020000666,104.30452020000666,104.30452020000666,104.30452020000666,104.30452020000666,104.30452020000666,104.30452020000666,104.30452020000666,num_3,0.38840069994330406,104.72151289973408,104.72151289973408,None,,2,001,2025-12-16_13h32.10.229,2025C_exp1_detect,2022.2.4,59.87339175150998,
39.2,45,1,0,1,-1,0,29,29,241,104.72151289973408,104.72151289973408,105.22227129992098,105.28901119995862,105.33927179966122,105.33927179966122,105.33927179966122,105.33927179966122,105.38901059981436,105.38901059981436,105.38901059981436,105.38901059981436,105.38901059981436,105.38901059981436,105.38901059981436,105.38901059981436,105.38901059981436,105.38901059981436,num_3,0.48753059981390834,105.9061099998653,105.9061099998653,None,,2,001,2025-12-16_13h32.10.229,2025C_exp1_detect,2022.2.4,59.87339175150998,
15.7,315,1,1,-1,-1,0,30,30,208,105.9061099998653,105.9061099998653,106.40656000003219,106.47347670001909,106.52374639967456,106.52374639967456,106.52374639967456,106.52374639967456,106.57351289968938,106.57351289968938,106.57351289968938,106.57351289968938,106.57351289968938,106.57351289968938,106.57351289968938,106.57351289968938,106.57351289968938,106.57351289968938,num_3,0.6139611001126468,107.20744469994679,107.20744469994679,None,,2,001,2025-12-16_13h32.10.229,2025C_exp1_detect,2022.2.4,59.87339175150998,
22.7,315,1,0,1,1,0,31,31,390,107.20744469994679,107.20744469994679,107.70795199973509,107.77466949960217,107.82500769989565,107.82500769989565,107.82500769989565,107.82500769989565,107.87484379997477,107.87484379997477,107.87484379997477,107.87484379997477,107.87484379997477,107.87484379997477,107.87484379997477,107.87484379997477,107.87484379997477,107.87484379997477,num_3,0.47282430017367005,108.37518379976973,108.37518379976973,None,,2,001,2025-12-16_13h32.10.229,2025C_exp1_detect,2022.2.4,59.87339175150998,
22.7,45,1,1,1,1,0,32,32,417,108.37518379976973,108.37518379976973,108.87603759998456,108.94275229983032,108.99292579991743,108.99292579991743,108.99292579991743,108.99292579991743,109.04286189982668,109.04286189982668,109.04286189982668,109.04286189982668,109.04286189982668,109.04286189982668,109.04286189982668,109.04286189982668,109.04286189982668,109.04286189982668,num_3,0.6334126000292599,109.69315009983256,109.69315009983256,None,,2,001,2025-12-16_13h32.10.229,2025C_exp1_detect,2022.2.4,59.87339175150998,
35.3,315,1,0,-1,0,0,33,33,33,109.69315009983256,109.69315009983256,110.19397149980068,110.26057399995625,110.3109348998405,110.3109348998405,110.3109348998405,110.3109348998405,110.36082779988647,110.36082779988647,110.36082779988647,110.36082779988647,110.36082779988647,110.36082779988647,110.36082779988647,110.36082779988647,110.36082779988647,110.36082779988647,num_1,0.554775099735707,110.94434409961104,110.94434409961104,None,,2,001,2025-12-16_13h32.10.229,2025C_exp1_detect,2022.2.4,59.87339175150998,
29.4,45,0,1,-1,1,0,34,34,329,110.94434409961104,110.94434409961104,111.44539099978283,111.51206519966945,111.5624199998565,111.5624199998565,111.5624199998565,111.5624199998565,111.61190689960495,111.61190689960495,111.61190689960495,111.61190689960495,111.61190689960495,111.61190689960495,111.61190689960495,111.61190689960495,111.61190689960495,111.61190689960495,num_3,0.55198929971084,112.19585879985243,112.19585879985243,None,,2,001,2025-12-16_13h32.10.229,2025C_exp1_detect,2022.2.4,59.87339175150998,
39.2,315,1,0,1,1,0,35,35,394,112.19585879985243,112.19585879985243,112.69646500004455,112.7631902997382,112.81348139978945,112.81348139978945,112.81348139978945,112.81348139978945,112.86327699990943,112.86327699990943,112.86327699990943,112.86327699990943,112.86327699990943,112.86327699990943,112.86327699990943,112.86327699990943,112.86327699990943,112.86327699990943,num_3,0.6936396998353302,113.58038759976625,113.58038759976625,None,,2,001,2025-12-16_13h32.10.229,2025C_exp1_detect,2022.2.4,59.87339175150998,
35.3,315,0,1,-1,-1,0,36,36,195,113.58038759976625,113.58038759976625,114.08107639988884,114.14782069996,114.19814979983494,114.19814979983494,114.19814979983494,114.19814979983494,114.24790179962292,114.24790179962292,114.24790179962292,114.24790179962292,114.24790179962292,114.24790179962292,114.24790179962292,114.24790179962292,114.24790179962292,114.24790179962292,num_3,0.813005399890244,115.08199799992144,115.08199799992144,None,,2,001,2025-12-16_13h32.10.229,2025C_exp1_detect,2022.2.4,59.87339175150998,
12.1,315,1,0,-1,-1,0,37,37,171,115.08199799992144,115.08199799992144,115.58261679997668,115.64929339988157,115.69958239980042,115.69958239980042,115.69958239980042,115.69958239980042,115.74947879975662,115.74947879975662,115.74947879975662,115.74947879975662,115.74947879975662,115.74947879975662,115.74947879975662,115.74947879975662,115.74947879975662,115.74947879975662,num_1,0.5583759997971356,116.33317029988393,116.33317029988393,None,,2,001,2025-12-16_13h32.10.229,2025C_exp1_detect,2022.2.4,59.87339175150998,
25.5,45,1,0,1,0,0,38,38,94,116.33317029988393,116.33317029988393,116.83388169994578,116.90062649967149,116.95099879987538,116.95099879987538,116.95099879987538,116.95099879987538,117.00090949982405,117.00090949982405,117.00090949982405,117.00090949982405,117.00090949982405,117.00090949982405,117.00090949982405,117.00090949982405,117.00090949982405,117.00090949982405,num_3,0.4345431001856923,117.46778489975259,117.46778489975259,None,,2,001,2025-12-16_13h32.10.229,2025C_exp1_detect,2022.2.4,59.87339175150998,
29.4,315,1,0,-1,1,0,39,39,320,117.46778489975259,117.46778489975259,117.96846289979294,118.03517909999937,118.08533819997683,118.08533819997683,118.08533819997683,118.08533819997683,118.13520539971069,118.13520539971069,118.13520539971069,118.13520539971069,118.13520539971069,118.13520539971069,118.13520539971069,118.13520539971069,118.13520539971069,118.13520539971069,num_1,0.5329809002578259,118.68543089972809,118.68543089972809,None,,2,001,2025-12-16_13h32.10.229,2025C_exp1_detect,2022.2.4,59.87339175150998,
12.1,315,1,1,-1,0,0,40,40,63,118.68543089972809,118.68543089972809,119.18624019995332,119.25304549979046,119.30320459976792,119.30320459976792,119.30320459976792,119.30320459976792,119.35322259971872,119.35322259971872,119.35322259971872,119.35322259971872,119.35322259971872,119.35322259971872,119.35322259971872,119.35322259971872,119.35322259971872,119.35322259971872,num_1,0.610395799856633,119.99954049987718,119.99954049987718,None,,2,001,2025-12-16_13h32.10.229,2025C_exp1_detect,2022.2.4,59.87339175150998,
15.7,45,1,0,-1,0,0,41,41,19,119.99954049987718,119.99954049987718,120.4876174996607,120.5542144998908,120.6045111999847,120.6045111999847,120.6045111999847,120.6045111999847,120.65418659988791,120.65418659988791,120.65418659988791,120.65418659988791,120.65418659988791,120.65418659988791,120.67107689986005,120.67107689986005,120.67107689986005,120.67107689986005,num_1,0.5822445997036994,121.27162959985435,121.27162959985435,None,,2,001,2025-12-16_13h32.10.229,2025C_exp1_detect,2022.2.4,59.87339175150998,
39.2,315,1,1,1,0,0,42,42,142,121.27162959985435,121.27162959985435,121.77178139984608,121.83880879962817,121.88909399975091,121.88909399975091,121.88909399975091,121.88909399975091,121.93885529972613,121.93885529972613,121.93885529972613,121.93885529972613,121.93885529972613,121.93885529972613,121.93885529972613,121.93885529972613,121.93885529972613,121.93885529972613,num_3,0.4978039995767176,122.45591729972512,122.45591729972512,None,,2,001,2025-12-16_13h32.10.229,2025C_exp1_detect,2022.2.4,59.87339175150998,
12.1,45,1,1,1,1,0,43,43,414,122.45591729972512,122.45591729972512,122.95661889994517,123.0233411998488,123.07366589969024,123.07366589969024,123.07366589969024,123.07366589969024,123.1234726998955,123.1234726998955,123.1234726998955,123.1234726998955,123.1234726998955,123.1234726998955,123.1234726998955,123.1234726998955,123.1234726998955,123.1234726998955,num_3,0.7441731002181768,123.89063739962876,123.89063739962876,None,,2,001,2025-12-16_13h32.10.229,2025C_exp1_detect,2022.2.4,59.87339175150998,
12.1,45,1,1,-1,1,0,44,44,342,123.89063739962876,123.89063739962876,124.39139059977606,124.45805939985439,124.5083997999318,124.5083997999318,124.5083997999318,124.5083997999318,124.55825449991971,124.55825449991971,124.55825449991971,124.55825449991971,124.55825449991971,124.55825449991971,124.55825449991971,124.55825449991971,124.55825449991971,124.55825449991971,num_3,0.9099866999313235,125.49224259983748,125.49224259983748,None,,2,001,2025-12-16_13h32.10.229,2025C_exp1_detect,2022.2.4,59.87339175150998,
29.4,315,1,1,-1,1,0,45,45,356,125.49224259983748,125.49224259983748,125.99300559982657,126.059683999978,126.10988469980657,126.10988469980657,126.10988469980657,126.10988469980657,126.15976479975507,126.15976479975507,126.15976479975507,126.15976479975507,126.15976479975507,126.15976479975507,126.15976479975507,126.15976479975507,126.15976479975507,126.15976479975507,num_1,0.588083999697119,126.7769615999423,126.7769615999423,None,,2,001,2025-12-16_13h32.10.229,2025C_exp1_detect,2022.2.4,59.87339175150998,
25.5,45,1,1,1,1,0,46,46,418,126.7769615999423,126.7769615999423,127.27754859998822,127.34436269989237,127.39458099985495,127.39458099985495,127.39458099985495,127.39458099985495,127.4444132996723,127.4444132996723,127.4444132996723,127.4444132996723,127.4444132996723,127.4444132996723,127.4444132996723,127.4444132996723,127.4444132996723,127.4444132996723,num_3,0.4151369002647698,127.87793819978833,127.87793819978833,None,,2,001,2025-12-16_13h32.10.229,2025C_exp1_detect,2022.2.4,59.87339175150998,
22.7,45,1,1,1,-1,0,47,47,273,127.87793819978833,127.87793819978833,128.37887079967186,128.4455951997079,128.49588369997218,128.49588369997218,128.49588369997218,128.49588369997218,128.54573559993878,128.54573559993878,128.54573559993878,128.54573559993878,128.54573559993878,128.54573559993878,128.54573559993878,128.54573559993878,128.54573559993878,128.54573559993878,num_3,0.45008109975606203,129.01238769991323,129.01238769991323,None,,2,001,2025-12-16_13h32.10.229,2025C_exp1_detect,2022.2.4,59.87339175150998,
25.5,45,0,0,-1,-1,0,48,48,148,129.01238769991323,129.01238769991323,129.51328569976613,129.57988039962947,129.63013259973377,129.63013259973377,129.63013259973377,129.63013259973377,129.68005579989403,129.68005579989403,129.68005579989403,129.68005579989403,129.68005579989403,129.68005579989403,129.68005579989403,129.68005579989403,129.68005579989403,129.68005579989403,num_1,0.46788799995556474,130.18044349970296,130.18044349970296,None,,2,001,2025-12-16_13h32.10.229,2025C_exp1_detect,2022.2.4,59.87339175150998,
25.5,45,0,1,1,-1,0,49,49,256,130.18044349970296,130.18044349970296,130.68101819977164,130.74775750003755,130.79789959965274,130.79789959965274,130.79789959965274,130.79789959965274,130.84764909977093,130.84764909977093,130.84764909977093,130.84764909977093,130.84764909977093,130.84764909977093,130.84764909977093,130.84764909977093,130.84764909977093,130.84764909977093,num_3,0.5092973001301289,131.38144649984315,131.38144649984315,None,,2,001,2025-12-16_13h32.10.229,2025C_exp1_detect,2022.2.4,59.87339175150998,
12.1,315,0,0,-1,-1,0,50,50,153,131.38144649984315,131.38144649984315,131.88234269991517,131.94907619990408,131.99931239988655,131.99931239988655,131.99931239988655,131.99931239988655,132.04913019994274,132.04913019994274,132.04913019994274,132.04913019994274,132.04913019994274,132.04913019994274,132.04913019994274,132.04913019994274,132.04913019994274,132.04913019994274,num_3,0.498832100071013,132.56598539976403,132.56598539976403,None,,2,001,2025-12-16_13h32.10.229,2025C_exp1_detect,2022.2.4,59.87339175150998,
29.4,315,0,1,1,-1,0,51,51,266,132.56598539976403,132.56598539976403,133.0667329998687,133.1333746998571,133.18365899985656,133.18365899985656,133.18365899985656,133.18365899985656,133.23360419971868,133.23360419971868,133.23360419971868,133.23360419971868,133.23360419971868,133.23360419971868,133.23360419971868,133.23360419971868,133.23360419971868,133.23360419971868,num_3,0.5464960001409054,133.8006155998446,133.8006155998446,None,,2,001,2025-12-16_13h32.10.229,2025C_exp1_detect,2022.2.4,59.87339175150998,
19.6,315,0,0,1,1,0,52,52,371,133.8006155998446,133.8006155998446,134.30102529982105,134.36793009983376,134.41831529978663,134.41831529978663,134.41831529978663,134.41831529978663,134.46790269995108,134.46790269995108,134.46790269995108,134.46790269995108,134.46790269995108,134.46790269995108,134.46790269995108,134.46790269995108,134.46790269995108,134.46790269995108,num_3,0.48775630025193095,134.98518379963934,134.98518379963934,None,,2,001,2025-12-16_13h32.10.229,2025C_exp1_detect,2022.2.4,59.87339175150998,
19.6,45,1,0,1,1,0,53,53,380,134.98518379963934,134.98518379963934,135.4858333999291,135.55268229963258,135.60285819973797,135.60285819973797,135.60285819973797,135.60285819973797,135.65256919991225,135.65256919991225,135.65256919991225,135.65256919991225,135.65256919991225,135.65256919991225,135.65256919991225,135.65256919991225,135.65256919991225,135.65256919991225,num_3,0.42433829978108406,136.10286069987342,136.10286069987342,None,,2,001,2025-12-16_13h32.10.229,2025C_exp1_detect,2022.2.4,59.87339175150998,
25.5,45,1,1,-1,0,0,54,54,58,136.10286069987342,136.10286069987342,136.60357289994135,136.67035659961402,136.72059000004083,136.72059000004083,136.72059000004083,136.72059000004083,136.77042729966342,136.77042729966342,136.77042729966342,136.77042729966342,136.77042729966342,136.77042729966342,136.77042729966342,136.77042729966342,136.77042729966342,136.77042729966342,num_3,0.689272299874574,137.4876166000031,137.4876166000031,None,,2,001,2025-12-16_13h32.10.229,2025C_exp1_detect,2022.2.4,59.87339175150998,
39.2,45,0,0,-1,0,0,55,55,7,137.4876166000031,137.4876166000031,137.98830709978938,138.05513949971646,138.10538149997592,138.10538149997592,138.10538149997592,138.10538149997592,138.1552750999108,138.1552750999108,138.1552750999108,138.1552750999108,138.1552750999108,138.1552750999108,138.1552750999108,138.1552750999108,138.1552750999108,138.1552750999108,num_3,0.4806558000855148,138.6557533997111,138.6557533997111,None,,2,001,2025-12-16_13h32.10.229,2025C_exp1_detect,2022.2.4,59.87339175150998,
39.2,315,0,0,1,1,0,56,56,376,138.6557533997111,138.6557533997111,139.15625949995592,139.22279819985852,139.27325129974633,139.27325129974633,139.27325129974633,139.27325129974633,139.32309499988332,139.32309499988332,139.32309499988332,139.32309499988332,139.32309499988332,139.32309499988332,139.32309499988332,139.32309499988332,139.32309499988332,139.32309499988332,num_3,0.441559299826622,139.78987789992243,139.78987789992243,None,,2,001,2025-12-16_13h32.10.229,2025C_exp1_detect,2022.2.4,59.87339175150998,
15.7,315,0,0,1,0,0,57,57,82,139.78987789992243,139.78987789992243,140.29063759976998,140.35735369985923,140.40767379989848,140.40767379989848,140.40767379989848,140.40767379989848,140.4575618999079,140.4575618999079,140.4575618999079,140.4575618999079,140.4575618999079,140.4575618999079,140.4575618999079,140.4575618999079,140.4575618999079,140.4575618999079,num_3,0.4420190998353064,140.92436710000038,140.92436710000038,None,,2,001,2025-12-16_13h32.10.229,2025C_exp1_detect,2022.2.4,59.87339175150998,
25.5,315,0,0,1,1,0,58,58,373,140.92436710000038,140.92436710000038,141.42511419998482,141.49181219981983,141.54211889998987,141.54211889998987,141.54211889998987,141.54211889998987,141.59190410003066,141.59190410003066,141.59190410003066,141.59190410003066,141.59190410003066,141.59190410003066,141.59190410003066,141.59190410003066,141.59190410003066,141.59190410003066,num_3,0.4049630002118647,142.0258561000228,142.0258561000228,None,,2,001,2025-12-16_13h32.10.229,2025C_exp1_detect,2022.2.4,59.87339175150998,
19.6,315,0,1,1,0,0,59,59,119,142.0258561000228,142.0258561000228,142.52620639977977,142.59263450000435,142.6428930000402,142.6428930000402,142.6428930000402,142.6428930000402,142.69283259985968,142.69283259985968,142.69283259985968,142.69283259985968,142.69283259985968,142.69283259985968,142.69283259985968,142.69283259985968,142.69283259985968,142.69283259985968,num_1,0.7427709996700287,143.46032830001786,143.46032830001786,None,,2,001,2025-12-16_13h32.10.229,2025C_exp1_detect,2022.2.4,59.87339175150998,
22.7,315,0,0,1,1,0,60,60,372,143.46032830001786,143.46032830001786,143.9608628996648,144.02760379994288,144.07799179991707,144.07799179991707,144.07799179991707,144.07799179991707,144.12786879995838,144.12786879995838,144.12786879995838,144.12786879995838,144.12786879995838,144.12786879995838,144.12786879995838,144.12786879995838,144.12786879995838,144.12786879995838,num_3,0.5162858003750443,144.66138939978555,144.66138939978555,None,,2,001,2025-12-16_13h32.10.229,2025C_exp1_detect,2022.2.4,59.87339175150998,
15.7,315,0,1,-1,0,0,61,61,46,144.66138939978555,144.66138939978555,145.162213599775,145.22899869969115,145.2792985998094,145.2792985998094,145.2792985998094,145.2792985998094,145.3290303996764,145.3290303996764,145.3290303996764,145.3290303996764,145.3290303996764,145.3290303996764,145.3290303996764,145.3290303996764,145.3290303996764,145.3290303996764,num_3,0.8670867001637816,146.21291549969465,146.21291549969465,None,,2,001,2025-12-16_13h32.10.229,2025C_exp1_detect,2022.2.4,59.87339175150998,
39.2,45,1,1,-1,1,0,62,62,349,146.21291549969465,146.21291549969465,146.71371109969914,146.78039889968932,146.83057879982516,146.83057879982516,146.83057879982516,146.83057879982516,146.88045399961993,146.88045399961993,146.88045399961993,146.88045399961993,146.88045399961993,146.88045399961993,146.88045399961993,146.88045399961993,146.88045399961993,146.88045399961993,num_3,0.8122721002437174,147.7144979997538,147.7144979997538,None,,2,001,2025-12-16_13h32.10.229,2025C_exp1_detect,2022.2.4,59.87339175150998,
25.5,315,0,0,-1,1,0,63,63,301,147.7144979997538,147.7144979997538,148.21519450005144,148.2819246998988,148.33222129987553,148.33222129987553,148.33222129987553,148.33222129987553,148.38207589974627,148.38207589974627,148.38207589974627,148.38207589974627,148.38207589974627,148.38207589974627,148.38207589974627,148.38207589974627,148.38207589974627,148.38207589974627,num_3,0.3975553000345826,148.79890419961885,148.79890419961885,None,,2,001,2025-12-16_13h32.10.229,2025C_exp1_detect,2022.2.4,59.87339175150998,
25.5,315,1,1,-1,1,0,64,64,355,148.79890419961885,148.79890419961885,149.2996740997769,149.36629809997976,149.416639899835,149.416639899835,149.416639899835,149.416639899835,149.46651729987934,149.46651729987934,149.46651729987934,149.46651729987934,149.46651729987934,149.46651729987934,149.46651729987934,149.46651729987934,149.46651729987934,149.46651729987934,num_1,0.5210889000445604,150.01670859986916,150.01670859986916,None,,2,001,2025-12-16_13h32.10.229,2025C_exp1_detect,2022.2.4,59.87339175150998,
25.5,315,1,0,1,-1,0,65,65,247,150.01670859986916,150.01670859986916,150.51753610000014,150.58412699960172,150.63443099986762,150.63443099986762,150.63443099986762,150.63443099986762,150.6844253996387,150.6844253996387,150.6844253996387,150.6844253996387,150.6844253996387,150.6844253996387,150.6844253996387,150.6844253996387,150.6844253996387,150.6844253996387,num_3,0.42439049994572997,151.13457169989124,151.13457169989124,None,,2,001,2025-12-16_13h32.10.229,2025C_exp1_detect,2022.2.4,59.87339175150998,
22.7,45,0,1,1,1,0,66,66,399,151.13457169989124,151.13457169989124,151.63530139997602,151.70216239988804,151.75231459969655,151.75231459969655,151.75231459969655,151.75231459969655,151.80209359992296,151.80209359992296,151.80209359992296,151.80209359992296,151.80209359992296,151.80209359992296,151.80209359992296,151.80209359992296,151.80209359992296,151.80209359992296,num_3,0.33829899970442057,152.16894839983433,152.16894839983433,None,,2,001,2025-12-16_13h32.10.229,2025C_exp1_detect,2022.2.4,59.87339175150998,
35.3,315,0,0,-1,1,0,67,67,303,152.16894839983433,152.16894839983433,152.66986919986084,152.736545199994,152.78681049961597,152.78681049961597,152.78681049961597,152.78681049961597,152.83659720001742,152.83659720001742,152.83659720001742,152.83659720001742,152.83659720001742,152.83659720001742,152.83659720001742,152.83659720001742,152.83659720001742,152.83659720001742,num_3,0.18319060001522303,153.03649079985917,153.03649079985917,None,,2,001,2025-12-16_13h32.10.229,2025C_exp1_detect,2022.2.4,59.87339175150998,
19.6,315,1,0,1,-1,0,68,68,245,153.03649079985917,153.03649079985917,153.53723309980705,153.6039670999162,153.65400599967688,153.65400599967688,153.65400599967688,153.65400599967688,153.70376749988645,153.70376749988645,153.70376749988645,153.70376749988645,153.70376749988645,153.70376749988645,153.70376749988645,153.70376749988645,153.70376749988645,153.70376749988645,num_3,0.21160840010270476,153.93726899987087,153.93726899987087,None,,2,001,2025-12-16_13h32.10.229,2025C_exp1_detect,2022.2.4,59.87339175150998,
12.1,45,0,0,1,0,0,69,69,72,153.93726899987087,153.93726899987087,154.43821449996904,154.50479679973796,154.55510549992323,154.55510549992323,154.55510549992323,154.55510549992323,154.6046885997057,154.6046885997057,154.6046885997057,154.6046885997057,154.6046885997057,154.6046885997057,154.6046885997057,154.6046885997057,154.6046885997057,154.6046885997057,num_1,0.11156299989670515,154.7381846997887,154.7381846997887,None,,2,001,2025-12-16_13h32.10.229,2025C_exp1_detect,2022.2.4,59.87339175150998,
22.7,45,0,0,-1,0,0,70,70,3,154.7381846997887,154.7381846997887,155.23887360002846,155.305443899706,155.35563179990277,155.35563179990277,155.35563179990277,155.35563179990277,155.40571809979156,155.40571809979156,155.40571809979156,155.40571809979156,155.40571809979156,155.40571809979156,155.40571809979156,155.40571809979156,155.40571809979156,155.40571809979156,num_3,0.5900995996780694,156.02286509983242,156.02286509983242,None,,2,001,2025-12-16_13h32.10.229,2025C_exp1_detect,2022.2.4,59.87339175150998,
15.7,315,1,1,1,1,0,71,71,424,156.02286509983242,156.02286509983242,156.5234546996653,156.5902815000154,156.6405211999081,156.6405211999081,156.6405211999081,156.6405211999081,156.69020429998636,156.69020429998636,156.69020429998636,156.69020429998636,156.69020429998636,156.69020429998636,156.69020429998636,156.69020429998636,156.69020429998636,156.69020429998636,num_3,1.0492507996968925,157.75780839985237,157.75780839985237,None,,2,001,2025-12-16_13h32.10.229,2025C_exp1_detect,2022.2.4,59.87339175150998,
35.3,315,0,1,-1,1,0,72,72,339,157.75780839985237,157.75780839985237,158.2584754996933,158.3253003996797,158.37554010003805,158.37554010003805,158.37554010003805,158.37554010003805,158.42547270003706,158.42547270003706,158.42547270003706,158.42547270003706,158.42547270003706,158.42547270003706,158.42547270003706,158.42547270003706,158.42547270003706,158.42547270003706,num_1,0.5388155002146959,158.99247809965163,158.99247809965163,None,,2,001,2025-12-16_13h32.10.229,2025C_exp1_detect,2022.2.4,59.87339175150998,
35.3,45,1,1,-1,-1,0,73,73,204,158.99247809965163,158.99247809965163,159.49302109982818,159.55980749987066,159.61010129982606,159.61010129982606,159.61010129982606,159.61010129982606,159.66001929994673,159.66001929994673,159.66001929994673,159.66001929994673,159.66001929994673,159.66001929994673,159.66001929994673,159.66001929994673,159.66001929994673,159.66001929994673,num_1,0.3526966003701091,160.04353229980916,160.04353229980916,None,,2,001,2025-12-16_13h32.10.229,2025C_exp1_detect,2022.2.4,59.87339175150998,
15.7,315,1,0,1,1,0,74,74,388,160.04353229980916,160.04353229980916,160.5441916999407,160.61089689983055,160.6612257999368,160.6612257999368,160.6612257999368,160.6612257999368,160.71110789990053,160.71110789990053,160.71110789990053,160.71110789990053,160.71110789990053,160.71110789990053,160.71110789990053,160.71110789990053,160.71110789990053,160.71110789990053,num_1,0.24496449995785952,160.97767139971256,160.97767139971256,None,,2,001,2025-12-16_13h32.10.229,2025C_exp1_detect,2022.2.4,59.87339175150998,
35.3,315,1,1,1,0,0,75,75,141,160.97767139971256,160.97767139971256,161.4782981998287,161.54519400000572,161.59547439962626,161.59547439962626,161.59547439962626,161.59547439962626,161.64517119992524,161.64517119992524,161.64517119992524,161.64517119992524,161.64517119992524,161.64517119992524,161.64517119992524,161.64517119992524,161.64517119992524,161.64517119992524,num_3,0.24729680037125945,161.9120199996978,161.9120199996978,None,,2,001,2025-12-16_13h32.10.229,2025C_exp1_detect,2022.2.4,59.87339175150998,
25.5,45,1,0,-1,-1,0,76,76,166,161.9120199996978,161.9120199996978,162.41272899974138,162.47944789985195,162.5297427000478,162.5297427000478,162.5297427000478,162.5297427000478,162.5794995999895,162.5794995999895,162.5794995999895,162.5794995999895,162.5794995999895,162.5794995999895,162.5794995999895,162.5794995999895,162.5794995999895,162.5794995999895,num_1,0.4001210001297295,162.99656149977818,162.99656149977818,None,,2,001,2025-12-16_13h32.10.229,2025C_exp1_detect,2022.2.4,59.87339175150998,
12.1,315,1,0,1,-1,0,77,77,243,162.99656149977818,162.99656149977818,163.49732229998335,163.56361910002306,163.61420459998772,163.61420459998772,163.61420459998772,163.61420459998772,163.66391399968415,163.66391399968415,163.66391399968415,163.66391399968415,163.66391399968415,163.66391399968415,163.66391399968415,163.66391399968415,163.66391399968415,163.66391399968415,num_1,0.34096920024603605,164.03078719973564,164.03078719973564,None,,2,001,2025-12-16_13h32.10.229,2025C_exp1_detect,2022.2.4,59.87339175150998,
22.7,45,1,0,-1,-1,0,78,78,165,164.03078719973564,164.03078719973564,164.53151270002127,164.59821589989588,164.64829849964008,164.64829849964008,164.64829849964008,164.64829849964008,164.69839869998395,164.69839869998395,164.69839869998395,164.69839869998395,164.69839869998395,164.69839869998395,164.69839869998395,164.69839869998395,164.69839869998395,164.69839869998395,num_3,0.24911249987781048,164.965080099646,164.965080099646,None,,2,001,2025-12-16_13h32.10.229,2025C_exp1_detect,2022.2.4,59.87339175150998,
22.7,315,0,1,1,1,0,79,79,408,164.965080099646,164.965080099646,165.4656034996733,165.53239149972796,165.58275359962136,165.58275359962136,165.58275359962136,165.58275359962136,165.63264680001885,165.63264680001885,165.63264680001885,165.63264680001885,165.63264680001885,165.63264680001885,165.63264680001885,165.63264680001885,165.63264680001885,165.63264680001885,num_3,0.2669711001217365,165.9159627999179,165.9159627999179,None,,2,001,2025-12-16_13h32.10.229,2025C_exp1_detect,2022.2.4,59.87339175150998,
42.7,315,0,0,-1,1,0,80,80,305,165.9159627999179,165.9159627999179,166.416647200007,166.4834912000224,166.53368159988895,166.53368159988895,166.53368159988895,166.53368159988895,166.5834768996574,166.5834768996574,166.5834768996574,166.5834768996574,166.5834768996574,166.5834768996574,166.5834768996574,166.5834768996574,166.5834768996574,166.5834768996574,num_3,0.35691130021587014,166.96700949966908,166.96700949966908,None,,2,001,2025-12-16_13h32.10.229,2025C_exp1_detect,2022.2.4,59.87339175150998,
12.1,315,0,1,1,0,0,81,81,117,166.96700949966908,166.96700949966908,167.46764559997246,167.53430449962616,167.58453219989315,167.58453219989315,167.58453219989315,167.58453219989315,167.63445229968056,167.63445229968056,167.63445229968056,167.63445229968056,167.63445229968056,167.63445229968056,167.63445229968056,167.63445229968056,167.63445229968056,167.63445229968056,num_3,0.3460528999567032,168.00172649975866,168.00172649975866,None,,2,001,2025-12-16_13h32.10.229,2025C_exp1_detect,2022.2.4,59.87339175150998,
29.4,315,1,1,-1,0,0,82,82,68,168.00172649975866,168.00172649975866,168.50222819996998,168.56889149965718,168.6192369000055,168.6192369000055,168.6192369000055,168.6192369000055,168.66916489973664,168.66916489973664,168.66916489973664,168.66916489973664,168.66916489973664,168.66916489973664,168.66916489973664,168.66916489973664,168.66916489973664,168.66916489973664,num_3,0.4555116002447903,169.1525123999454,169.1525123999454,None,,2,001,2025-12-16_13h32.10.229,2025C_exp1_detect,2022.2.4,59.87339175150998,
39.2,45,0,1,-1,1,0,83,83,331,169.1525123999454,169.1525123999454,169.65301109990105,169.71986879967153,169.7703318996355,169.7703318996355,169.7703318996355,169.7703318996355,169.82015709998086,169.82015709998086,169.82015709998086,169.82015709998086,169.82015709998086,169.82015709998086,169.82015709998086,169.82015709998086,169.82015709998086,169.82015709998086,num_1,0.24027829989790916,170.0867715999484,170.0867715999484,None,,2,001,2025-12-16_13h32.10.229,2025C_exp1_detect,2022.2.4,59.87339175150998,
22.7,45,1,0,1,0,0,84,84,93,170.0867715999484,170.0867715999484,170.58756999997422,170.65431739995256,170.70459479978308,170.70459479978308,170.70459479978308,170.70459479978308,170.7544619999826,170.7544619999826,170.7544619999826,170.7544619999826,170.7544619999826,170.7544619999826,170.7544619999826,170.7544619999826,170.7544619999826,170.7544619999826,num_1,0.2976642004214227,171.07111210003495,171.07111210003495,None,,2,001,2025-12-16_13h32.10.229,2025C_exp1_detect,2022.2.4,59.87339175150998,
15.7,45,1,1,1,1,0,85,85,415,171.07111210003495,171.07111210003495,171.57190619967878,171.63842900004238,171.68860520003363,171.68860520003363,171.68860520003363,171.68860520003363,171.73847569990903,171.73847569990903,171.73847569990903,171.73847569990903,171.73847569990903,171.73847569990903,171.73847569990903,171.73847569990903,171.73847569990903,171.73847569990903,num_3,0.1938426000997424,171.95539749972522,171.95539749972522,None,,2,001,2025-12-16_13h32.10.229,2025C_exp1_detect,2022.2.4,59.87339175150998,
39.2,315,1,1,1,-1,0,86,86,286,171.95539749972522,171.95539749972522,172.4562451997772,172.52297599986196,172.57321389997378,172.57321389997378,172.57321389997378,172.57321389997378,172.6231375997886,172.6231375997886,172.6231375997886,172.6231375997886,172.6231375997886,172.6231375997886,172.6231375997886,172.6231375997886,172.6231375997886,172.6231375997886,num_3,0.23647479992359877,172.88983949972317,172.88983949972317,None,,2,001,2025-12-16_13h32.10.229,2025C_exp1_detect,2022.2.4,59.87339175150998,
12.1,45,1,1,1,-1,0,87,87,270,172.88983949972317,172.88983949972317,173.39038220001385,173.45711119985208,173.50752280000597,173.50752280000597,173.50752280000597,173.50752280000597,173.55726319970563,173.55726319970563,173.55726319970563,173.55726319970563,173.55726319970563,173.55726319970563,173.55726319970563,173.55726319970563,173.55726319970563,173.55726319970563,num_1,0.3590590003877878,173.94071819959208,173.94071819959208,None,,2,001,2025-12-16_13h32.10.229,2025C_exp1_detect,2022.2.4,59.87339175150998,
35.3,45,0,0,-1,-1,0,88,88,150,173.94071819959208,173.94071819959208,174.44145569996908,174.5081471996382,174.55843719979748,174.55843719979748,174.55843719979748,174.55843719979748,174.60814559971914,174.60814559971914,174.60814559971914,174.60814559971914,174.60814559971914,174.60814559971914,174.60814559971914,174.60814559971914,174.60814559971914,174.60814559971914,num_3,0.4127599000930786,175.04179279971868,175.04179279971868,None,,2,001,2025-12-16_13h32.10.229,2025C_exp1_detect,2022.2.4,59.87339175150998,
35.3,315,0,1,-1,0,0,89,89,51,175.04179279971868,175.04179279971868,175.54249739972875,175.60916369967163,175.65940660005435,175.65940660005435,175.65940660005435,175.65940660005435,175.70943879988045,175.70943879988045,175.70943879988045,175.70943879988045,175.70943879988045,175.70943879988045,175.70943879988045,175.70943879988045,175.70943879988045,175.70943879988045,num_3,0.6150210998021066,176.34315229998901,176.34315229998901,None,,2,001,2025-12-16_13h32.10.229,2025C_exp1_detect,2022.2.4,59.87339175150998,
12.1,315,0,1,-1,-1,0,90,90,189,176.34315229998901,176.34315229998901,176.84397429972887,176.9106868999079,176.96098779980093,176.96098779980093,176.96098779980093,176.96098779980093,177.01089379983023,177.01089379983023,177.01089379983023,177.01089379983023,177.01089379983023,177.01089379983023,177.01089379983023,177.01089379983023,177.01089379983023,177.01089379983023,num_3,0.4416545000858605,177.47763729980215,177.47763729980215,None,,2,001,2025-12-16_13h32.10.229,2025C_exp1_detect,2022.2.4,59.87339175150998,
25.5,315,0,0,1,0,0,91,91,85,177.47763729980215,177.47763729980215,177.9780321000144,178.04511259961873,178.0953840999864,178.0953840999864,178.0953840999864,178.0953840999864,178.14520979998633,178.14520979998633,178.14520979998633,178.14520979998633,178.14520979998633,178.14520979998633,178.14520979998633,178.14520979998633,178.14520979998633,178.14520979998633,num_3,0.41895970003679395,178.5955405998975,178.5955405998975,None,,2,001,2025-12-16_13h32.10.229,2025C_exp1_detect,2022.2.4,59.87339175150998,
35.3,315,0,1,1,0,0,92,92,123,178.5955405998975,178.5955405998975,179.09591949963942,179.16279800003394,179.21310219960287,179.21310219960287,179.21310219960287,179.21310219960287,179.2629729998298,179.2629729998298,179.2629729998298,179.2629729998298,179.2629729998298,179.2629729998298,179.2629729998298,179.2629729998298,179.2629729998298,179.2629729998298,num_1,0.48441810021176934,179.78011749964207,179.78011749964207,None,,2,001,2025-12-16_13h32.10.229,2025C_exp1_detect,2022.2.4,59.87339175150998,
42.7,45,1,0,1,0,0,93,93,98,179.78011749964207,179.78011749964207,180.28059259988368,180.34728799993172,180.39738129964098,180.39738129964098,180.39738129964098,180.39738129964098,180.447169999592,180.447169999592,180.447169999592,180.447169999592,180.447169999592,180.447169999592,180.447169999592,180.447169999592,180.447169999592,180.447169999592,num_3,0.4535197000950575,180.9310599998571,180.9310599998571,None,,2,001,2025-12-16_13h32.10.229,2025C_exp1_detect,2022.2.4,59.87339175150998,
15.7,45,1,1,-1,0,0,94,94,55,180.9310599998571,180.9310599998571,181.4316531997174,181.49851539963856,181.5487234997563,181.5487234997563,181.5487234997563,181.5487234997563,181.59859739989042,181.59859739989042,181.59859739989042,181.59859739989042,181.59859739989042,181.59859739989042,181.59859739989042,181.59859739989042,181.59859739989042,181.59859739989042,num_1,0.49334169970825315,182.11545239994302,182.11545239994302,None,,2,001,2025-12-16_13h32.10.229,2025C_exp1_detect,2022.2.4,59.87339175150998,
19.6,315,0,1,-1,0,0,95,95,47,182.11545239994302,182.11545239994302,182.61636869981885,182.68295619962737,182.73328479984775,182.73328479984775,182.73328479984775,182.73328479984775,182.78315329970792,182.78315329970792,182.78315329970792,182.78315329970792,182.78315329970792,182.78315329970792,182.78315329970792,182.78315329970792,182.78315329970792,182.78315329970792,num_3,0.2933982997201383,183.09989389963448,183.09989389963448,None,,2,001,2025-12-16_13h32.10.229,2025C_exp1_detect,2022.2.4,59.87339175150998,
39.2,315,0,0,-1,0,0,96,96,16,183.09989389963448,183.09989389963448,183.60041659977287,183.66731329960749,183.71760959969833,183.71760959969833,183.71760959969833,183.71760959969833,183.7674734997563,183.7674734997563,183.7674734997563,183.7674734997563,183.7674734997563,183.7674734997563,183.7674734997563,183.7674734997563,183.7674734997563,183.7674734997563,num_3,0.2445671004243195,184.03431919962168,184.03431919962168,None,,2,001,2025-12-16_13h32.10.229,2025C_exp1_detect,2022.2.4,59.87339175150998,
19.6,315,0,1,-1,1,0,97,97,335,184.03431919962168,184.03431919962168,184.53474439959973,184.60147899994627,184.6519252997823,184.6519252997823,184.6519252997823,184.6519252997823,184.70162649964914,184.70162649964914,184.70162649964914,184.70162649964914,184.70162649964914,184.70162649964914,184.70162649964914,184.70162649964914,184.70162649964914,184.70162649964914,num_1,0.1821010997518897,184.901864499785,184.901864499785,None,,2,001,2025-12-16_13h32.10.229,2025C_exp1_detect,2022.2.4,59.87339175150998,
15.7,45,1,1,-1,-1,0,98,98,199,184.901864499785,184.901864499785,185.4023951999843,185.46918429993093,185.51946619991213,185.51946619991213,185.51946619991213,185.51946619991213,185.56940599996597,185.56940599996597,185.56940599996597,185.56940599996597,185.56940599996597,185.56940599996597,185.56940599996597,185.56940599996597,185.56940599996597,185.56940599996597,num_3,0.13122029975056648,185.71935059968382,185.71935059968382,None,,2,001,2025-12-16_13h32.10.229,2025C_exp1_detect,2022.2.4,59.87339175150998,
42.7,45,0,1,-1,-1,0,99,99,188,185.71935059968382,185.71935059968382,186.219851099886,186.28660079976544,186.33663849998266,186.33663849998266,186.33663849998266,186.33663849998266,186.38681659987196,186.38681659987196,186.38681659987196,186.38681659987196,186.38681659987196,186.38681659987196,186.38681659987196,186.38681659987196,186.38681659987196,186.38681659987196,num_3,0.3448481000959873,186.75370289990678,186.75370289990678,None,,2,001,2025-12-16_13h32.10.229,2025C_exp1_detect,2022.2.4,59.87339175150998,
29.4,45,1,0,1,0,0,100,100,95,186.75370289990678,186.75370289990678,187.25425649993122,187.3211103999056,187.37133959960192,187.37133959960192,187.37133959960192,187.37133959960192,187.4211506997235,187.4211506997235,187.4211506997235,187.4211506997235,187.4211506997235,187.4211506997235,187.4211506997235,187.4211506997235,187.4211506997235,187.4211506997235,num_3,0.7112285001203418,188.15515049966052,188.15515049966052,None,,2,001,2025-12-16_13h32.10.229,2025C_exp1_detect,2022.2.4,59.87339175150998,
12.1,315,1,0,-1,1,0,101,101,315,188.15515049966052,188.15515049966052,188.6556672998704,188.72238389961421,188.77263339981437,188.77263339981437,188.77263339981437,188.77263339981437,188.82253259979188,188.82253259979188,188.82253259979188,188.82253259979188,188.82253259979188,188.82253259979188,188.82253259979188,188.82253259979188,188.82253259979188,188.82253259979188,num_3,0.3421078999526799,189.1893438999541,189.1893438999541,None,,2,001,2025-12-16_13h32.10.229,2025C_exp1_detect,2022.2.4,59.87339175150998,
29.4,315,1,1,1,-1,0,102,102,284,189.1893438999541,189.1893438999541,189.69007759960368,189.75686179986224,189.8070498998277,189.8070498998277,189.8070498998277,189.8070498998277,189.8569030999206,189.8569030999206,189.8569030999206,189.8569030999206,189.8569030999206,189.8569030999206,189.8569030999206,189.8569030999206,189.8569030999206,189.8569030999206,num_1,0.4520688997581601,190.3404914997518,190.3404914997518,None,,2,001,2025-12-16_13h32.10.229,2025C_exp1_detect,2022.2.4,59.87339175150998,
22.7,45,1,1,-1,0,0,103,103,57,190.3404914997518,190.3404914997518,190.8412699997425,190.90787979960442,190.95831649983302,190.95831649983302,190.95831649983302,190.95831649983302,191.008142599836,191.008142599836,191.008142599836,191.008142599836,191.008142599836,191.008142599836,191.008142599836,191.008142599836,191.008142599836,191.008142599836,num_1,0.33177579985931516,191.35844470001757,191.35844470001757,None,,2,001,2025-12-16_13h32.10.229,2025C_exp1_detect,2022.2.4,59.87339175150998,
42.7,45,1,1,1,-1,0,104,104,278,191.35844470001757,191.35844470001757,191.85893079964444,191.92548399977386,191.97590009961277,191.97590009961277,191.97590009961277,191.97590009961277,192.0257834997028,192.0257834997028,192.0257834997028,192.0257834997028,192.0257834997028,192.0257834997028,192.0257834997028,192.0257834997028,192.0257834997028,192.0257834997028,num_3,0.37071669986471534,192.42606829991564,192.42606829991564,None,,2,001,2025-12-16_13h32.10.229,2025C_exp1_detect,2022.2.4,59.87339175150998,
29.4,45,1,0,1,1,0,105,105,383,192.42606829991564,192.42606829991564,192.92656079959124,192.9933167998679,193.04362419992685,193.04362419992685,193.04362419992685,193.04362419992685,193.0934810996987,193.0934810996987,193.0934810996987,193.0934810996987,193.0934810996987,193.0934810996987,193.0934810996987,193.0934810996987,193.0934810996987,193.0934810996987,num_3,0.3350849999114871,193.4604564998299,193.4604564998299,None,,2,001,2025-12-16_13h32.10.229,2025C_exp1_detect,2022.2.4,59.87339175150998,
22.7,315,0,1,1,-1,0,106,106,264,193.4604564998299,193.4604564998299,193.96094390004873,194.0276815998368,194.07798299985006,194.07798299985006,194.07798299985006,194.07798299985006,194.12767799990252,194.12767799990252,194.12767799990252,194.12767799990252,194.12767799990252,194.12767799990252,194.12767799990252,194.12767799990252,194.12767799990252,194.12767799990252,num_3,0.41247549979016185,194.56152059976012,194.56152059976012,None,,2,001,2025-12-16_13h32.10.229,2025C_exp1_detect,2022.2.4,59.87339175150998,
39.2,315,0,1,-1,1,0,107,107,340,194.56152059976012,194.56152059976012,195.06213849969208,195.12873809970915,195.1791121000424,195.1791121000424,195.1791121000424,195.1791121000424,195.22887740004808,195.22887740004808,195.22887740004808,195.22887740004808,195.22887740004808,195.22887740004808,195.22887740004808,195.22887740004808,195.22887740004808,195.22887740004808,num_1,0.33519560005515814,195.5961159998551,195.5961159998551,space,2.248051700182259,2,001,2025-12-16_13h32.10.229,2025C_exp1_detect,2022.2.4,59.87339175150998,
22.7,45,1,1,1,0,0,108,108,129,197.86482859961689,197.86482859961689,198.3653555996716,198.43207699991763,198.48243619967252,198.48243619967252,198.48243619967252,198.48243619967252,198.53217059979215,198.53217059979215,198.53217059979215,198.53217059979215,198.53217059979215,198.53217059979215,198.53217059979215,198.53217059979215,198.53217059979215,198.53217059979215,num_3,0.4162538996897638,198.96578299999237,198.96578299999237,None,,2,001,2025-12-16_13h32.10.229,2025C_exp1_detect,2022.2.4,59.87339175150998,
29.4,45,1,0,-1,-1,0,109,109,167,198.96578299999237,198.96578299999237,199.46656739991158,199.53315959963948,199.5835857000202,199.5835857000202,199.5835857000202,199.5835857000202,199.6333989999257,199.6333989999257,199.6333989999257,199.6333989999257,199.6333989999257,199.6333989999257,199.6333989999257,199.6333989999257,199.6333989999257,199.6333989999257,num_3,0.2661558003164828,199.91688639996573,199.91688639996573,None,,2,001,2025-12-16_13h32.10.229,2025C_exp1_detect,2022.2.4,59.87339175150998,
15.7,45,1,0,1,1,0,110,110,379,199.91688639996573,199.91688639996573,200.4173753997311,200.48411089973524,200.53439279971644,200.53439279971644,200.53439279971644,200.53439279971644,200.58403169969097,200.58403169969097,200.58403169969097,200.58403169969097,200.58403169969097,200.58403169969097,200.58403169969097,200.58403169969097,200.58403169969097,200.58403169969097,num_3,0.9883265001699328,201.60195879964158,201.60195879964158,None,,2,001,2025-12-16_13h32.10.229,2025C_exp1_detect,2022.2.4,59.87339175150998,
35.3,315,0,1,1,1,0,111,111,411,201.60195879964158,201.60195879964158,202.1025168998167,202.16913589974865,202.21945189964026,202.21945189964026,202.21945189964026,202.21945189964026,202.26933499984443,202.26933499984443,202.26933499984443,202.26933499984443,202.26933499984443,202.26933499984443,202.26933499984443,202.26933499984443,202.26933499984443,202.26933499984443,num_1,0.006295300088822842,202.30234819976613,202.30234819976613,None,,2,001,2025-12-16_13h32.10.229,2025C_exp1_detect,2022.2.4,59.87339175150998,
29.4,45,0,0,1,0,0,112,112,77,202.30234819976613,202.30234819976613,202.80329619999975,202.86983989970759,202.92026990000159,202.92026990000159,202.92026990000159,202.92026990000159,202.970112899784,202.970112899784,202.970112899784,202.970112899784,202.970112899784,202.970112899784,202.970112899784,202.970112899784,202.970112899784,202.970112899784,num_3,0.14559169998392463,203.13668309990317,203.13668309990317,None,,2,001,2025-12-16_13h32.10.229,2025C_exp1_detect,2022.2.4,59.87339175150998,
25.5,315,0,1,-1,1,0,113,113,337,203.13668309990317,203.13668309990317,203.63713319972157,203.70386849995703,203.7541616000235,203.7541616000235,203.7541616000235,203.7541616000235,203.8041657996364,203.8041657996364,203.8041657996364,203.8041657996364,203.8041657996364,203.8041657996364,203.8041657996364,203.8041657996364,203.8041657996364,203.8041657996364,num_3,0.4240238997153938,204.2545006996952,204.2545006996952,None,,2,001,2025-12-16_13h32.10.229,2025C_exp1_detect,2022.2.4,59.87339175150998,
12.1,45,0,1,-1,0,0,114,114,36,204.2545006996952,204.2545006996952,204.75479319971055,204.82161480002105,204.87192279985175,204.87192279985175,204.87192279985175,204.87192279985175,204.9217074997723,204.9217074997723,204.9217074997723,204.9217074997723,204.9217074997723,204.9217074997723,204.9217074997723,204.9217074997723,204.9217074997723,204.9217074997723,num_3,0.37043080013245344,205.32195399980992,205.32195399980992,None,,2,001,2025-12-16_13h32.10.229,2025C_exp1_detect,2022.2.4,59.87339175150998,
42.7,45,1,0,1,-1,0,115,115,242,205.32195399980992,205.32195399980992,205.82295489963144,205.8896174998954,205.94003779999912,205.94003779999912,205.94003779999912,205.94003779999912,205.9895193995908,205.9895193995908,205.9895193995908,205.9895193995908,205.9895193995908,205.9895193995908,205.9895193995908,205.9895193995908,205.9895193995908,205.9895193995908,num_3,0.43145320005714893,206.43993829982355,206.43993829982355,None,,2,001,2025-12-16_13h32.10.229,2025C_exp1_detect,2022.2.4,59.87339175150998,
25.5,315,0,1,1,-1,0,116,116,265,206.43993829982355,206.43993829982355,206.94062719959766,207.0073471996002,207.0576578998007,207.0576578998007,207.0576578998007,207.0576578998007,207.10752039961517,207.10752039961517,207.10752039961517,207.10752039961517,207.10752039961517,207.10752039961517,207.10752039961517,207.10752039961517,207.10752039961517,207.10752039961517,num_1,0.40895440010353923,207.54115409962833,207.54115409962833,None,,2,001,2025-12-16_13h32.10.229,2025C_exp1_detect,2022.2.4,59.87339175150998,
15.7,315,0,0,1,1,0,117,117,370,207.54115409962833,207.54115409962833,208.04165429994464,208.10837179981172,208.1586982998997,208.1586982998997,208.1586982998997,208.1586982998997,208.20843119965866,208.20843119965866,208.20843119965866,208.20843119965866,208.20843119965866,208.20843119965866,208.20843119965866,208.20843119965866,208.20843119965866,208.20843119965866,num_3,0.347787800244987,208.57550060003996,208.57550060003996,None,,2,001,2025-12-16_13h32.10.229,2025C_exp1_detect,2022.2.4,59.87339175150998,
19.6,315,1,1,-1,0,0,118,118,65,208.57550060003996,208.57550060003996,209.07613709988073,209.14288289984688,209.1931215999648,209.1931215999648,209.1931215999648,209.1931215999648,209.24273669999093,209.24273669999093,209.24273669999093,209.24273669999093,209.24273669999093,209.24273669999093,209.24273669999093,209.24273669999093,209.24273669999093,209.24273669999093,num_1,0.5292964996770024,209.79356519971043,209.79356519971043,None,,2,001,2025-12-16_13h32.10.229,2025C_exp1_detect,2022.2.4,59.87339175150998,
22.7,315,0,0,-1,-1,0,119,119,156,209.79356519971043,209.79356519971043,210.29417649982497,210.36091759987175,210.4111146000214,210.4111146000214,210.4111146000214,210.4111146000214,210.4606364998035,210.4606364998035,210.4606364998035,210.4606364998035,210.4606364998035,210.4606364998035,210.4606364998035,210.4606364998035,210.4606364998035,210.4606364998035,num_3,0.3029875000938773,210.79452529968694,210.79452529968694,None,,2,001,2025-12-16_13h32.10.229,2025C_exp1_detect,2022.2.4,59.87339175150998,
12.1,45,0,0,-1,0,0,120,120,0,210.79452529968694,210.79452529968694,211.29496229998767,211.3614227999933,211.411868899595,211.411868899595,211.411868899595,211.411868899595,211.4618095997721,211.4618095997721,211.4618095997721,211.4618095997721,211.4618095997721,211.4618095997721,211.4618095997721,211.4618095997721,211.4618095997721,211.4618095997721,num_3,0.3188390997238457,211.81211759988219,211.81211759988219,None,,2,001,2025-12-16_13h32.10.229,2025C_exp1_detect,2022.2.4,59.87339175150998,
29.4,315,1,1,1,0,0,121,121,140,211.81211759988219,211.81211759988219,212.3125141998753,212.37933429982513,212.42964489990845,212.42964489990845,212.42964489990845,212.42964489990845,212.4795082998462,212.4795082998462,212.4795082998462,212.4795082998462,212.4795082998462,212.4795082998462,212.4795082998462,212.4795082998462,212.4795082998462,212.4795082998462,num_3,0.3729400997981429,212.87996919965371,212.87996919965371,None,,2,001,2025-12-16_13h32.10.229,2025C_exp1_detect,2022.2.4,59.87339175150998,
12.1,315,1,0,1,0,0,122,122,99,212.87996919965371,212.87996919965371,213.38033729977906,213.44697869988158,213.49708989961073,213.49708989961073,213.49708989961073,213.49708989961073,213.54711619997397,213.54711619997397,213.54711619997397,213.54711619997397,213.54711619997397,213.54711619997397,213.54711619997397,213.54711619997397,213.54711619997397,213.54711619997397,num_1,0.2967928000725806,213.86382319964468,213.86382319964468,None,,2,001,2025-12-16_13h32.10.229,2025C_exp1_detect,2022.2.4,59.87339175150998,
19.6,315,0,0,-1,-1,0,123,123,155,213.86382319964468,213.86382319964468,214.36481119971722,214.43142519984394,214.48184209968895,214.48184209968895,214.48184209968895,214.48184209968895,214.53167719999328,214.53167719999328,214.53167719999328,214.53167719999328,214.53167719999328,214.53167719999328,214.53167719999328,214.53167719999328,214.53167719999328,214.53167719999328,num_3,0.0805651000700891,214.63158529996872,214.63158529996872,None,,2,001,2025-12-16_13h32.10.229,2025C_exp1_detect,2022.2.4,59.87339175150998,
19.6,315,1,1,-1,1,0,124,124,353,214.63158529996872,214.63158529996872,215.1320561999455,215.198809299618,215.2490065996535,215.2490065996535,215.2490065996535,215.2490065996535,215.29898179974407,215.29898179974407,215.29898179974407,215.29898179974407,215.29898179974407,215.29898179974407,215.29898179974407,215.29898179974407,215.29898179974407,215.29898179974407,num_3,0.6248872000724077,215.94949609972537,215.94949609972537,None,,2,001,2025-12-16_13h32.10.229,2025C_exp1_detect,2022.2.4,59.87339175150998,
29.4,45,0,0,1,-1,0,125,125,221,215.94949609972537,215.94949609972537,216.45007809996605,216.51678449986503,216.5670532998629,216.5670532998629,216.5670532998629,216.5670532998629,216.61704869987443,216.61704869987443,216.61704869987443,216.61704869987443,216.61704869987443,216.61704869987443,216.61704869987443,216.61704869987443,216.61704869987443,216.61704869987443,num_1,0.002363800071179867,216.65013589989394,216.65013589989394,None,,2,001,2025-12-16_13h32.10.229,2025C_exp1_detect,2022.2.4,59.87339175150998,
19.6,45,0,1,1,-1,0,126,126,254,216.65013589989394,216.65013589989394,217.15069309994578,217.2175253997557,217.26775249978527,217.26775249978527,217.26775249978527,217.26775249978527,217.3176841000095,217.3176841000095,217.3176841000095,217.3176841000095,217.3176841000095,217.3176841000095,217.3176841000095,217.3176841000095,217.3176841000095,217.3176841000095,num_3,0.11818839982151985,217.4677485995926,217.4677485995926,None,,2,001,2025-12-16_13h32.10.229,2025C_exp1_detect,2022.2.4,59.87339175150998,
42.7,315,0,1,-1,-1,0,127,127,197,217.4677485995926,217.4677485995926,217.96825299970806,218.0349558996968,218.0852615996264,218.0852615996264,218.0852615996264,218.0852615996264,218.1351487999782,218.1351487999782,218.1351487999782,218.1351487999782,218.1351487999782,218.1351487999782,218.1351487999782,218.1351487999782,218.1351487999782,218.1351487999782,num_3,0.11670230003073812,218.26857339963317,218.26857339963317,None,,2,001,2025-12-16_13h32.10.229,2025C_exp1_detect,2022.2.4,59.87339175150998,
19.6,45,0,1,1,0,0,128,128,110,218.26857339963317,218.26857339963317,218.7690377999097,218.83579219970852,218.8860659999773,218.8860659999773,218.8860659999773,218.8860659999773,218.9359868997708,218.9359868997708,218.9359868997708,218.9359868997708,218.9359868997708,218.9359868997708,218.9359868997708,218.9359868997708,218.9359868997708,218.9359868997708,num_3,0.21967709995806217,219.18616589996964,219.18616589996964,None,,2,001,2025-12-16_13h32.10.229,2025C_exp1_detect,2022.2.4,59.87339175150998,
35.3,315,1,1,-1,1,0,129,129,357,219.18616589996964,219.18616589996964,219.6863961997442,219.7532792999409,219.80365039967,219.80365039967,219.80365039967,219.80365039967,219.85348819987848,219.85348819987848,219.85348819987848,219.85348819987848,219.85348819987848,219.85348819987848,219.85348819987848,219.85348819987848,219.85348819987848,219.85348819987848,num_3,0.2062081997282803,220.08704999973997,220.08704999973997,None,,2,001,2025-12-16_13h32.10.229,2025C_exp1_detect,2022.2.4,59.87339175150998,
25.5,45,0,1,1,0,0,130,130,112,220.08704999973997,220.08704999973997,220.58756250003353,220.65407079970464,220.7044722000137,220.7044722000137,220.7044722000137,220.7044722000137,220.75417390000075,220.75417390000075,220.75417390000075,220.75417390000075,220.75417390000075,220.75417390000075,220.75417390000075,220.75417390000075,220.75417390000075,220.75417390000075,num_3,0.27448599971830845,221.05452929995954,221.05452929995954,None,,2,001,2025-12-16_13h32.10.229,2025C_exp1_detect,2022.2.4,59.87339175150998,
12.1,45,1,1,-1,0,0,131,131,54,221.05452929995954,221.05452929995954,221.55516549991444,221.62190849985927,221.67218449991196,221.67218449991196,221.67218449991196,221.67218449991196,221.72208489989862,221.72208489989862,221.72208489989862,221.72208489989862,221.72208489989862,221.72208489989862,221.72208489989862,221.72208489989862,221.72208489989862,221.72208489989862,num_3,0.2587731000967324,222.00562809966505,222.00562809966505,None,,2,001,2025-12-16_13h32.10.229,2025C_exp1_detect,2022.2.4,59.87339175150998,
39.2,315,1,1,-1,-1,0,132,132,214,222.00562809966505,222.00562809966505,222.5061414996162,222.5729304999113,222.6231414997019,222.6231414997019,222.6231414997019,222.6231414997019,222.67287939973176,222.67287939973176,222.67287939973176,222.67287939973176,222.67287939973176,222.67287939973176,222.67287939973176,222.67287939973176,222.67287939973176,222.67287939973176,num_3,0.37976699974387884,223.07322289980948,223.07322289980948,None,,2,001,2025-12-16_13h32.10.229,2025C_exp1_detect,2022.2.4,59.87339175150998,
29.4,315,0,0,-1,1,0,133,133,302,223.07322289980948,223.07322289980948,223.57388319959864,223.64061439968646,223.69102279981598,223.69102279981598,223.69102279981598,223.69102279981598,223.74083809973672,223.74083809973672,223.74083809973672,223.74083809973672,223.74083809973672,223.74083809973672,223.74083809973672,223.74083809973672,223.74083809973672,223.74083809973672,num_3,0.3986889999359846,224.1576224998571,224.1576224998571,None,,2,001,2025-12-16_13h32.10.229,2025C_exp1_detect,2022.2.4,59.87339175150998,
15.7,45,1,0,1,-1,0,134,134,235,224.1576224998571,224.1576224998571,224.65827069990337,224.7247008997947,224.7752194995992,224.7752194995992,224.7752194995992,224.7752194995992,224.82499879971147,224.82499879971147,224.82499879971147,224.82499879971147,224.82499879971147,224.82499879971147,224.82499879971147,224.82499879971147,224.82499879971147,224.82499879971147,num_3,0.5478552002459764,225.39231229992583,225.39231229992583,None,,2,001,2025-12-16_13h32.10.229,2025C_exp1_detect,2022.2.4,59.87339175150998,
19.6,45,1,0,1,-1,0,135,135,236,225.39231229992583,225.39231229992583,225.89284299965948,225.95947939995676,226.00979209970683,226.00979209970683,226.00979209970683,226.00979209970683,226.0597492000088,226.0597492000088,226.0597492000088,226.0597492000088,226.0597492000088,226.0597492000088,226.0597492000088,226.0597492000088,226.0597492000088,226.0597492000088,num_3,0.392034700140357,226.47656129999086,226.47656129999086,None,,2,001,2025-12-16_13h32.10.229,2025C_exp1_detect,2022.2.4,59.87339175150998,
35.3,315,0,0,-1,0,0,136,136,15,226.47656129999086,226.47656129999086,226.9772730995901,227.04411319969222,227.094424800016,227.094424800016,227.094424800016,227.094424800016,227.14400919992477,227.14400919992477,227.14400919992477,227.14400919992477,227.14400919992477,227.14400919992477,227.14400919992477,227.14400919992477,227.14400919992477,227.14400919992477,num_3,0.38833600003272295,227.56104679964483,227.56104679964483,None,,2,001,2025-12-16_13h32.10.229,2025C_exp1_detect,2022.2.4,59.87339175150998,
12.1,315,0,1,-1,1,0,137,137,333,227.56104679964483,227.56104679964483,228.06137289991602,228.12839789967984,228.1786524998024,228.1786524998024,228.1786524998024,228.1786524998024,228.22856980003417,228.22856980003417,228.22856980003417,228.22856980003417,228.22856980003417,228.22856980003417,228.22856980003417,228.22856980003417,228.22856980003417,228.22856980003417,num_3,0.3352479999884963,228.5955510996282,228.5955510996282,None,,2,001,2025-12-16_13h32.10.229,2025C_exp1_detect,2022.2.4,59.87339175150998,
35.3,45,1,0,1,1,0,138,138,384,228.5955510996282,228.5955510996282,229.09621699992567,229.16300489986315,229.21324049960822,229.21324049960822,229.21324049960822,229.21324049960822,229.26322409976274,229.26322409976274,229.26322409976274,229.26322409976274,229.26322409976274,229.26322409976274,229.26322409976274,229.26322409976274,229.26322409976274,229.26322409976274,num_3,0.4685383001342416,229.76352349994704,229.76352349994704,None,,2,001,2025-12-16_13h32.10.229,2025C_exp1_detect,2022.2.4,59.87339175150998,
39.2,315,1,0,-1,-1,0,139,139,178,229.76352349994704,229.76352349994704,230.26354439975694,230.3303308999166,230.38062629988417,230.38062629988417,230.38062629988417,230.38062629988417,230.4304933999665,230.4304933999665,230.4304933999665,230.4304933999665,230.4304933999665,230.4304933999665,230.4304933999665,230.4304933999665,230.4304933999665,230.4304933999665,num_1,0.4690736997872591,230.93090099981055,230.93090099981055,None,,2,001,2025-12-16_13h32.10.229,2025C_exp1_detect,2022.2.4,59.87339175150998,
29.4,315,1,1,-1,-1,0,140,140,212,230.93090099981055,230.93090099981055,231.43140319967642,231.49812719970942,231.54841749975458,231.54841749975458,231.54841749975458,231.54841749975458,231.5982951996848,231.5982951996848,231.5982951996848,231.5982951996848,231.5982951996848,231.5982951996848,231.5982951996848,231.5982951996848,231.5982951996848,231.5982951996848,num_1,0.5572420000098646,232.1824878999032,232.1824878999032,None,,2,001,2025-12-16_13h32.10.229,2025C_exp1_detect,2022.2.4,59.87339175150998,
19.6,315,0,1,1,-1,0,141,141,263,232.1824878999032,232.1824878999032,232.68274109996855,232.74949169997126,232.7997628999874,232.7997628999874,232.7997628999874,232.7997628999874,232.84986089961603,232.84986089961603,232.84986089961603,232.84986089961603,232.84986089961603,232.84986089961603,232.84986089961603,232.84986089961603,232.84986089961603,232.84986089961603,num_3,0.33029699977487326,233.19981030002236,233.19981030002236,None,,2,001,2025-12-16_13h32.10.229,2025C_exp1_detect,2022.2.4,59.87339175150998,
15.7,315,0,1,-1,1,0,142,142,334,233.19981030002236,233.19981030002236,233.70034360000864,233.76706019975245,233.81750179966912,233.81750179966912,233.81750179966912,233.81750179966912,233.8672682000324,233.8672682000324,233.8672682000324,233.8672682000324,233.8672682000324,233.8672682000324,233.8672682000324,233.8672682000324,233.8672682000324,233.8672682000324,num_3,0.5129851000383496,234.40101909963414,234.40101909963414,None,,2,001,2025-12-16_13h32.10.229,2025C_exp1_detect,2022.2.4,59.87339175150998,
19.6,315,1,0,-1,0,0,143,143,29,234.40101909963414,234.40101909963414,234.90153629984707,234.96827689977363,235.01869479985908,235.01869479985908,235.01869479985908,235.01869479985908,235.06845649983734,235.06845649983734,235.06845649983734,235.06845649983734,235.06845649983734,235.06845649983734,235.06845649983734,235.06845649983734,235.06845649983734,235.06845649983734,num_3,0.2873621000908315,235.38592939963564,235.38592939963564,None,,2,001,2025-12-16_13h32.10.229,2025C_exp1_detect,2022.2.4,59.87339175150998,
39.2,45,1,1,1,0,0,144,144,133,235.38592939963564,235.38592939963564,235.88589959964156,235.95256999973208,236.0031904997304,236.0031904997304,236.0031904997304,236.0031904997304,236.05314920004457,236.05314920004457,236.05314920004457,236.05314920004457,236.05314920004457,236.05314920004457,236.05314920004457,236.05314920004457,236.05314920004457,236.05314920004457,num_1,0.3664258001372218,236.43655959982425,236.43655959982425,None,,2,001,2025-12-16_13h32.10.229,2025C_exp1_detect,2022.2.4,59.87339175150998,
29.4,45,1,0,1,-1,0,145,145,239,236.43655959982425,236.43655959982425,236.9372548996471,237.00415059970692,237.05439989967272,237.05439989967272,237.05439989967272,237.05439989967272,237.10414109984413,237.10414109984413,237.10414109984413,237.10414109984413,237.10414109984413,237.10414109984413,237.10414109984413,237.10414109984413,237.10414109984413,237.10414109984413,num_3,0.276539099868387,237.40437749959528,237.40437749959528,None,,2,001,2025-12-16_13h32.10.229,2025C_exp1_detect,2022.2.4,59.87339175150998,
15.7,45,0,0,1,-1,0,146,146,217,237.40437749959528,237.40437749959528,237.90476529998705,237.9715890996158,238.02187499962747,238.02187499962747,238.02187499962747,238.02187499962747,238.07175079965964,238.07175079965964,238.07175079965964,238.07175079965964,238.07175079965964,238.07175079965964,238.07175079965964,238.07175079965964,238.07175079965964,238.07175079965964,num_3,0.33250819984823465,238.42176149971783,238.42176149971783,None,,2,001,2025-12-16_13h32.10.229,2025C_exp1_detect,2022.2.4,59.87339175150998,
42.7,315,1,1,-1,0,0,147,147,71,238.42176149971783,238.42176149971783,238.92233329964802,238.98934819968417,239.03955690003932,239.03955690003932,239.03955690003932,239.03955690003932,239.08940920000896,239.08940920000896,239.08940920000896,239.08940920000896,239.08940920000896,239.08940920000896,239.08940920000896,239.08940920000896,239.08940920000896,239.08940920000896,num_1,0.5142077002674341,239.6232510996051,239.6232510996051,None,,2,001,2025-12-16_13h32.10.229,2025C_exp1_detect,2022.2.4,59.87339175150998,
15.7,315,0,1,1,1,0,148,148,406,239.6232510996051,239.6232510996051,240.12375249993056,240.1903732996434,240.24073249986395,240.24073249986395,240.24073249986395,240.24073249986395,240.29049819987267,240.29049819987267,240.29049819987267,240.29049819987267,240.29049819987267,240.29049819987267,240.29049819987267,240.29049819987267,240.29049819987267,240.29049819987267,num_3,0.41784470016136765,240.7409739997238,240.7409739997238,None,,2,001,2025-12-16_13h32.10.229,2025C_exp1_detect,2022.2.4,59.87339175150998,
25.5,315,1,1,1,1,0,149,149,427,240.7409739997238,240.7409739997238,241.24152829963714,241.3082316997461,241.3585304999724,241.3585304999724,241.3585304999724,241.3585304999724,241.40825450001284,241.40825450001284,241.40825450001284,241.40825450001284,241.40825450001284,241.40825450001284,241.40825450001284,241.40825450001284,241.40825450001284,241.40825450001284,num_1,0.5324220000766218,241.95874129980803,241.95874129980803,None,,2,001,2025-12-16_13h32.10.229,2025C_exp1_detect,2022.2.4,59.87339175150998,
12.1,315,0,1,-1,0,0,150,150,45,241.95874129980803,241.95874129980803,242.4595021000132,242.52614429965615,242.57633489975706,242.57633489975706,242.57633489975706,242.57633489975706,242.62615499971434,242.62615499971434,242.62615499971434,242.62615499971434,242.62615499971434,242.62615499971434,242.62615499971434,242.62615499971434,242.62615499971434,242.62615499971434,num_3,0.5947226001881063,243.2436393997632,243.2436393997632,None,,2,001,2025-12-16_13h32.10.229,2025C_exp1_detect,2022.2.4,59.87339175150998,
19.6,45,0,0,-1,-1,0,151,151,146,243.2436393997632,243.2436393997632,243.74399909982458,243.8107280996628,243.86088159959763,243.86088159959763,243.86088159959763,243.86088159959763,243.91092459997162,243.91092459997162,243.91092459997162,243.91092459997162,243.91092459997162,243.91092459997162,243.91092459997162,243.91092459997162,243.91092459997162,243.91092459997162,num_3,0.4140566000714898,244.34460880002007,244.34460880002007,None,,2,001,2025-12-16_13h32.10.229,2025C_exp1_detect,2022.2.4,59.87339175150998,
12.1,315,0,0,1,0,0,152,152,81,244.34460880002007,244.34460880002007,244.84511339990422,244.91184980003163,244.96201899973676,244.96201899973676,244.96201899973676,244.96201899973676,245.01178489997983,245.01178489997983,245.01178489997983,245.01178489997983,245.01178489997983,245.01178489997983,245.01178489997983,245.01178489997983,245.01178489997983,245.01178489997983,num_3,0.377050899900496,245.41236529964954,245.41236529964954,None,,2,001,2025-12-16_13h32.10.229,2025C_exp1_detect,2022.2.4,59.87339175150998,
25.5,45,1,0,1,-1,0,153,153,238,245.41236529964954,245.41236529964954,245.9128450998105,245.97954889992252,246.0298620997928,246.0298620997928,246.0298620997928,246.0298620997928,246.07964139990509,246.07964139990509,246.07964139990509,246.07964139990509,246.07964139990509,246.07964139990509,246.07964139990509,246.07964139990509,246.07964139990509,246.07964139990509,num_3,0.3966634999960661,246.49679449992254,246.49679449992254,None,,2,001,2025-12-16_13h32.10.229,2025C_exp1_detect,2022.2.4,59.87339175150998,
25.5,315,0,1,-1,-1,0,154,154,193,246.49679449992254,246.49679449992254,246.9972299998626,247.06375700002536,247.11430019978434,247.11430019978434,247.11430019978434,247.11430019978434,247.16402969975024,247.16402969975024,247.16402969975024,247.16402969975024,247.16402969975024,247.16402969975024,247.16402969975024,247.16402969975024,247.16402969975024,247.16402969975024,num_1,0.656598599627614,247.84813519986346,247.84813519986346,None,,2,001,2025-12-16_13h32.10.229,2025C_exp1_detect,2022.2.4,59.87339175150998,
39.2,45,0,1,-1,-1,0,155,155,187,247.84813519986346,247.84813519986346,248.34875019965693,248.41550699993968,248.4657711996697,248.4657711996697,248.4657711996697,248.4657711996697,248.51554339984432,248.51554339984432,248.51554339984432,248.51554339984432,248.51554339984432,248.51554339984432,248.51554339984432,248.51554339984432,248.51554339984432,248.51554339984432,num_3,0.2324504000134766,248.76561009977013,248.76561009977013,None,,2,001,2025-12-16_13h32.10.229,2025C_exp1_detect,2022.2.4,59.87339175150998,
22.7,315,1,0,-1,1,0,156,156,318,248.76561009977013,248.76561009977013,249.26621160004288,249.3330606999807,249.38341949973255,249.38341949973255,249.38341949973255,249.38341949973255,249.43311470001936,249.43311470001936,249.43311470001936,249.43311470001936,249.43311470001936,249.43311470001936,249.43311470001936,249.43311470001936,249.43311470001936,249.43311470001936,num_1,0.4110834999009967,249.8667821995914,249.8667821995914,None,,2,001,2025-12-16_13h32.10.229,2025C_exp1_detect,2022.2.4,59.87339175150998,
22.7,45,0,0,1,0,0,157,157,75,249.8667821995914,249.8667821995914,250.36735229985788,250.43379089981318,250.4844631999731,250.4844631999731,250.4844631999731,250.4844631999731,250.53406400000677,250.53406400000677,250.53406400000677,250.53406400000677,250.53406400000677,250.53406400000677,250.53406400000677,250.53406400000677,250.53406400000677,250.53406400000677,num_3,0.34172690007835627,250.90122639993206,250.90122639993206,None,,2,001,2025-12-16_13h32.10.229,2025C_exp1_detect,2022.2.4,59.87339175150998,
19.6,315,1,0,1,1,0,158,158,389,250.90122639993206,250.90122639993206,251.4018430998549,251.4683302999474,251.51866830000654,251.51866830000654,251.51866830000654,251.51866830000654,251.56847059959546,251.56847059959546,251.56847059959546,251.56847059959546,251.56847059959546,251.56847059959546,251.56847059959546,251.56847059959546,251.56847059959546,251.56847059959546,num_3,0.44426489993929863,252.03561150003225,252.03561150003225,None,,2,001,2025-12-16_13h32.10.229,2025C_exp1_detect,2022.2.4,59.87339175150998,
25.5,45,1,1,1,0,0,159,159,130,252.03561150003225,252.03561150003225,252.53619799995795,252.60278029972687,252.6532181999646,252.6532181999646,252.6532181999646,252.6532181999646,252.70295499963686,252.70295499963686,252.70295499963686,252.70295499963686,252.70295499963686,252.70295499963686,252.70295499963686,252.70295499963686,252.70295499963686,252.70295499963686,num_1,0.4685975997708738,253.20343679981306,253.20343679981306,None,,2,001,2025-12-16_13h32.10.229,2025C_exp1_detect,2022.2.4,59.87339175150998,
42.7,315,0,0,-1,0,0,160,160,17,253.20343679981306,253.20343679981306,253.70388309983537,253.7706060996279,253.82101429998875,253.82101429998875,253.82101429998875,253.82101429998875,253.87073910003528,253.87073910003528,253.87073910003528,253.87073910003528,253.87073910003528,253.87073910003528,253.87073910003528,253.87073910003528,253.87073910003528,253.87073910003528,num_3,0.38964170031249523,254.28783929999918,254.28783929999918,None,,2,001,2025-12-16_13h32.10.229,2025C_exp1_detect,2022.2.4,59.87339175150998,
25.5,315,1,1,1,-1,0,161,161,283,254.28783929999918,254.28783929999918,254.78840619977564,254.855265900027,254.90553339989856,254.90553339989856,254.90553339989856,254.90553339989856,254.95544989965856,254.95544989965856,254.95544989965856,254.95544989965856,254.95544989965856,254.95544989965856,254.95544989965856,254.95544989965856,254.95544989965856,254.95544989965856,num_1,0.5920902998186648,255.5723455999978,255.5723455999978,None,,2,001,2025-12-16_13h32.10.229,2025C_exp1_detect,2022.2.4,59.87339175150998,
29.4,315,0,0,1,1,0,162,162,374,255.5723455999978,255.5723455999978,256.073141799774,256.1397418999113,256.1900802999735,256.1900802999735,256.1900802999735,256.1900802999735,256.2398593998514,256.2398593998514,256.2398593998514,256.2398593998514,256.2398593998514,256.2398593998514,256.2398593998514,256.2398593998514,256.2398593998514,256.2398593998514,num_3,0.3876557000912726,256.65673679998145,256.65673679998145,None,,2,001,2025-12-16_13h32.10.229,2025C_exp1_detect,2022.2.4,59.87339175150998,
15.7,315,1,1,-1,0,0,163,163,64,256.65673679998145,256.65673679998145,257.1574702998623,257.2238949998282,257.2743310998194,257.2743310998194,257.2743310998194,257.2743310998194,257.3242577998899,257.3242577998899,257.3242577998899,257.3242577998899,257.3242577998899,257.3242577998899,257.3242577998899,257.3242577998899,257.3242577998899,257.3242577998899,num_1,0.7040380998514593,258.0581377996132,258.0581377996132,None,,2,001,2025-12-16_13h32.10.229,2025C_exp1_detect,2022.2.4,59.87339175150998,
35.3,315,0,0,1,-1,0,164,164,231,258.0581377996132,258.0581377996132,258.5586852999404,258.6255508000031,258.6758426995948,258.6758426995948,258.6758426995948,258.6758426995948,258.7255920995958,258.7255920995958,258.7255920995958,258.7255920995958,258.7255920995958,258.7255920995958,258.7255920995958,258.7255920995958,258.7255920995958,258.7255920995958,num_3,0.31820840016007423,259.07602269994095,259.07602269994095,None,,2,001,2025-12-16_13h32.10.229,2025C_exp1_detect,2022.2.4,59.87339175150998,
15.7,315,0,1,1,0,0,165,165,118,259.07602269994095,259.07602269994095,259.5765570998192,259.64324630005285,259.69343629991636,259.69343629991636,259.69343629991636,259.69343629991636,259.7432788996957,259.7432788996957,259.7432788996957,259.7432788996957,259.7432788996957,259.7432788996957,259.7432788996957,259.7432788996957,259.7432788996957,259.7432788996957,num_3,0.3403925998136401,260.1104456996545,260.1104456996545,None,,2,001,2025-12-16_13h32.10.229,2025C_exp1_detect,2022.2.4,59.87339175150998,
22.7,45,1,0,-1,1,0,166,166,309,260.1104456996545,260.1104456996545,260.6108669997193,260.67754599964246,260.72781950002536,260.72781950002536,260.72781950002536,260.72781950002536,260.77767580002546,260.77767580002546,260.77767580002546,260.77767580002546,260.77767580002546,260.77767580002546,260.77767580002546,260.77767580002546,260.77767580002546,260.77767580002546,num_3,0.25841630017384887,261.06135439965874,261.06135439965874,None,,2,001,2025-12-16_13h32.10.229,2025C_exp1_detect,2022.2.4,59.87339175150998,
25.5,45,1,1,1,-1,0,167,167,274,261.06135439965874,261.06135439965874,261.5618422999978,261.6285337000154,261.6788426996209,261.6788426996209,261.6788426996209,261.6788426996209,261.72872569970787,261.72872569970787,261.72872569970787,261.72872569970787,261.72872569970787,261.72872569970787,261.72872569970787,261.72872569970787,261.72872569970787,261.72872569970787,num_3,0.003574400208890438,261.76188949961215,261.76188949961215,None,,2,001,2025-12-16_13h32.10.229,2025C_exp1_detect,2022.2.4,59.87339175150998,
42.7,315,1,1,1,1,0,168,168,431,261.76188949961215,261.76188949961215,262.26271699974313,262.3292663996108,262.37972359964624,262.37972359964624,262.37972359964624,262.37972359964624,262.4295242000371,262.4295242000371,262.4295242000371,262.4295242000371,262.4295242000371,262.4295242000371,262.4295242000371,262.4295242000371,262.4295242000371,262.4295242000371,num_3,0.4618778000585735,262.91290549980476,262.91290549980476,None,,2,001,2025-12-16_13h32.10.229,2025C_exp1_detect,2022.2.4,59.87339175150998,
25.5,315,1,1,1,0,0,169,169,139,262.91290549980476,262.91290549980476,263.4133641999215,263.4802385000512,263.5304672997445,263.5304672997445,263.5304672997445,263.5304672997445,263.58029939979315,263.58029939979315,263.58029939979315,263.58029939979315,263.58029939979315,263.58029939979315,263.58029939979315,263.58029939979315,263.58029939979315,263.58029939979315,num_3,0.4399774996563792,264.04732859972864,264.04732859972864,None,,2,001,2025-12-16_13h32.10.229,2025C_exp1_detect,2022.2.4,59.87339175150998,
29.4,45,0,0,-1,1,0,170,170,293,264.04732859972864,264.04732859972864,264.54819249967113,264.6149744996801,264.66508549964055,264.66508549964055,264.66508549964055,264.66508549964055,264.7150578997098,264.7150578997098,264.7150578997098,264.7150578997098,264.7150578997098,264.7150578997098,264.7150578997098,264.7150578997098,264.7150578997098,264.7150578997098,num_1,0.3217385997995734,265.0651802998036,265.0651802998036,None,,2,001,2025-12-16_13h32.10.229,2025C_exp1_detect,2022.2.4,59.87339175150998,
19.6,45,0,1,-1,-1,0,171,171,182,265.0651802998036,265.0651802998036,265.565567499958,265.63263559993356,265.68275609984994,265.68275609984994,265.68275609984994,265.68275609984994,265.7327063996345,265.7327063996345,265.7327063996345,265.7327063996345,265.7327063996345,265.7327063996345,265.7327063996345,265.7327063996345,265.7327063996345,265.7327063996345,num_3,0.6641671000979841,266.4166930997744,266.4166930997744,None,,2,001,2025-12-16_13h32.10.229,2025C_exp1_detect,2022.2.4,59.87339175150998,
15.7,45,0,1,1,0,0,172,172,109,266.4166930997744,266.4166930997744,266.9172114999965,266.98405299987644,267.03416069969535,267.03416069969535,267.03416069969535,267.03416069969535,267.0841188998893,267.0841188998893,267.0841188998893,267.0841188998893,267.0841188998893,267.0841188998893,267.0841188998893,267.0841188998893,267.0841188998893,267.0841188998893,num_3,0.4158338997513056,267.51764369988814,267.51764369988814,None,,2,001,2025-12-16_13h32.10.229,2025C_exp1_detect,2022.2.4,59.87339175150998,
42.7,45,1,1,1,1,0,173,173,422,267.51764369988814,267.51764369988814,268.018337899819,268.0849367999472,268.13522099982947,268.13522099982947,268.13522099982947,268.13522099982947,268.1850590999238,268.1850590999238,268.1850590999238,268.1850590999238,268.1850590999238,268.1850590999238,268.1850590999238,268.1850590999238,268.1850590999238,268.1850590999238,num_1,0.2435313002206385,268.45197559986264,268.45197559986264,None,,2,001,2025-12-16_13h32.10.229,2025C_exp1_detect,2022.2.4,59.87339175150998,
39.2,45,1,1,1,1,0,174,174,421,268.45197559986264,268.45197559986264,268.95249599963427,269.0192215000279,269.0696409000084,269.0696409000084,269.0696409000084,269.0696409000084,269.11949689965695,269.11949689965695,269.11949689965695,269.11949689965695,269.11949689965695,269.11949689965695,269.11949689965695,269.11949689965695,269.11949689965695,269.11949689965695,num_1,0.3012447999790311,269.45308029977605,269.45308029977605,None,,2,001,2025-12-16_13h32.10.229,2025C_exp1_detect,2022.2.4,59.87339175150998,
39.2,315,1,0,-1,0,0,175,175,34,269.45308029977605,269.45308029977605,269.95368209993467,270.020382899791,270.07070120004937,270.07070120004937,270.07070120004937,270.07070120004937,270.12041329964995,270.12041329964995,270.12041329964995,270.12041329964995,270.12041329964995,270.12041329964995,270.12041329964995,270.12041329964995,270.12041329964995,270.12041329964995,num_1,0.3325554998591542,270.47082499973476,270.47082499973476,None,,2,001,2025-12-16_13h32.10.229,2025C_exp1_detect,2022.2.4,59.87339175150998,
35.3,315,1,0,1,0,0,176,176,105,270.47082499973476,270.47082499973476,270.9711651997641,271.03799230000004,271.08827669965103,271.08827669965103,271.08827669965103,271.08827669965103,271.13814079994336,271.13814079994336,271.13814079994336,271.13814079994336,271.13814079994336,271.13814079994336,271.13814079994336,271.13814079994336,271.13814079994336,271.13814079994336,num_1,0.4101122999563813,271.57166159991175,271.57166159991175,None,,2,001,2025-12-16_13h32.10.229,2025C_exp1_detect,2022.2.4,59.87339175150998,
35.3,45,1,1,-1,0,0,177,177,60,271.57166159991175,271.57166159991175,272.0723617998883,272.1389736998826,272.18939339974895,272.18939339974895,272.18939339974895,272.18939339974895,272.23927939962596,272.23927939962596,272.23927939962596,272.23927939962596,272.23927939962596,272.23927939962596,272.23927939962596,272.23927939962596,272.23927939962596,272.23927939962596,num_3,0.292773500084877,272.55616269959137,272.55616269959137,None,,2,001,2025-12-16_13h32.10.229,2025C_exp1_detect,2022.2.4,59.87339175150998,
15.7,315,0,0,-1,-1,0,178,178,154,272.55616269959137,272.55616269959137,273.05668389983475,273.12341609969735,273.17370839975774,273.17370839975774,273.17370839975774,273.17370839975774,273.22356679989025,273.22356679989025,273.22356679989025,273.22356679989025,273.22356679989025,273.22356679989025,273.22356679989025,273.22356679989025,273.22356679989025,273.22356679989025,num_3,0.2759871003217995,273.5237949998118,273.5237949998118,None,,2,001,2025-12-16_13h32.10.229,2025C_exp1_detect,2022.2.4,59.87339175150998,
39.2,45,1,0,-1,1,0,179,179,313,273.5237949998118,273.5237949998118,274.0241789999418,274.09129059966654,274.141359299887,274.141359299887,274.141359299887,274.141359299887,274.19146949984133,274.19146949984133,274.19146949984133,274.19146949984133,274.19146949984133,274.19146949984133,274.19146949984133,274.19146949984133,274.19146949984133,274.19146949984133,num_1,0.34020560001954436,274.5582947996445,274.5582947996445,None,,2,001,2025-12-16_13h32.10.229,2025C_exp1_detect,2022.2.4,59.87339175150998,
22.7,315,1,0,-1,-1,0,180,180,174,274.5582947996445,274.5582947996445,275.05886159976944,275.12540079979226,275.1756592998281,275.1756592998281,275.1756592998281,275.1756592998281,275.2253422997892,275.2253422997892,275.2253422997892,275.2253422997892,275.2253422997892,275.2253422997892,275.2253422997892,275.2253422997892,275.2253422997892,275.2253422997892,num_1,0.33074430003762245,275.5758489998989,275.5758489998989,None,,2,001,2025-12-16_13h32.10.229,2025C_exp1_detect,2022.2.4,59.87339175150998,
12.1,45,1,0,1,1,0,181,181,378,275.5758489998989,275.5758489998989,276.07610149960965,276.1430701999925,276.1933059999719,276.1933059999719,276.1933059999719,276.1933059999719,276.2432691999711,276.2432691999711,276.2432691999711,276.2432691999711,276.2432691999711,276.2432691999711,276.2432691999711,276.2432691999711,276.2432691999711,276.2432691999711,num_3,0.4648748002946377,276.72700939979404,276.72700939979404,None,,2,001,2025-12-16_13h32.10.229,2025C_exp1_detect,2022.2.4,59.87339175150998,
39.2,45,0,0,1,-1,0,182,182,223,276.72700939979404,276.72700939979404,277.2273772000335,277.2940855999477,277.3445516000502,277.3445516000502,277.3445516000502,277.3445516000502,277.3943847999908,277.3943847999908,277.3943847999908,277.3943847999908,277.3943847999908,277.3943847999908,277.3943847999908,277.3943847999908,277.3943847999908,277.3943847999908,num_3,0.37840280029922724,277.7945663998835,277.7945663998835,None,,2,001,2025-12-16_13h32.10.229,2025C_exp1_detect,2022.2.4,59.87339175150998,
25.5,315,0,1,1,0,0,183,183,121,277.7945663998835,277.7945663998835,278.29524879995733,278.361884099897,278.4120820998214,278.4120820998214,278.4120820998214,278.4120820998214,278.46218879986554,278.46218879986554,278.46218879986554,278.46218879986554,278.46218879986554,278.46218879986554,278.46218879986554,278.46218879986554,278.46218879986554,278.46218879986554,num_3,0.3260775003582239,278.812406799756,278.812406799756,None,,2,001,2025-12-16_13h32.10.229,2025C_exp1_detect,2022.2.4,59.87339175150998,
25.5,315,0,0,-1,-1,0,184,184,157,278.812406799756,278.812406799756,279.31284229969606,279.3796065999195,279.4298751000315,279.4298751000315,279.4298751000315,279.4298751000315,279.47983939992264,279.47983939992264,279.47983939992264,279.47983939992264,279.47983939992264,279.47983939992264,279.47983939992264,279.47983939992264,279.47983939992264,279.47983939992264,num_1,0.32481509959325194,279.83008500002325,279.83008500002325,None,,2,001,2025-12-16_13h32.10.229,2025C_exp1_detect,2022.2.4,59.87339175150998,
29.4,315,1,1,1,1,0,185,185,428,279.83008500002325,279.83008500002325,280.33057829970494,280.39734579995275,280.4476075996645,280.4476075996645,280.4476075996645,280.4476075996645,280.4975050999783,280.4975050999783,280.4975050999783,280.4975050999783,280.4975050999783,280.4975050999783,280.4975050999783,280.4975050999783,280.4975050999783,280.4975050999783,num_3,0.2340692998841405,280.76420199964195,280.76420199964195,None,,2,001,2025-12-16_13h32.10.229,2025C_exp1_detect,2022.2.4,59.87339175150998,
25.5,45,0,1,-1,-1,0,186,186,184,280.76420199964195,280.76420199964195,281.2648409996182,281.3313229000196,281.3815861996263,281.3815861996263,281.3815861996263,281.3815861996263,281.4317326997407,281.4317326997407,281.4317326997407,281.4317326997407,281.4317326997407,281.4317326997407,281.4317326997407,281.4317326997407,281.4317326997407,281.4317326997407,num_3,0.31586649967357516,281.7650947999209,281.7650947999209,None,,2,001,2025-12-16_13h32.10.229,2025C_exp1_detect,2022.2.4,59.87339175150998,
22.7,315,1,1,1,0,0,187,187,138,281.7650947999209,281.7650947999209,282.2658662996255,282.33257359964773,282.38278390001506,282.38278390001506,282.38278390001506,282.38278390001506,282.4325600997545,282.4325600997545,282.4325600997545,282.4325600997545,282.4325600997545,282.4325600997545,282.4325600997545,282.4325600997545,282.4325600997545,282.4325600997545,num_3,0.2756556998938322,282.733000499662,282.733000499662,None,,2,001,2025-12-16_13h32.10.229,2025C_exp1_detect,2022.2.4,59.87339175150998,
42.7,315,1,0,1,1,0,188,188,395,282.733000499662,282.733000499662,283.23352260002866,283.3003618000075,283.35054939985275,283.35054939985275,283.35054939985275,283.35054939985275,283.4004385997541,283.4004385997541,283.4004385997541,283.4004385997541,283.4004385997541,283.4004385997541,283.4004385997541,283.4004385997541,283.4004385997541,283.4004385997541,num_1,0.3231889000162482,283.75067529967055,283.75067529967055,None,,2,001,2025-12-16_13h32.10.229,2025C_exp1_detect,2022.2.4,59.87339175150998,
39.2,45,0,1,1,1,0,189,189,403,283.75067529967055,283.75067529967055,284.2510567996651,284.3179059997201,284.3681894997135,284.3681894997135,284.3681894997135,284.3681894997135,284.4181010997854,284.4181010997854,284.4181010997854,284.4181010997854,284.4181010997854,284.4181010997854,284.4181010997854,284.4181010997854,284.4181010997854,284.4181010997854,num_1,0.3145431000739336,284.75171840004623,284.75171840004623,None,,2,001,2025-12-16_13h32.10.229,2025C_exp1_detect,2022.2.4,59.87339175150998,
22.7,45,1,0,1,1,0,190,190,381,284.75171840004623,284.75171840004623,285.25217140000314,285.31862699985504,285.36913579981774,285.36913579981774,285.36913579981774,285.36913579981774,285.4190961997956,285.4190961997956,285.4190961997956,285.4190961997956,285.4190961997956,285.4190961997956,285.4190961997956,285.4190961997956,285.4190961997956,285.4190961997956,num_3,0.4329122002236545,285.86953220004216,285.86953220004216,None,,2,001,2025-12-16_13h32.10.229,2025C_exp1_detect,2022.2.4,59.87339175150998,
19.6,315,1,0,-1,-1,0,191,191,173,285.86953220004216,285.86953220004216,286.36969229998067,286.4365599998273,286.4869655999355,286.4869655999355,286.4869655999355,286.4869655999355,286.53669649967924,286.53669649967924,286.53669649967924,286.53669649967924,286.53669649967924,286.53669649967924,286.53669649967924,286.53669649967924,286.53669649967924,286.53669649967924,num_3,0.3868530998006463,286.9537375997752,286.9537375997752,None,,2,001,2025-12-16_13h32.10.229,2025C_exp1_detect,2022.2.4,59.87339175150998,
12.1,45,1,1,1,0,0,192,192,126,286.9537375997752,286.9537375997752,287.4544314998202,287.5211269999854,287.57112049963325,287.57112049963325,287.57112049963325,287.57112049963325,287.62120809964836,287.62120809964836,287.62120809964836,287.62120809964836,287.62120809964836,287.62120809964836,287.62120809964836,287.62120809964836,287.62120809964836,287.62120809964836,num_3,0.5271387998946011,288.17175540002063,288.17175540002063,None,,2,001,2025-12-16_13h32.10.229,2025C_exp1_detect,2022.2.4,59.87339175150998,
35.3,45,0,1,-1,1,0,193,193,330,288.17175540002063,288.17175540002063,288.6722672996111,288.73894489975646,288.78926249966025,288.78926249966025,288.78926249966025,288.78926249966025,288.8391583999619,288.8391583999619,288.8391583999619,288.8391583999619,288.8391583999619,288.8391583999619,288.8391583999619,288.8391583999619,288.8391583999619,288.8391583999619,num_3,0.46145719988271594,289.322901699692,289.322901699692,None,,2,001,2025-12-16_13h32.10.229,2025C_exp1_detect,2022.2.4,59.87339175150998,
39.2,315,1,0,1,-1,0,194,194,250,289.322901699692,289.322901699692,289.8235414996743,289.8902833997272,289.9402854000218,289.9402854000218,289.9402854000218,289.9402854000218,289.9903071997687,289.9903071997687,289.9903071997687,289.9903071997687,289.9903071997687,289.9903071997687,289.9903071997687,289.9903071997687,289.9903071997687,289.9903071997687,num_3,0.4852150999940932,290.50727459974587,290.50727459974587,None,,2,001,2025-12-16_13h32.10.229,2025C_exp1_detect,2022.2.4,59.87339175150998,
