contrast,ori,side,precue,trials.thisRepN,trials.thisTrialN,trials.thisN,trials.thisIndex,fix1.started,fix2.started,precue_2.started,precue_2.stopped,left_grating.started,right_grating.started,noise_left2.started,noise_right2.started,fix1.stopped,fix2.stopped,left_grating.stopped,right_grating.stopped,noise_left2.stopped,noise_right2.stopped,key_resp.started,fix1_2.started,fix2_2.started,key_resp.keys,key_resp.rt,key_resp_2.started,break_text_2.started,key_resp_2.keys,key_resp_2.rt,participant,session,date,expName,psychopyVersion,frameRate,
25.5,45,1,-1,0,0,0,94,18.00316149974242,18.00316149974242,18.48235369985923,18.548994099721313,18.63018749980256,18.63018749980256,18.63018749980256,18.63018749980256,18.665849999990314,18.665849999990314,18.665849999990314,18.665849999990314,18.665849999990314,18.665849999990314,18.665849999990314,18.665849999990314,18.665849999990314,right,1.3703192002139986,20.067189400084317,20.067189400084317,None,,3,001,2025-12-16_15h13.59.524,2025C_exp1_comp,2022.2.4,60.013383072356824,
25.5,315,1,-1,0,1,1,103,20.067189400084317,20.067189400084317,20.56783950002864,20.634434099774808,20.684772599954158,20.684772599954158,20.684772599954158,20.684772599954158,20.734458799939603,20.734458799939603,20.734458799939603,20.734458799939603,20.734458799939603,20.734458799939603,20.734458799939603,20.734458799939603,20.734458799939603,right,0.7162275002337992,21.468842499889433,21.468842499889433,None,,3,001,2025-12-16_15h13.59.524,2025C_exp1_comp,2022.2.4,60.013383072356824,
19.6,45,-1,1,0,2,2,38,21.468842499889433,21.468842499889433,21.969287399668247,22.03588499967009,22.08637689985335,22.08637689985335,22.08637689985335,22.08637689985335,22.136224399786443,22.136224399786443,22.136224399786443,22.136224399786443,22.136224399786443,22.136224399786443,22.136224399786443,22.136224399786443,22.136224399786443,right,0.5393817001022398,22.70351090002805,22.70351090002805,None,,3,001,2025-12-16_15h13.59.524,2025C_exp1_comp,2022.2.4,60.013383072356824,
22.7,315,-1,1,0,3,3,48,22.70351090002805,22.70351090002805,23.20370139973238,23.27046509971842,23.32080759992823,23.32080759992823,23.32080759992823,23.32080759992823,23.37054829997942,23.37054829997942,23.37054829997942,23.37054829997942,23.37054829997942,23.37054829997942,23.37054829997942,23.37054829997942,23.37054829997942,right,0.6485859001986682,24.037893899716437,24.037893899716437,None,,3,001,2025-12-16_15h13.59.524,2025C_exp1_comp,2022.2.4,60.013383072356824,
12.1,315,1,-1,0,4,4,99,24.037893899716437,24.037893899716437,24.538571999873966,24.605264599900693,24.65539119997993,24.65539119997993,24.65539119997993,24.65539119997993,24.705260599963367,24.705260599963367,24.705260599963367,24.705260599963367,24.705260599963367,24.705260599963367,24.705260599963367,24.705260599963367,24.705260599963367,left,21.11429030029103,45.843123599886894,45.843123599886894,None,,3,001,2025-12-16_15h13.59.524,2025C_exp1_comp,2022.2.4,60.013383072356824,
12.1,315,-1,0,0,5,5,9,45.843123599886894,45.843123599886894,46.3433379996568,46.410253799986094,46.46060309978202,46.46060309978202,46.46060309978202,46.46060309978202,46.510652099736035,46.510652099736035,46.510652099736035,46.510652099736035,46.510652099736035,46.510652099736035,46.510652099736035,46.510652099736035,46.510652099736035,right,0.7165061002597213,47.244279799982905,47.244279799982905,None,,3,001,2025-12-16_15h13.59.524,2025C_exp1_comp,2022.2.4,60.013383072356824,
35.3,45,1,-1,0,6,6,96,47.244279799982905,47.244279799982905,47.74497199989855,47.811649499926716,47.8619515998289,47.8619515998289,47.8619515998289,47.8619515998289,47.91168069979176,47.91168069979176,47.91168069979176,47.91168069979176,47.91168069979176,47.91168069979176,47.91168069979176,47.91168069979176,47.91168069979176,left,0.6037461999803782,48.54576899996027,48.54576899996027,None,,3,001,2025-12-16_15h13.59.524,2025C_exp1_comp,2022.2.4,60.013383072356824,
42.7,45,-1,1,0,7,7,44,48.54576899996027,48.54576899996027,49.046168599743396,49.11288939975202,49.1632062997669,49.1632062997669,49.1632062997669,49.1632062997669,49.213104399852455,49.213104399852455,49.213104399852455,49.213104399852455,49.213104399852455,49.213104399852455,49.213104399852455,49.213104399852455,49.213104399852455,right,0.49434670014306903,49.73025699984282,49.73025699984282,None,,3,001,2025-12-16_15h13.59.524,2025C_exp1_comp,2022.2.4,60.013383072356824,
39.2,45,-1,1,0,8,8,43,49.73025699984282,49.73025699984282,50.230803799815476,50.29741119965911,50.347812599968165,50.347812599968165,50.347812599968165,50.347812599968165,50.397518899757415,50.397518899757415,50.397518899757415,50.397518899757415,50.397518899757415,50.397518899757415,50.397518899757415,50.397518899757415,50.397518899757415,left,0.3092300002463162,50.73110929969698,50.73110929969698,None,,3,001,2025-12-16_15h13.59.524,2025C_exp1_comp,2022.2.4,60.013383072356824,
12.1,315,1,0,0,9,9,27,50.73110929969698,50.73110929969698,51.231679799966514,51.29849479999393,51.34880260005593,51.34880260005593,51.34880260005593,51.34880260005593,51.398470299784094,51.398470299784094,51.398470299784094,51.398470299784094,51.398470299784094,51.398470299784094,51.398470299784094,51.398470299784094,51.398470299784094,left,0.3885884000919759,51.81568149989471,51.81568149989471,None,,3,001,2025-12-16_15h13.59.524,2025C_exp1_comp,2022.2.4,60.013383072356824,
12.1,45,1,1,0,10,10,54,51.81568149989471,51.81568149989471,52.31620909972116,52.38293629977852,52.4330291999504,52.4330291999504,52.4330291999504,52.4330291999504,52.483020399697125,52.483020399697125,52.483020399697125,52.483020399697125,52.483020399697125,52.483020399697125,52.483020399697125,52.483020399697125,52.483020399697125,left,0.3519658003933728,52.86668869992718,52.86668869992718,None,,3,001,2025-12-16_15h13.59.524,2025C_exp1_comp,2022.2.4,60.013383072356824,
25.5,45,-1,-1,0,11,11,76,52.86668869992718,52.86668869992718,53.367334299720824,53.43395569967106,53.48418649984524,53.48418649984524,53.48418649984524,53.48418649984524,53.53392429975793,53.53392429975793,53.53392429975793,53.53392429975793,53.53392429975793,53.53392429975793,53.53392429975793,53.53392429975793,53.53392429975793,right,0.49372530030086637,54.051113499794155,54.051113499794155,None,,3,001,2025-12-16_15h13.59.524,2025C_exp1_comp,2022.2.4,60.013383072356824,
19.6,315,1,-1,0,12,12,101,54.051113499794155,54.051113499794155,54.551637900061905,54.618483199737966,54.66858399985358,54.66858399985358,54.66858399985358,54.66858399985358,54.7183918999508,54.7183918999508,54.7183918999508,54.7183918999508,54.7183918999508,54.7183918999508,54.7183918999508,54.7183918999508,54.7183918999508,left,0.477061300072819,55.21916119987145,55.21916119987145,None,,3,001,2025-12-16_15h13.59.524,2025C_exp1_comp,2022.2.4,60.013383072356824,
19.6,45,-1,0,0,13,13,2,55.21916119987145,55.21916119987145,55.719617600087076,55.78622729983181,55.83664319990203,55.83664319990203,55.83664319990203,55.83664319990203,55.886520399712026,55.886520399712026,55.886520399712026,55.886520399712026,55.886520399712026,55.886520399712026,55.886520399712026,55.886520399712026,55.886520399712026,right,0.357389600481838,56.27014139993116,56.27014139993116,None,,3,001,2025-12-16_15h13.59.524,2025C_exp1_comp,2022.2.4,60.013383072356824,
39.2,315,-1,0,0,14,14,16,56.27014139993116,56.27014139993116,56.77037459984422,56.83737069973722,56.887885299976915,56.887885299976915,56.887885299976915,56.887885299976915,56.937728099990636,56.937728099990636,56.937728099990636,56.937728099990636,56.937728099990636,56.937728099990636,56.937728099990636,56.937728099990636,56.937728099990636,right,0.5377237005159259,57.50457439990714,57.50457439990714,None,,3,001,2025-12-16_15h13.59.524,2025C_exp1_comp,2022.2.4,60.013383072356824,
19.6,45,1,1,0,15,15,56,57.50457439990714,57.50457439990714,58.00520949997008,58.07192729972303,58.12221569987014,58.12221569987014,58.12221569987014,58.12221569987014,58.171892599668354,58.171892599668354,58.171892599668354,58.171892599668354,58.171892599668354,58.171892599668354,58.171892599668354,58.171892599668354,58.171892599668354,left,0.47167120035737753,58.67239449964836,58.67239449964836,None,,3,001,2025-12-16_15h13.59.524,2025C_exp1_comp,2022.2.4,60.013383072356824,
39.2,315,1,1,0,16,16,70,58.67239449964836,58.67239449964836,59.172878599725664,59.239761400036514,59.28984449990094,59.28984449990094,59.28984449990094,59.28984449990094,59.33957839990035,59.33957839990035,59.33957839990035,59.33957839990035,59.33957839990035,59.33957839990035,59.33957839990035,59.33957839990035,59.33957839990035,right,0.4716769000515342,59.840367099735886,59.840367099735886,None,,3,001,2025-12-16_15h13.59.524,2025C_exp1_comp,2022.2.4,60.013383072356824,
29.4,45,-1,1,0,17,17,41,59.840367099735886,59.840367099735886,60.34085399983451,60.40758549980819,60.4578627999872,60.4578627999872,60.4578627999872,60.4578627999872,60.5075908000581,60.5075908000581,60.5075908000581,60.5075908000581,60.5075908000581,60.5075908000581,60.5075908000581,60.5075908000581,60.5075908000581,right,0.3915964001789689,60.924511400051415,60.924511400051415,None,,3,001,2025-12-16_15h13.59.524,2025C_exp1_comp,2022.2.4,60.013383072356824,
39.2,315,-1,-1,0,18,18,88,60.924511400051415,60.924511400051415,61.42532450007275,61.492141800001264,61.54247469967231,61.54247469967231,61.54247469967231,61.54247469967231,61.592136200051755,61.592136200051755,61.592136200051755,61.592136200051755,61.592136200051755,61.592136200051755,61.592136200051755,61.592136200051755,61.592136200051755,right,0.5632043001241982,62.17601429997012,62.17601429997012,None,,3,001,2025-12-16_15h13.59.524,2025C_exp1_comp,2022.2.4,60.013383072356824,
12.1,45,-1,1,0,19,19,36,62.17601429997012,62.17601429997012,62.67650659987703,62.74331509973854,62.79345380002633,62.79345380002633,62.79345380002633,62.79345380002633,62.84339910000563,62.84339910000563,62.84339910000563,62.84339910000563,62.84339910000563,62.84339910000563,62.84339910000563,62.84339910000563,62.84339910000563,right,0.45606590062379837,63.327195699792355,63.327195699792355,None,,3,001,2025-12-16_15h13.59.524,2025C_exp1_comp,2022.2.4,60.013383072356824,
15.7,45,1,-1,0,20,20,91,63.327195699792355,63.327195699792355,63.82777989981696,63.894552200101316,63.94476299965754,63.94476299965754,63.94476299965754,63.94476299965754,63.99458789965138,63.99458789965138,63.99458789965138,63.99458789965138,63.99458789965138,63.99458789965138,63.99458789965138,63.99458789965138,63.99458789965138,left,0.41589630022644997,64.42824700009078,64.42824700009078,None,,3,001,2025-12-16_15h13.59.524,2025C_exp1_comp,2022.2.4,60.013383072356824,
25.5,45,-1,0,0,21,21,4,64.42824700009078,64.42824700009078,64.92879369994625,64.99551689997315,65.04558959975839,65.04558959975839,65.04558959975839,65.04558959975839,65.09535969980061,65.09535969980061,65.09535969980061,65.09535969980061,65.09535969980061,65.09535969980061,65.09535969980061,65.09535969980061,65.09535969980061,right,0.4038719004020095,65.52966560004279,65.52966560004279,None,,3,001,2025-12-16_15h13.59.524,2025C_exp1_comp,2022.2.4,60.013383072356824,
39.2,315,-1,1,0,22,22,52,65.52966560004279,65.52966560004279,66.03002679999918,66.09655939973891,66.1467478997074,66.1467478997074,66.1467478997074,66.1467478997074,66.19658380001783,66.19658380001783,66.19658380001783,66.19658380001783,66.19658380001783,66.19658380001783,66.19658380001783,66.19658380001783,66.19658380001783,right,0.3981622005812824,66.6137858000584,66.6137858000584,None,,3,001,2025-12-16_15h13.59.524,2025C_exp1_comp,2022.2.4,60.013383072356824,
29.4,315,1,0,0,23,23,32,66.6137858000584,66.6137858000584,67.11436579981819,67.18072449974716,67.23123569972813,67.23123569972813,67.23123569972813,67.23123569972813,67.28094189986587,67.28094189986587,67.28094189986587,67.28094189986587,67.28094189986587,67.28094189986587,67.28094189986587,67.28094189986587,67.28094189986587,right,0.5062531000003219,67.81485769990832,67.81485769990832,None,,3,001,2025-12-16_15h13.59.524,2025C_exp1_comp,2022.2.4,60.013383072356824,
22.7,315,1,-1,0,24,24,102,67.81485769990832,67.81485769990832,68.31556549994275,68.38223759969696,68.43253279989585,68.43253279989585,68.43253279989585,68.43253279989585,68.48218930000439,68.48218930000439,68.48218930000439,68.48218930000439,68.48218930000439,68.48218930000439,68.48218930000439,68.48218930000439,68.48218930000439,right,0.3369276002049446,68.8492262000218,68.8492262000218,None,,3,001,2025-12-16_15h13.59.524,2025C_exp1_comp,2022.2.4,60.013383072356824,
15.7,45,-1,1,0,25,25,37,68.8492262000218,68.8492262000218,69.3496912997216,69.41628259979188,69.46672319993377,69.46672319993377,69.46672319993377,69.46672319993377,69.5165407997556,69.5165407997556,69.5165407997556,69.5165407997556,69.5165407997556,69.5165407997556,69.5165407997556,69.5165407997556,69.5165407997556,right,0.4141950001940131,69.950346800033,69.950346800033,None,,3,001,2025-12-16_15h13.59.524,2025C_exp1_comp,2022.2.4,60.013383072356824,
42.7,45,1,0,0,26,26,26,69.950346800033,69.950346800033,70.45111689995974,70.5178390997462,70.56818050006405,70.56818050006405,70.56818050006405,70.56818050006405,70.61793609987944,70.61793609987944,70.61793609987944,70.61793609987944,70.61793609987944,70.61793609987944,70.61793609987944,70.61793609987944,70.61793609987944,right,0.45699930004775524,71.1015951000154,71.1015951000154,None,,3,001,2025-12-16_15h13.59.524,2025C_exp1_comp,2022.2.4,60.013383072356824,
25.5,315,1,0,0,27,27,31,71.1015951000154,71.1015951000154,71.60220069997013,71.6689427997917,71.71919539989904,71.71919539989904,71.71919539989904,71.71919539989904,71.76896499982104,71.76896499982104,71.76896499982104,71.76896499982104,71.76896499982104,71.76896499982104,71.76896499982104,71.76896499982104,71.76896499982104,right,0.4184267004020512,72.21917139971629,72.21917139971629,None,,3,001,2025-12-16_15h13.59.524,2025C_exp1_comp,2022.2.4,60.013383072356824,
22.7,315,1,1,0,28,28,66,72.21917139971629,72.21917139971629,72.71979149989784,72.78651179978624,72.83699749968946,72.83699749968946,72.83699749968946,72.83699749968946,72.88681649975479,72.88681649975479,72.88681649975479,72.88681649975479,72.88681649975479,72.88681649975479,72.88681649975479,72.88681649975479,72.88681649975479,left,0.5555363004095852,73.47052029985934,73.47052029985934,None,,3,001,2025-12-16_15h13.59.524,2025C_exp1_comp,2022.2.4,60.013383072356824,
39.2,45,1,-1,0,29,29,97,73.47052029985934,73.47052029985934,73.97117829974741,74.03791069984436,74.08832390001044,74.08832390001044,74.08832390001044,74.08832390001044,74.13805839978158,74.13805839978158,74.13805839978158,74.13805839978158,74.13805839978158,74.13805839978158,74.13805839978158,74.13805839978158,74.13805839978158,right,0.49756120052188635,74.6550392000936,74.6550392000936,None,,3,001,2025-12-16_15h13.59.524,2025C_exp1_comp,2022.2.4,60.013383072356824,
22.7,45,1,1,0,30,30,57,74.6550392000936,74.6550392000936,75.15581229981035,75.22219649981707,75.27273669978604,75.27273669978604,75.27273669978604,75.27273669978604,75.32248979993165,75.32248979993165,75.32248979993165,75.32248979993165,75.32248979993165,75.32248979993165,75.32248979993165,75.32248979993165,75.32248979993165,left,0.3999928003177047,75.73957740003243,75.73957740003243,None,,3,001,2025-12-16_15h13.59.524,2025C_exp1_comp,2022.2.4,60.013383072356824,
12.1,45,-1,0,0,31,31,0,75.73957740003243,75.73957740003243,76.24005339993164,76.30679369997233,76.35713679995388,76.35713679995388,76.35713679995388,76.35713679995388,76.40680469991639,76.40680469991639,76.40680469991639,76.40680469991639,76.40680469991639,76.40680469991639,76.40680469991639,76.40680469991639,76.40680469991639,right,0.4197971001267433,76.85730620007962,76.85730620007962,None,,3,001,2025-12-16_15h13.59.524,2025C_exp1_comp,2022.2.4,60.013383072356824,
29.4,45,-1,-1,0,32,32,77,76.85730620007962,76.85730620007962,77.35815119976178,77.42484480002895,77.47518619988114,77.47518619988114,77.47518619988114,77.47518619988114,77.52485049981624,77.52485049981624,77.52485049981624,77.52485049981624,77.52485049981624,77.52485049981624,77.52485049981624,77.52485049981624,77.52485049981624,right,0.3736978000961244,77.92508969968185,77.92508969968185,None,,3,001,2025-12-16_15h13.59.524,2025C_exp1_comp,2022.2.4,60.013383072356824,
15.7,45,1,0,0,33,33,19,77.92508969968185,77.92508969968185,78.4255384998396,78.49235579976812,78.54264249978587,78.54264249978587,78.54264249978587,78.54264249978587,78.59242359967902,78.59242359967902,78.59242359967902,78.59242359967902,78.59242359967902,78.59242359967902,78.59242359967902,78.59242359967902,78.59242359967902,left,0.4505347004160285,79.05957459984347,79.05957459984347,None,,3,001,2025-12-16_15h13.59.524,2025C_exp1_comp,2022.2.4,60.013383072356824,
35.3,45,-1,-1,0,34,34,78,79.05957459984347,79.05957459984347,79.55993979983032,79.62683840002865,79.67692489968613,79.67692489968613,79.67692489968613,79.67692489968613,79.72661029966548,79.72661029966548,79.72661029966548,79.72661029966548,79.72661029966548,79.72661029966548,79.72661029966548,79.72661029966548,79.72661029966548,right,0.4285948001779616,80.1772304000333,80.1772304000333,None,,3,001,2025-12-16_15h13.59.524,2025C_exp1_comp,2022.2.4,60.013383072356824,
42.7,45,-1,0,0,35,35,8,80.1772304000333,80.1772304000333,80.67785499989986,80.74457169976085,80.79485209984705,80.79485209984705,80.79485209984705,80.79485209984705,80.8446642998606,80.8446642998606,80.8446642998606,80.8446642998606,80.8446642998606,80.8446642998606,80.8446642998606,80.8446642998606,80.8446642998606,left,0.3817899003624916,81.24511480005458,81.24511480005458,None,,3,001,2025-12-16_15h13.59.524,2025C_exp1_comp,2022.2.4,60.013383072356824,
35.3,315,1,1,0,36,36,69,81.24511480005458,81.24511480005458,81.74562379997224,81.81206130003557,81.86257459968328,81.86257459968328,81.86257459968328,81.86257459968328,81.9124254998751,81.9124254998751,81.9124254998751,81.9124254998751,81.9124254998751,81.9124254998751,81.9124254998751,81.9124254998751,81.9124254998751,right,0.43507570028305054,82.37939610006288,82.37939610006288,None,,3,001,2025-12-16_15h13.59.524,2025C_exp1_comp,2022.2.4,60.013383072356824,
22.7,315,1,0,0,37,37,30,82.37939610006288,82.37939610006288,82.88013729965314,82.94674049969763,82.99704180005938,82.99704180005938,82.99704180005938,82.99704180005938,83.04697619983926,83.04697619983926,83.04697619983926,83.04697619983926,83.04697619983926,83.04697619983926,83.04697619983926,83.04697619983926,83.04697619983926,right,0.5876559000462294,83.66423349967226,83.66423349967226,None,,3,001,2025-12-16_15h13.59.524,2025C_exp1_comp,2022.2.4,60.013383072356824,
29.4,45,1,-1,0,38,38,95,83.66423349967226,83.66423349967226,84.16488429997116,84.23142729979008,84.28184970002621,84.28184970002621,84.28184970002621,84.28184970002621,84.3313702000305,84.3313702000305,84.3313702000305,84.3313702000305,84.3313702000305,84.3313702000305,84.3313702000305,84.3313702000305,84.3313702000305,left,0.3835015003569424,84.73178939986974,84.73178939986974,None,,3,001,2025-12-16_15h13.59.524,2025C_exp1_comp,2022.2.4,60.013383072356824,
22.7,45,-1,1,0,39,39,39,84.73178939986974,84.73178939986974,85.23220569966361,85.29917360004038,85.34944320004433,85.34944320004433,85.34944320004433,85.34944320004433,85.39921989990398,85.39921989990398,85.39921989990398,85.39921989990398,85.39921989990398,85.39921989990398,85.39921989990398,85.39921989990398,85.39921989990398,right,0.42004230013117194,85.86950360005721,85.86950360005721,None,,3,001,2025-12-16_15h13.59.524,2025C_exp1_comp,2022.2.4,60.013383072356824,
42.7,315,-1,1,0,40,40,53,85.86950360005721,85.86950360005721,86.35014900006354,86.41675180010498,86.46696619968861,86.46696619968861,86.46696619968861,86.46696619968861,86.51705149980262,86.51705149980262,86.51705149980262,86.51705149980262,86.51705149980262,86.51705149980262,86.53373889997602,86.53373889997602,86.53373889997602,right,0.612812100443989,87.16740089980885,87.16740089980885,None,,3,001,2025-12-16_15h13.59.524,2025C_exp1_comp,2022.2.4,60.013383072356824,
29.4,315,1,-1,0,41,41,104,87.16740089980885,87.16740089980885,87.66790340002626,87.73462389968336,87.78498720005155,87.78498720005155,87.78498720005155,87.78498720005155,87.83467839984223,87.83467839984223,87.83467839984223,87.83467839984223,87.83467839984223,87.83467839984223,87.83467839984223,87.83467839984223,87.83467839984223,left,0.5203602002002299,88.38524019997567,88.38524019997567,None,,3,001,2025-12-16_15h13.59.524,2025C_exp1_comp,2022.2.4,60.013383072356824,
22.7,45,1,-1,0,42,42,93,88.38524019997567,88.38524019997567,88.88576199999079,88.95247719995677,89.00281669991091,89.00281669991091,89.00281669991091,89.00281669991091,89.05256460001692,89.05256460001692,89.05256460001692,89.05256460001692,89.05256460001692,89.05256460001692,89.05256460001692,89.05256460001692,89.05256460001692,left,0.4539165999740362,89.53640539990738,89.53640539990738,None,,3,001,2025-12-16_15h13.59.524,2025C_exp1_comp,2022.2.4,60.013383072356824,
19.6,45,1,0,0,43,43,20,89.53640539990738,89.53640539990738,90.0369175998494,90.10388509975746,90.15400229999796,90.15400229999796,90.15400229999796,90.15400229999796,90.20372950006276,90.20372950006276,90.20372950006276,90.20372950006276,90.20372950006276,90.20372950006276,90.20372950006276,90.20372950006276,90.20372950006276,left,0.39135280018672347,90.62147550005466,90.62147550005466,None,,3,001,2025-12-16_15h13.59.524,2025C_exp1_comp,2022.2.4,60.013383072356824,
25.5,315,1,1,0,44,44,67,90.62147550005466,90.62147550005466,91.12135199969634,91.18804130004719,91.23846499994397,91.23846499994397,91.23846499994397,91.23846499994397,91.28813900006935,91.28813900006935,91.28813900006935,91.28813900006935,91.28813900006935,91.28813900006935,91.28813900006935,91.28813900006935,91.28813900006935,left,0.31437630020081997,91.62179799983278,91.62179799983278,None,,3,001,2025-12-16_15h13.59.524,2025C_exp1_comp,2022.2.4,60.013383072356824,
25.5,315,-1,0,0,45,45,13,91.62179799983278,91.62179799983278,92.12236939975992,92.18917969986796,92.23938510008156,92.23938510008156,92.23938510008156,92.23938510008156,92.28917869972065,92.28917869972065,92.28917869972065,92.28917869972065,92.28917869972065,92.28917869972065,92.28917869972065,92.28917869972065,92.28917869972065,right,0.43343700002878904,92.7397318999283,92.7397318999283,None,,3,001,2025-12-16_15h13.59.524,2025C_exp1_comp,2022.2.4,60.013383072356824,
15.7,315,1,0,0,46,46,28,92.7397318999283,92.7397318999283,93.24015429988503,93.30686079990119,93.35719330003485,93.35719330003485,93.35719330003485,93.35719330003485,93.40695319976658,93.40695319976658,93.40695319976658,93.40695319976658,93.40695319976658,93.40695319976658,93.40695319976658,93.40695319976658,93.40695319976658,left,0.38020280050113797,93.80735919997096,93.80735919997096,None,,3,001,2025-12-16_15h13.59.524,2025C_exp1_comp,2022.2.4,60.013383072356824,
12.1,45,1,-1,0,47,47,90,93.80735919997096,93.80735919997096,94.30788409989327,94.37458899989724,94.42489279992878,94.42489279992878,94.42489279992878,94.42489279992878,94.4747060998343,94.4747060998343,94.4747060998343,94.4747060998343,94.4747060998343,94.4747060998343,94.4747060998343,94.4747060998343,94.4747060998343,left,0.37577160028740764,94.87510349974036,94.87510349974036,None,,3,001,2025-12-16_15h13.59.524,2025C_exp1_comp,2022.2.4,60.013383072356824,
15.7,315,-1,1,0,48,48,46,94.87510349974036,94.87510349974036,95.37575399968773,95.44233909994364,95.49263909971341,95.49263909971341,95.49263909971341,95.49263909971341,95.54247119976208,95.54247119976208,95.54247119976208,95.54247119976208,95.54247119976208,95.54247119976208,95.54247119976208,95.54247119976208,95.54247119976208,right,0.37196880020201206,95.94280149973929,95.94280149973929,None,,3,001,2025-12-16_15h13.59.524,2025C_exp1_comp,2022.2.4,60.013383072356824,
15.7,45,1,1,0,49,49,55,95.94280149973929,95.94280149973929,96.4434410999529,96.51003249967471,96.56033460004255,96.56033460004255,96.56033460004255,96.56033460004255,96.61014929972589,96.61014929972589,96.61014929972589,96.61014929972589,96.61014929972589,96.61014929972589,96.61014929972589,96.61014929972589,96.61014929972589,left,0.3124415003694594,96.94387679966167,96.94387679966167,None,,3,001,2025-12-16_15h13.59.524,2025C_exp1_comp,2022.2.4,60.013383072356824,
39.2,45,-1,0,0,50,50,7,96.94387679966167,96.94387679966167,97.44459229987115,97.51146969990805,97.56155820004642,97.56155820004642,97.56155820004642,97.56155820004642,97.61124849971384,97.61124849971384,97.61124849971384,97.61124849971384,97.61124849971384,97.61124849971384,97.61124849971384,97.61124849971384,97.61124849971384,right,0.5515835001133382,98.19535009982064,98.19535009982064,None,,3,001,2025-12-16_15h13.59.524,2025C_exp1_comp,2022.2.4,60.013383072356824,
42.7,45,1,-1,0,51,51,98,98.19535009982064,98.19535009982064,98.69573929999024,98.76261289976537,98.81288249976933,98.81288249976933,98.81288249976933,98.81288249976933,98.8627582998015,98.8627582998015,98.8627582998015,98.8627582998015,98.8627582998015,98.8627582998015,98.8627582998015,98.8627582998015,98.8627582998015,right,0.6838318002410233,99.563486199826,99.563486199826,None,,3,001,2025-12-16_15h13.59.524,2025C_exp1_comp,2022.2.4,60.013383072356824,
35.3,315,1,-1,0,52,52,105,99.563486199826,99.563486199826,100.0637976997532,100.13051269995049,100.18092729989439,100.18092729989439,100.18092729989439,100.18092729989439,100.2307619000785,100.2307619000785,100.2307619000785,100.2307619000785,100.2307619000785,100.2307619000785,100.2307619000785,100.2307619000785,100.2307619000785,right,0.49304100032895803,100.74778570001945,100.74778570001945,None,,3,001,2025-12-16_15h13.59.524,2025C_exp1_comp,2022.2.4,60.013383072356824,
19.6,315,-1,0,0,53,53,11,100.74778570001945,100.74778570001945,101.24842419987544,101.31508879968897,101.3654221999459,101.3654221999459,101.3654221999459,101.3654221999459,101.41512520005926,101.41512520005926,101.41512520005926,101.41512520005926,101.41512520005926,101.41512520005926,101.41512520005926,101.41512520005926,101.41512520005926,right,0.46091000037267804,101.89911809982732,101.89911809982732,None,,3,001,2025-12-16_15h13.59.524,2025C_exp1_comp,2022.2.4,60.013383072356824,
19.6,45,1,-1,0,54,54,92,101.89911809982732,101.89911809982732,102.39960030000657,102.4660378000699,102.51628670003265,102.51628670003265,102.51628670003265,102.51628670003265,102.56657609995455,102.56657609995455,102.56657609995455,102.56657609995455,102.56657609995455,102.56657609995455,102.56657609995455,102.56657609995455,102.56657609995455,left,0.332823000382632,102.91671480005607,102.91671480005607,None,,3,001,2025-12-16_15h13.59.524,2025C_exp1_comp,2022.2.4,60.013383072356824,
29.4,315,1,1,0,55,55,68,102.91671480005607,102.91671480005607,103.41732739983127,103.48393139988184,103.53435089997947,103.53435089997947,103.53435089997947,103.53435089997947,103.58414639998227,103.58414639998227,103.58414639998227,103.58414639998227,103.58414639998227,103.58414639998227,103.58414639998227,103.58414639998227,103.58414639998227,right,0.4672032999806106,104.06790039967746,104.06790039967746,None,,3,001,2025-12-16_15h13.59.524,2025C_exp1_comp,2022.2.4,60.013383072356824,
39.2,315,1,-1,0,56,56,106,104.06790039967746,104.06790039967746,104.56811499968171,104.6351316999644,104.6854411996901,104.6854411996901,104.6854411996901,104.6854411996901,104.73494829982519,104.73494829982519,104.73494829982519,104.73494829982519,104.73494829982519,104.73494829982519,104.73494829982519,104.73494829982519,104.73494829982519,left,0.43538690032437444,105.20224400004372,105.20224400004372,None,,3,001,2025-12-16_15h13.59.524,2025C_exp1_comp,2022.2.4,60.013383072356824,
12.1,45,1,0,0,57,57,18,105.20224400004372,105.20224400004372,105.7028677999042,105.76962999999523,105.81982690002769,105.81982690002769,105.81982690002769,105.81982690002769,105.86974089965224,105.86974089965224,105.86974089965224,105.86974089965224,105.86974089965224,105.86974089965224,105.86974089965224,105.86974089965224,105.86974089965224,left,0.3491418003104627,106.2366431998089,106.2366431998089,None,,3,001,2025-12-16_15h13.59.524,2025C_exp1_comp,2022.2.4,60.013383072356824,
15.7,45,-1,0,0,58,58,1,106.2366431998089,106.2366431998089,106.7373778000474,106.8037777999416,106.85417820001021,106.85417820001021,106.85417820001021,106.85417820001021,106.90407579997554,106.90407579997554,106.90407579997554,106.90407579997554,106.90407579997554,106.90407579997554,106.90407579997554,106.90407579997554,106.90407579997554,right,0.47532840026542544,107.40444369986653,107.40444369986653,None,,3,001,2025-12-16_15h13.59.524,2025C_exp1_comp,2022.2.4,60.013383072356824,
12.1,315,-1,1,0,59,59,45,107.40444369986653,107.40444369986653,107.90516999969259,107.97174739977345,108.02204259997234,108.02204259997234,108.02204259997234,108.02204259997234,108.07195420004427,108.07195420004427,108.07195420004427,108.07195420004427,108.07195420004427,108.07195420004427,108.07195420004427,108.07195420004427,108.07195420004427,right,0.3792656003497541,108.47237679967657,108.47237679967657,None,,3,001,2025-12-16_15h13.59.524,2025C_exp1_comp,2022.2.4,60.013383072356824,
35.3,315,1,0,0,60,60,33,108.47237679967657,108.47237679967657,108.97286510001868,109.03956159995869,109.08992569986731,109.08992569986731,109.08992569986731,109.08992569986731,109.1397361997515,109.1397361997515,109.1397361997515,109.1397361997515,109.1397361997515,109.1397361997515,109.1397361997515,109.1397361997515,109.1397361997515,left,0.44769190018996596,109.60680599976331,109.60680599976331,None,,3,001,2025-12-16_15h13.59.524,2025C_exp1_comp,2022.2.4,60.013383072356824,
19.6,315,1,0,0,61,61,29,109.60680599976331,109.60680599976331,110.10729249985889,110.174083000049,110.22413019975647,110.22413019975647,110.22413019975647,110.22413019975647,110.27411390002817,110.27411390002817,110.27411390002817,110.27411390002817,110.27411390002817,110.27411390002817,110.27411390002817,110.27411390002817,110.27411390002817,left,0.4254481000825763,110.72440150007606,110.72440150007606,None,,3,001,2025-12-16_15h13.59.524,2025C_exp1_comp,2022.2.4,60.013383072356824,
25.5,315,-1,-1,0,62,62,85,110.72440150007606,110.72440150007606,111.2250671996735,111.29182079993188,111.34215349983424,111.34215349983424,111.34215349983424,111.34215349983424,111.39191349968314,111.39191349968314,111.39191349968314,111.39191349968314,111.39191349968314,111.39191349968314,111.39191349968314,111.39191349968314,111.39191349968314,right,0.4031660002656281,111.82562709972262,111.82562709972262,None,,3,001,2025-12-16_15h13.59.524,2025C_exp1_comp,2022.2.4,60.013383072356824,
29.4,315,-1,-1,0,63,63,86,111.82562709972262,111.82562709972262,112.32622079970315,112.39293649978936,112.44321630010381,112.44321630010381,112.44321630010381,112.44321630010381,112.4929237999022,112.4929237999022,112.4929237999022,112.4929237999022,112.4929237999022,112.4929237999022,112.4929237999022,112.4929237999022,112.4929237999022,right,0.3983800006099045,112.91004369966686,112.91004369966686,None,,3,001,2025-12-16_15h13.59.524,2025C_exp1_comp,2022.2.4,60.013383072356824,
19.6,315,-1,1,0,64,64,47,112.91004369966686,112.91004369966686,113.4105985998176,113.47731269989163,113.52769669983536,113.52769669983536,113.52769669983536,113.52769669983536,113.5774250999093,113.5774250999093,113.5774250999093,113.5774250999093,113.5774250999093,113.5774250999093,113.5774250999093,113.5774250999093,113.5774250999093,right,0.36959270015358925,113.97785629983991,113.97785629983991,None,,3,001,2025-12-16_15h13.59.524,2025C_exp1_comp,2022.2.4,60.013383072356824,
12.1,45,-1,-1,0,65,65,72,113.97785629983991,113.97785629983991,114.47847290011123,114.54514870001003,114.5953011000529,114.5953011000529,114.5953011000529,114.5953011000529,114.64505090005696,114.64505090005696,114.64505090005696,114.64505090005696,114.64505090005696,114.64505090005696,114.64505090005696,114.64505090005696,114.64505090005696,right,0.35721309995278716,115.02854639990255,115.02854639990255,None,,3,001,2025-12-16_15h13.59.524,2025C_exp1_comp,2022.2.4,60.013383072356824,
25.5,45,1,0,0,66,66,22,115.02854639990255,115.02854639990255,115.5295291999355,115.59622550010681,115.64645389979705,115.64645389979705,115.64645389979705,115.64645389979705,115.69607609976083,115.69607609976083,115.69607609976083,115.69607609976083,115.69607609976083,115.69607609976083,115.69607609976083,115.69607609976083,115.69607609976083,left,0.40314640011638403,116.12984429998323,116.12984429998323,None,,3,001,2025-12-16_15h13.59.524,2025C_exp1_comp,2022.2.4,60.013383072356824,
35.3,45,1,0,0,67,67,24,116.12984429998323,116.12984429998323,116.63067859970033,116.69739179965109,116.74756369972602,116.74756369972602,116.74756369972602,116.74756369972602,116.79736789967865,116.79736789967865,116.79736789967865,116.79736789967865,116.79736789967865,116.79736789967865,116.79736789967865,116.79736789967865,116.79736789967865,right,0.41388600040227175,117.23109290003777,117.23109290003777,None,,3,001,2025-12-16_15h13.59.524,2025C_exp1_comp,2022.2.4,60.013383072356824,
22.7,315,-1,-1,0,68,68,84,117.23109290003777,117.23109290003777,117.73158770008013,117.79797599976882,117.84865429997444,117.84865429997444,117.84865429997444,117.84865429997444,117.89837779989466,117.89837779989466,117.89837779989466,117.89837779989466,117.89837779989466,117.89837779989466,117.89837779989466,117.89837779989466,117.89837779989466,right,0.3614603001624346,118.28197810007259,118.28197810007259,None,,3,001,2025-12-16_15h13.59.524,2025C_exp1_comp,2022.2.4,60.013383072356824,
39.2,45,1,1,0,69,69,61,118.28197810007259,118.28197810007259,118.78273109998554,118.84948260011151,118.89982349984348,118.89982349984348,118.89982349984348,118.89982349984348,118.94950299989432,118.94950299989432,118.94950299989432,118.94950299989432,118.94950299989432,118.94950299989432,118.94950299989432,118.94950299989432,118.94950299989432,right,0.5256222998723388,119.50003889994696,119.50003889994696,None,,3,001,2025-12-16_15h13.59.524,2025C_exp1_comp,2022.2.4,60.013383072356824,
19.6,45,-1,-1,0,70,70,74,119.50003889994696,119.50003889994696,120.00051409984007,120.06722579989582,120.11754449969158,120.11754449969158,120.11754449969158,120.11754449969158,120.16731889965013,120.16731889965013,120.16731889965013,120.16731889965013,120.16731889965013,120.16731889965013,120.16731889965013,120.16731889965013,120.16731889965013,right,0.3159506004303694,120.50098049966618,120.50098049966618,None,,3,001,2025-12-16_15h13.59.524,2025C_exp1_comp,2022.2.4,60.013383072356824,
35.3,45,1,1,0,71,71,60,120.50098049966618,120.50098049966618,121.00152199994773,121.06816620007157,121.11828640010208,121.11828640010208,121.11828640010208,121.11828640010208,121.16805659979582,121.16805659979582,121.16805659979582,121.16805659979582,121.16805659979582,121.16805659979582,121.16805659979582,121.16805659979582,121.16805659979582,right,0.41128530027344823,121.60197589965537,121.60197589965537,None,,3,001,2025-12-16_15h13.59.524,2025C_exp1_comp,2022.2.4,60.013383072356824,
42.7,315,1,0,0,72,72,35,121.60197589965537,121.60197589965537,122.10268960008398,122.16941149998456,122.21973189990968,122.21973189990968,122.21973189990968,122.21973189990968,122.26931839995086,122.26931839995086,122.26931839995086,122.26931839995086,122.26931839995086,122.26931839995086,122.26931839995086,122.26931839995086,122.26931839995086,right,0.4378092004917562,122.73657539999112,122.73657539999112,None,,3,001,2025-12-16_15h13.59.524,2025C_exp1_comp,2022.2.4,60.013383072356824,
19.6,315,1,1,0,73,73,65,122.73657539999112,122.73657539999112,123.2368721999228,123.30379580007866,123.3540626000613,123.3540626000613,123.3540626000613,123.3540626000613,123.40391779970378,123.40391779970378,123.40391779970378,123.40391779970378,123.40391779970378,123.40391779970378,123.40391779970378,123.40391779970378,123.40391779970378,left,0.36741810059174895,123.80405779974535,123.80405779974535,None,,3,001,2025-12-16_15h13.59.524,2025C_exp1_comp,2022.2.4,60.013383072356824,
35.3,45,-1,1,0,74,74,42,123.80405779974535,123.80405779974535,124.30483369994909,124.37152369972318,124.4219239000231,124.4219239000231,124.4219239000231,124.4219239000231,124.47151299985126,124.47151299985126,124.47151299985126,124.47151299985126,124.47151299985126,124.47151299985126,124.47151299985126,124.47151299985126,124.47151299985126,left,0.5072143999859691,125.0054369000718,125.0054369000718,None,,3,001,2025-12-16_15h13.59.524,2025C_exp1_comp,2022.2.4,60.013383072356824,
29.4,315,-1,0,0,75,75,14,125.0054369000718,125.0054369000718,125.50629130005836,125.57292639976367,125.62331860000268,125.62331860000268,125.62331860000268,125.62331860000268,125.67298559984192,125.67298559984192,125.67298559984192,125.67298559984192,125.67298559984192,125.67298559984192,125.67298559984192,125.67298559984192,125.67298559984192,right,0.46569820027798414,126.15692589990795,126.15692589990795,None,,3,001,2025-12-16_15h13.59.524,2025C_exp1_comp,2022.2.4,60.013383072356824,
35.3,45,-1,0,0,76,76,6,126.15692589990795,126.15692589990795,126.65738639980555,126.72416569991037,126.7743413997814,126.7743413997814,126.7743413997814,126.7743413997814,126.82425579987466,126.82425579987466,126.82425579987466,126.82425579987466,126.82425579987466,126.82425579987466,126.82425579987466,126.82425579987466,126.82425579987466,right,0.40309250028803945,127.25773900002241,127.25773900002241,None,,3,001,2025-12-16_15h13.59.524,2025C_exp1_comp,2022.2.4,60.013383072356824,
12.1,315,1,1,0,77,77,63,127.25773900002241,127.25773900002241,127.75829269969836,127.82505120011047,127.87503969995305,127.87503969995305,127.87503969995305,127.87503969995305,127.92519180011004,127.92519180011004,127.92519180011004,127.92519180011004,127.92519180011004,127.92519180011004,127.92519180011004,127.92519180011004,127.92519180011004,left,0.3498365003615618,128.2921714000404,128.2921714000404,None,,3,001,2025-12-16_15h13.59.524,2025C_exp1_comp,2022.2.4,60.013383072356824,
35.3,315,-1,1,0,78,78,51,128.2921714000404,128.2921714000404,128.7927095000632,128.85943529987708,128.90968080004677,128.90968080004677,128.90968080004677,128.90968080004677,128.95950269978493,128.95950269978493,128.95950269978493,128.95950269978493,128.95950269978493,128.95950269978493,128.95950269978493,128.95950269978493,128.95950269978493,right,0.4750112001784146,129.45974839990959,129.45974839990959,None,,3,001,2025-12-16_15h13.59.524,2025C_exp1_comp,2022.2.4,60.013383072356824,
22.7,315,-1,0,0,79,79,12,129.45974839990959,129.45974839990959,129.96067899977788,130.0273376996629,130.0775289996527,130.0775289996527,130.0775289996527,130.0775289996527,130.12740979995579,130.12740979995579,130.12740979995579,130.12740979995579,130.12740979995579,130.12740979995579,130.12740979995579,130.12740979995579,130.12740979995579,right,0.3723583002574742,130.52763069979846,130.52763069979846,None,,3,001,2025-12-16_15h13.59.524,2025C_exp1_comp,2022.2.4,60.013383072356824,
19.6,315,-1,-1,0,80,80,83,130.52763069979846,130.52763069979846,131.02820520009845,131.09490679996088,131.14511339971796,131.14511339971796,131.14511339971796,131.14511339971796,131.1950515001081,131.1950515001081,131.1950515001081,131.1950515001081,131.1950515001081,131.1950515001081,131.1950515001081,131.1950515001081,131.1950515001081,right,0.39997960021719337,131.61224419996142,131.61224419996142,None,,3,001,2025-12-16_15h13.59.524,2025C_exp1_comp,2022.2.4,60.013383072356824,
42.7,315,1,1,0,81,81,71,131.61224419996142,131.61224419996142,132.11230959976092,132.1790581997484,132.22936999984086,132.22936999984086,132.22936999984086,132.22936999984086,132.27949409978464,132.27949409978464,132.27949409978464,132.27949409978464,132.27949409978464,132.27949409978464,132.27949409978464,132.27949409978464,132.27949409978464,left,0.33930590003728867,132.64622129965574,132.64622129965574,None,,3,001,2025-12-16_15h13.59.524,2025C_exp1_comp,2022.2.4,60.013383072356824,
42.7,315,-1,0,0,82,82,17,132.64622129965574,132.64622129965574,133.14684919966385,133.2136993999593,133.2637411998585,133.2637411998585,133.2637411998585,133.2637411998585,133.31371699972078,133.31371699972078,133.31371699972078,133.31371699972078,133.31371699972078,133.31371699972078,133.31371699972078,133.31371699972078,133.31371699972078,left,0.42589939991012216,133.76415399974212,133.76415399974212,None,,3,001,2025-12-16_15h13.59.524,2025C_exp1_comp,2022.2.4,60.013383072356824,
22.7,45,1,0,0,83,83,21,133.76415399974212,133.76415399974212,134.26445089979097,134.33116779988632,134.3815275998786,134.3815275998786,134.3815275998786,134.3815275998786,134.43135839980096,134.43135839980096,134.43135839980096,134.43135839980096,134.43135839980096,134.43135839980096,134.43135839980096,134.43135839980096,134.43135839980096,left,0.35541810002177954,134.81536179967225,134.81536179967225,None,,3,001,2025-12-16_15h13.59.524,2025C_exp1_comp,2022.2.4,60.013383072356824,
29.4,45,1,1,0,84,84,59,134.81536179967225,134.81536179967225,135.31563689978793,135.38252829993144,135.43274619989097,135.43274619989097,135.43274619989097,135.43274619989097,135.48265179991722,135.48265179991722,135.48265179991722,135.48265179991722,135.48265179991722,135.48265179991722,135.48265179991722,135.48265179991722,135.48265179991722,left,0.36064580036327243,135.86628629965708,135.86628629965708,None,,3,001,2025-12-16_15h13.59.524,2025C_exp1_comp,2022.2.4,60.013383072356824,
29.4,45,-1,0,0,85,85,5,135.86628629965708,135.86628629965708,136.36676929984242,136.43349469965324,136.4838012000546,136.4838012000546,136.4838012000546,136.4838012000546,136.53360889991745,136.53360889991745,136.53360889991745,136.53360889991745,136.53360889991745,136.53360889991745,136.53360889991745,136.53360889991745,136.53360889991745,right,0.4773182002827525,137.0340430000797,137.0340430000797,None,,3,001,2025-12-16_15h13.59.524,2025C_exp1_comp,2022.2.4,60.013383072356824,
12.1,315,-1,-1,0,86,86,81,137.0340430000797,137.0340430000797,137.53448619972914,137.6013253000565,137.65149429999292,137.65149429999292,137.65149429999292,137.65149429999292,137.70140239968896,137.70140239968896,137.70140239968896,137.70140239968896,137.70140239968896,137.70140239968896,137.70140239968896,137.70140239968896,137.70140239968896,right,0.5021542999893427,138.23546039965004,138.23546039965004,None,,3,001,2025-12-16_15h13.59.524,2025C_exp1_comp,2022.2.4,60.013383072356824,
42.7,315,1,-1,0,87,87,107,138.23546039965004,138.23546039965004,138.73566109966487,138.80239239986986,138.85288879973814,138.85288879973814,138.85288879973814,138.85288879973814,138.9023746997118,138.9023746997118,138.9023746997118,138.9023746997118,138.9023746997118,138.9023746997118,138.9023746997118,138.9023746997118,138.9023746997118,right,0.45296220015734434,139.38635289995,139.38635289995,None,,3,001,2025-12-16_15h13.59.524,2025C_exp1_comp,2022.2.4,60.013383072356824,
42.7,45,-1,-1,0,88,88,80,139.38635289995,139.38635289995,139.8870262997225,139.95354159967974,140.0038962000981,140.0038962000981,140.0038962000981,140.0038962000981,140.0536108999513,140.0536108999513,140.0536108999513,140.0536108999513,140.0536108999513,140.0536108999513,140.0536108999513,140.0536108999513,140.0536108999513,left,0.4052102998830378,140.48762129992247,140.48762129992247,None,,3,001,2025-12-16_15h13.59.524,2025C_exp1_comp,2022.2.4,60.013383072356824,
15.7,315,1,-1,0,89,89,100,140.48762129992247,140.48762129992247,140.98807589989156,141.05476239975542,141.10498839989305,141.10498839989305,141.10498839989305,141.10498839989305,141.15480559971184,141.15480559971184,141.15480559971184,141.15480559971184,141.15480559971184,141.15480559971184,141.15480559971184,141.15480559971184,141.15480559971184,left,0.38382550049573183,141.5552169997245,141.5552169997245,None,,3,001,2025-12-16_15h13.59.524,2025C_exp1_comp,2022.2.4,60.013383072356824,
39.2,45,1,0,0,90,90,25,141.5552169997245,141.5552169997245,142.0556083000265,142.12231179978698,142.17268949979916,142.17268949979916,142.17268949979916,142.17268949979916,142.2224669000134,142.2224669000134,142.2224669000134,142.2224669000134,142.2224669000134,142.2224669000134,142.2224669000134,142.2224669000134,142.2224669000134,right,0.5728550003841519,142.82302739983425,142.82302739983425,None,,3,001,2025-12-16_15h13.59.524,2025C_exp1_comp,2022.2.4,60.013383072356824,
25.5,45,-1,1,0,91,91,40,142.82302739983425,142.82302739983425,143.32355509977788,143.39030349999666,143.44076699996367,143.44076699996367,143.44076699996367,143.44076699996367,143.49061620002612,143.49061620002612,143.49061620002612,143.49061620002612,143.49061620002612,143.49061620002612,143.49061620002612,143.49061620002612,143.49061620002612,left,0.43256140034645796,143.94082729984075,143.94082729984075,None,,3,001,2025-12-16_15h13.59.524,2025C_exp1_comp,2022.2.4,60.013383072356824,
15.7,315,-1,0,0,92,92,10,143.94082729984075,143.94082729984075,144.4413548000157,144.50830779969692,144.55841089971364,144.55841089971364,144.55841089971364,144.55841089971364,144.60840119980276,144.60840119980276,144.60840119980276,144.60840119980276,144.60840119980276,144.60840119980276,144.60840119980276,144.60840119980276,144.60840119980276,right,0.3939948002807796,145.02529519982636,145.02529519982636,None,,3,001,2025-12-16_15h13.59.524,2025C_exp1_comp,2022.2.4,60.013383072356824,
35.3,315,-1,-1,0,93,93,87,145.02529519982636,145.02529519982636,145.52580689964816,145.5926691996865,145.64306939998642,145.64306939998642,145.64306939998642,145.64306939998642,145.6927952999249,145.6927952999249,145.6927952999249,145.6927952999249,145.6927952999249,145.6927952999249,145.6927952999249,145.6927952999249,145.6927952999249,right,0.43034950038418174,146.1430865000002,146.1430865000002,None,,3,001,2025-12-16_15h13.59.524,2025C_exp1_comp,2022.2.4,60.013383072356824,
15.7,315,1,1,0,94,94,64,146.1430865000002,146.1430865000002,146.64359200000763,146.71028829971328,146.76068690000102,146.76068690000102,146.76068690000102,146.76068690000102,146.8104321998544,146.8104321998544,146.8104321998544,146.8104321998544,146.8104321998544,146.8104321998544,146.8104321998544,146.8104321998544,146.8104321998544,left,0.39219410018995404,147.22744200006127,147.22744200006127,None,,3,001,2025-12-16_15h13.59.524,2025C_exp1_comp,2022.2.4,60.013383072356824,
39.2,45,-1,-1,0,95,95,79,147.22744200006127,147.22744200006127,147.72824599966407,147.79493899969384,147.84519909974188,147.84519909974188,147.84519909974188,147.84519909974188,147.89486429980025,147.89486429980025,147.89486429980025,147.89486429980025,147.89486429980025,147.89486429980025,147.89486429980025,147.89486429980025,147.89486429980025,right,0.5955909001640975,148.51220019999892,148.51220019999892,None,,3,001,2025-12-16_15h13.59.524,2025C_exp1_comp,2022.2.4,60.013383072356824,
25.5,45,1,1,0,96,96,58,148.51220019999892,148.51220019999892,149.0125251999125,149.07924429979175,149.12960539991036,149.12960539991036,149.12960539991036,149.12960539991036,149.17933639977127,149.17933639977127,149.17933639977127,149.17933639977127,149.17933639977127,149.17933639977127,149.17933639977127,149.17933639977127,149.17933639977127,left,0.3432562001980841,149.5463996999897,149.5463996999897,None,,3,001,2025-12-16_15h13.59.524,2025C_exp1_comp,2022.2.4,60.013383072356824,
22.7,45,-1,0,0,97,97,3,149.5463996999897,149.5463996999897,150.04691389994696,150.1136078001,150.16394159989432,150.16394159989432,150.16394159989432,150.16394159989432,150.21390429977328,150.21390429977328,150.21390429977328,150.21390429977328,150.21390429977328,150.21390429977328,150.21390429977328,150.21390429977328,150.21390429977328,right,0.43666550051420927,150.6809775000438,150.6809775000438,None,,3,001,2025-12-16_15h13.59.524,2025C_exp1_comp,2022.2.4,60.013383072356824,
29.4,45,1,0,0,98,98,23,150.6809775000438,150.6809775000438,151.18167149974033,151.248383899685,151.29867920000106,151.29867920000106,151.29867920000106,151.29867920000106,151.34851339971647,151.34851339971647,151.34851339971647,151.34851339971647,151.34851339971647,151.34851339971647,151.34851339971647,151.34851339971647,151.34851339971647,right,0.4946659002453089,151.86563170002773,151.86563170002773,None,,3,001,2025-12-16_15h13.59.524,2025C_exp1_comp,2022.2.4,60.013383072356824,
22.7,45,-1,-1,0,99,99,75,151.86563170002773,151.86563170002773,152.36598209990188,152.4325850000605,152.48288809973747,152.48288809973747,152.48288809973747,152.48288809973747,152.53278529969975,152.53278529969975,152.53278529969975,152.53278529969975,152.53278529969975,152.53278529969975,152.53278529969975,152.53278529969975,152.53278529969975,right,0.46965500013902783,153.03319599991664,153.03319599991664,None,,3,001,2025-12-16_15h13.59.524,2025C_exp1_comp,2022.2.4,60.013383072356824,
35.3,315,-1,0,0,100,100,15,153.03319599991664,153.03319599991664,153.53371129976586,153.60082109970972,153.65074109984562,153.65074109984562,153.65074109984562,153.65074109984562,153.70054219989106,153.70054219989106,153.70054219989106,153.70054219989106,153.70054219989106,153.70054219989106,153.70054219989106,153.70054219989106,153.70054219989106,right,0.3737072004005313,154.1009362996556,154.1009362996556,None,,3,001,2025-12-16_15h13.59.524,2025C_exp1_comp,2022.2.4,60.013383072356824,
15.7,45,-1,-1,0,101,101,73,154.1009362996556,154.1009362996556,154.6014565997757,154.66816530004144,154.71860069967806,154.71860069967806,154.71860069967806,154.71860069967806,154.76832180004567,154.76832180004567,154.76832180004567,154.76832180004567,154.76832180004567,154.76832180004567,154.76832180004567,154.76832180004567,154.76832180004567,right,0.3706420003436506,155.169317800086,155.169317800086,None,,3,001,2025-12-16_15h13.59.524,2025C_exp1_comp,2022.2.4,60.013383072356824,
29.4,315,-1,1,0,102,102,50,155.169317800086,155.169317800086,155.66994419973344,155.73590420000255,155.78620689967647,155.78620689967647,155.78620689967647,155.78620689967647,155.83625619998202,155.83625619998202,155.83625619998202,155.83625619998202,155.83625619998202,155.83625619998202,155.83625619998202,155.83625619998202,155.83625619998202,right,0.5020954003557563,156.37005899986252,156.37005899986252,None,,3,001,2025-12-16_15h13.59.524,2025C_exp1_comp,2022.2.4,60.013383072356824,
39.2,315,1,0,0,103,103,34,156.37005899986252,156.37005899986252,156.87047349987552,156.93722559977323,156.98752509988844,156.98752509988844,156.98752509988844,156.98752509988844,157.03746609995142,157.03746609995142,157.03746609995142,157.03746609995142,157.03746609995142,157.03746609995142,157.03746609995142,157.03746609995142,157.03746609995142,left,0.45339660020545125,157.52123480010778,157.52123480010778,None,,3,001,2025-12-16_15h13.59.524,2025C_exp1_comp,2022.2.4,60.013383072356824,
42.7,45,1,1,0,104,104,62,157.52123480010778,157.52123480010778,158.02186329988763,158.0886912997812,158.1386134000495,158.1386134000495,158.1386134000495,158.1386134000495,158.18838350009173,158.18838350009173,158.18838350009173,158.18838350009173,158.18838350009173,158.18838350009173,158.18838350009173,158.18838350009173,158.18838350009173,right,0.5103970002382994,158.7230527997017,158.7230527997017,None,,3,001,2025-12-16_15h13.59.524,2025C_exp1_comp,2022.2.4,60.013383072356824,
25.5,315,-1,1,0,105,105,49,158.7230527997017,158.7230527997017,159.22339629987255,159.28978469967842,159.34020219976082,159.34020219976082,159.34020219976082,159.34020219976082,159.38987440010533,159.38987440010533,159.38987440010533,159.38987440010533,159.38987440010533,159.38987440010533,159.38987440010533,159.38987440010533,159.38987440010533,right,0.36440400034189224,159.77377399988472,159.77377399988472,None,,3,001,2025-12-16_15h13.59.524,2025C_exp1_comp,2022.2.4,60.013383072356824,
15.7,315,-1,-1,0,106,106,82,159.77377399988472,159.77377399988472,160.2740136999637,160.3405188997276,160.39082589978352,160.39082589978352,160.39082589978352,160.39082589978352,160.44084979966283,160.44084979966283,160.44084979966283,160.44084979966283,160.44084979966283,160.44084979966283,160.44084979966283,160.44084979966283,160.44084979966283,right,0.36176020046696067,160.82511000009254,160.82511000009254,None,,3,001,2025-12-16_15h13.59.524,2025C_exp1_comp,2022.2.4,60.013383072356824,
42.7,315,-1,-1,0,107,107,89,160.82511000009254,160.82511000009254,161.32536819996312,161.39237699983642,161.44301669998094,161.44301669998094,161.44301669998094,161.44301669998094,161.49167130002752,161.49167130002752,161.49167130002752,161.49167130002752,161.49167130002752,161.49167130002752,161.49167130002752,161.49167130002752,161.49167130002752,right,0.5190312000922859,162.04331379989162,162.04331379989162,space,3.7195409000851214,3,001,2025-12-16_15h13.59.524,2025C_exp1_comp,2022.2.4,60.013383072356824,
19.6,45,1,0,1,0,108,20,165.7796463998966,165.7796463998966,166.27994929999113,166.34672060003504,166.3971460997127,166.3971460997127,166.3971460997127,166.3971460997127,166.446576599963,166.446576599963,166.446576599963,166.446576599963,166.446576599963,166.446576599963,166.446576599963,166.446576599963,166.446576599963,left,0.3239963003434241,166.79696459975094,166.79696459975094,None,,3,001,2025-12-16_15h13.59.524,2025C_exp1_comp,2022.2.4,60.013383072356824,
19.6,45,-1,1,1,1,109,38,166.79696459975094,166.79696459975094,167.2977996999398,167.3645362998359,167.41458099987358,167.41458099987358,167.41458099987358,167.41458099987358,167.46457679988816,167.46457679988816,167.46457679988816,167.46457679988816,167.46457679988816,167.46457679988816,167.46457679988816,167.46457679988816,167.46457679988816,right,0.37000400060787797,167.86498019983992,167.86498019983992,None,,3,001,2025-12-16_15h13.59.524,2025C_exp1_comp,2022.2.4,60.013383072356824,
39.2,45,-1,0,1,2,110,7,167.86498019983992,167.86498019983992,168.36552889971063,168.43223770009354,168.48251829994842,168.48251829994842,168.48251829994842,168.48251829994842,168.53233959991485,168.53233959991485,168.53233959991485,168.53233959991485,168.53233959991485,168.53233959991485,168.53233959991485,168.53233959991485,168.53233959991485,right,0.6063693002797663,169.16617080010474,169.16617080010474,None,,3,001,2025-12-16_15h13.59.524,2025C_exp1_comp,2022.2.4,60.013383072356824,
42.7,45,-1,1,1,3,111,44,169.16617080010474,169.16617080010474,169.66681279987097,169.73351739998907,169.78352069994435,169.78352069994435,169.78352069994435,169.78352069994435,169.8336308998987,169.8336308998987,169.8336308998987,169.8336308998987,169.8336308998987,169.8336308998987,169.8336308998987,169.8336308998987,169.8336308998987,right,0.28086010040715337,170.13393259979784,170.13393259979784,None,,3,001,2025-12-16_15h13.59.524,2025C_exp1_comp,2022.2.4,60.013383072356824,
22.7,45,-1,0,1,4,112,3,170.13393259979784,170.13393259979784,170.63444439973682,170.70091499993578,170.75132449995726,170.75132449995726,170.75132449995726,170.75132449995726,170.80114470003173,170.80114470003173,170.80114470003173,170.80114470003173,170.80114470003173,170.80114470003173,170.80114470003173,170.80114470003173,170.80114470003173,right,0.41753320023417473,171.25145959993824,171.25145959993824,None,,3,001,2025-12-16_15h13.59.524,2025C_exp1_comp,2022.2.4,60.013383072356824,
42.7,315,1,0,1,5,113,35,171.25145959993824,171.25145959993824,171.752285100054,171.81874749995768,171.86950579984114,171.86950579984114,171.86950579984114,171.86950579984114,171.9193156999536,171.9193156999536,171.9193156999536,171.9193156999536,171.9193156999536,171.9193156999536,171.9193156999536,171.9193156999536,171.9193156999536,right,0.5401050997897983,172.48651820002124,172.48651820002124,None,,3,001,2025-12-16_15h13.59.524,2025C_exp1_comp,2022.2.4,60.013383072356824,
15.7,315,1,0,1,6,114,28,172.48651820002124,172.48651820002124,172.98665839992464,173.0532157998532,173.10366889974102,173.10366889974102,173.10366889974102,173.10366889974102,173.15356949996203,173.15356949996203,173.15356949996203,173.15356949996203,173.15356949996203,173.15356949996203,173.15356949996203,173.15356949996203,173.15356949996203,left,0.3779690000228584,173.5539187998511,173.5539187998511,None,,3,001,2025-12-16_15h13.59.524,2025C_exp1_comp,2022.2.4,60.013383072356824,
29.4,45,-1,0,1,7,115,5,173.5539187998511,173.5539187998511,174.0544643998146,174.1210636999458,174.17156089982018,174.17156089982018,174.17156089982018,174.17156089982018,174.22141820006073,174.22141820006073,174.22141820006073,174.22141820006073,174.22141820006073,174.22141820006073,174.22141820006073,174.22141820006073,174.22141820006073,right,0.4381395000964403,174.68852149974555,174.68852149974555,None,,3,001,2025-12-16_15h13.59.524,2025C_exp1_comp,2022.2.4,60.013383072356824,
35.3,45,-1,1,1,8,116,42,174.68852149974555,174.68852149974555,175.18882009992376,175.25570889981464,175.30599209992215,175.30599209992215,175.30599209992215,175.30599209992215,175.35586109990254,175.35586109990254,175.35586109990254,175.35586109990254,175.35586109990254,175.35586109990254,175.35586109990254,175.35586109990254,175.35586109990254,left,0.7041430999524891,176.08995339972898,176.08995339972898,None,,3,001,2025-12-16_15h13.59.524,2025C_exp1_comp,2022.2.4,60.013383072356824,
15.7,315,1,1,1,9,117,64,176.08995339972898,176.08995339972898,176.59032349986956,176.65710920002311,176.70747220003977,176.70747220003977,176.70747220003977,176.70747220003977,176.75729019986466,176.75729019986466,176.75729019986466,176.75729019986466,176.75729019986466,176.75729019986466,176.75729019986466,176.75729019986466,176.75729019986466,left,0.349806500133127,177.1243141000159,177.1243141000159,None,,3,001,2025-12-16_15h13.59.524,2025C_exp1_comp,2022.2.4,60.013383072356824,
12.1,45,-1,0,1,10,118,0,177.1243141000159,177.1243141000159,177.62510919990018,177.6917121997103,177.74205309990793,177.74205309990793,177.74205309990793,177.74205309990793,177.79176319995895,177.79176319995895,177.79176319995895,177.79176319995895,177.79176319995895,177.79176319995895,177.79176319995895,177.79176319995895,177.79176319995895,right,0.39600880024954677,178.20869009988382,178.20869009988382,None,,3,001,2025-12-16_15h13.59.524,2025C_exp1_comp,2022.2.4,60.013383072356824,
35.3,315,1,-1,1,11,119,105,178.20869009988382,178.20869009988382,178.70919380011037,178.77583879977465,178.82614789996296,178.82614789996296,178.82614789996296,178.82614789996296,178.8760275999084,178.8760275999084,178.8760275999084,178.8760275999084,178.8760275999084,178.8760275999084,178.8760275999084,178.8760275999084,178.8760275999084,right,0.6312328004278243,179.52667129971087,179.52667129971087,None,,3,001,2025-12-16_15h13.59.524,2025C_exp1_comp,2022.2.4,60.013383072356824,
15.7,315,1,-1,1,12,120,100,179.52667129971087,179.52667129971087,180.0271462998353,180.0938864997588,180.14405789971352,180.14405789971352,180.14405789971352,180.14405789971352,180.19403189979494,180.19403189979494,180.19403189979494,180.19403189979494,180.19403189979494,180.19403189979494,180.19403189979494,180.19403189979494,180.19403189979494,left,0.5297460001893342,180.7444178997539,180.7444178997539,None,,3,001,2025-12-16_15h13.59.524,2025C_exp1_comp,2022.2.4,60.013383072356824,
35.3,315,-1,0,1,13,121,15,180.7444178997539,180.7444178997539,181.24505720008165,181.31178359966725,181.36178959999233,181.36178959999233,181.36178959999233,181.36178959999233,181.4120080000721,181.4120080000721,181.4120080000721,181.4120080000721,181.4120080000721,181.4120080000721,181.4120080000721,181.4120080000721,181.4120080000721,right,0.438773600384593,181.87914850004017,181.87914850004017,None,,3,001,2025-12-16_15h13.59.524,2025C_exp1_comp,2022.2.4,60.013383072356824,
35.3,315,-1,-1,1,14,122,87,181.87914850004017,181.87914850004017,182.37968429969624,182.44627529988065,182.49624369991943,182.49624369991943,182.49624369991943,182.49624369991943,182.54631990008056,182.54631990008056,182.54631990008056,182.54631990008056,182.54631990008056,182.54631990008056,182.54631990008056,182.54631990008056,182.54631990008056,right,0.7772606005892158,183.34711569966748,183.34711569966748,None,,3,001,2025-12-16_15h13.59.524,2025C_exp1_comp,2022.2.4,60.013383072356824,
22.7,315,-1,0,1,15,123,12,183.34711569966748,183.34711569966748,183.84780870005488,183.91449749981984,183.96482359990478,183.96482359990478,183.96482359990478,183.96482359990478,184.01462120003998,184.01462120003998,184.01462120003998,184.01462120003998,184.01462120003998,184.01462120003998,184.01462120003998,184.01462120003998,184.01462120003998,right,0.38815660029649734,184.43157579982653,184.43157579982653,None,,3,001,2025-12-16_15h13.59.524,2025C_exp1_comp,2022.2.4,60.013383072356824,
35.3,315,-1,1,1,16,124,51,184.43157579982653,184.43157579982653,184.93206819985062,184.9987862999551,185.04911609971896,185.04911609971896,185.04911609971896,185.04911609971896,185.0989051000215,185.0989051000215,185.0989051000215,185.0989051000215,185.0989051000215,185.0989051000215,185.0989051000215,185.0989051000215,185.0989051000215,right,0.5603657001629472,185.68280349997804,185.68280349997804,None,,3,001,2025-12-16_15h13.59.524,2025C_exp1_comp,2022.2.4,60.013383072356824,
22.7,315,1,0,1,17,125,30,185.68280349997804,185.68280349997804,186.18318439973518,186.25005979975685,186.30034910002723,186.30034910002723,186.30034910002723,186.30034910002723,186.35017400002107,186.35017400002107,186.35017400002107,186.35017400002107,186.35017400002107,186.35017400002107,186.35017400002107,186.35017400002107,186.35017400002107,left,0.36516990046948195,186.73384479992092,186.73384479992092,None,,3,001,2025-12-16_15h13.59.524,2025C_exp1_comp,2022.2.4,60.013383072356824,
42.7,45,1,1,1,18,126,62,186.73384479992092,186.73384479992092,187.23437070008367,187.3011101000011,187.35141099989414,187.35141099989414,187.35141099989414,187.35141099989414,187.40120179997757,187.40120179997757,187.40120179997757,187.40120179997757,187.40120179997757,187.40120179997757,187.40120179997757,187.40120179997757,187.40120179997757,right,0.4331980003044009,187.85165779991075,187.85165779991075,None,,3,001,2025-12-16_15h13.59.524,2025C_exp1_comp,2022.2.4,60.013383072356824,
19.6,315,1,0,1,19,127,29,187.85165779991075,187.85165779991075,188.35215699998662,188.41867769975215,188.46922049997374,188.46922049997374,188.46922049997374,188.46922049997374,188.51890419982374,188.51890419982374,188.51890419982374,188.51890419982374,188.51890419982374,188.51890419982374,188.51890419982374,188.51890419982374,188.51890419982374,right,0.4605237999930978,189.00282600009814,189.00282600009814,None,,3,001,2025-12-16_15h13.59.524,2025C_exp1_comp,2022.2.4,60.013383072356824,
22.7,45,-1,-1,1,20,128,75,189.00282600009814,189.00282600009814,189.5033209999092,189.56989859975874,189.62034839997068,189.62034839997068,189.62034839997068,189.62034839997068,189.6699517997913,189.6699517997913,189.6699517997913,189.6699517997913,189.6699517997913,189.6699517997913,189.6699517997913,189.6699517997913,189.6699517997913,right,0.3732241000980139,190.07053739996627,190.07053739996627,None,,3,001,2025-12-16_15h13.59.524,2025C_exp1_comp,2022.2.4,60.013383072356824,
39.2,45,1,-1,1,21,129,97,190.07053739996627,190.07053739996627,190.57104999991134,190.6377631998621,190.68805289966986,190.68805289966986,190.68805289966986,190.68805289966986,190.73767390009016,190.73767390009016,190.73767390009016,190.73767390009016,190.73767390009016,190.73767390009016,190.73767390009016,190.73767390009016,190.73767390009016,right,0.4089042004197836,191.17166139977053,191.17166139977053,None,,3,001,2025-12-16_15h13.59.524,2025C_exp1_comp,2022.2.4,60.013383072356824,
29.4,45,-1,-1,1,22,130,77,191.17166139977053,191.17166139977053,191.67232690006495,191.73898699972779,191.78896419983357,191.78896419983357,191.78896419983357,191.78896419983357,191.8386742998846,191.8386742998846,191.8386742998846,191.8386742998846,191.8386742998846,191.8386742998846,191.8386742998846,191.8386742998846,191.8386742998846,right,0.40491800010204315,192.27261359989643,192.27261359989643,None,,3,001,2025-12-16_15h13.59.524,2025C_exp1_comp,2022.2.4,60.013383072356824,
35.3,45,1,0,1,23,131,24,192.27261359989643,192.27261359989643,192.7732492997311,192.83983869990334,192.89023309992626,192.89023309992626,192.89023309992626,192.89023309992626,192.94005789980292,192.94005789980292,192.94005789980292,192.94005789980292,192.94005789980292,192.94005789980292,192.94005789980292,192.94005789980292,192.94005789980292,right,0.7672598999924958,193.72420360008255,193.72420360008255,None,,3,001,2025-12-16_15h13.59.524,2025C_exp1_comp,2022.2.4,60.013383072356824,
42.7,45,1,-1,1,24,132,98,193.72420360008255,193.72420360008255,194.22468320000917,194.29125629970804,194.34172319993377,194.34172319993377,194.34172319993377,194.34172319993377,194.39154900005087,194.39154900005087,194.39154900005087,194.39154900005087,194.39154900005087,194.39154900005087,194.39154900005087,194.39154900005087,194.39154900005087,right,0.44344780035316944,194.85852639982477,194.85852639982477,None,,3,001,2025-12-16_15h13.59.524,2025C_exp1_comp,2022.2.4,60.013383072356824,
39.2,45,1,1,1,25,133,61,194.85852639982477,194.85852639982477,195.35916619980708,195.4258572999388,195.47611679974943,195.47611679974943,195.47611679974943,195.47611679974943,195.52605600003153,195.52605600003153,195.52605600003153,195.52605600003153,195.52605600003153,195.52605600003153,195.52605600003153,195.52605600003153,195.52605600003153,left,0.4204982998780906,195.9761629998684,195.9761629998684,None,,3,001,2025-12-16_15h13.59.524,2025C_exp1_comp,2022.2.4,60.013383072356824,
29.4,45,-1,1,1,26,134,41,195.9761629998684,195.9761629998684,196.47696339990944,196.54379019979388,196.5939332996495,196.5939332996495,196.5939332996495,196.5939332996495,196.64373159967363,196.64373159967363,196.64373159967363,196.64373159967363,196.64373159967363,196.64373159967363,196.64373159967363,196.64373159967363,196.64373159967363,right,0.34317690040916204,197.01068060006946,197.01068060006946,None,,3,001,2025-12-16_15h13.59.524,2025C_exp1_comp,2022.2.4,60.013383072356824,
29.4,315,1,0,1,27,135,32,197.01068060006946,197.01068060006946,197.5113276997581,197.57811279967427,197.62825539987534,197.62825539987534,197.62825539987534,197.62825539987534,197.678163100034,197.678163100034,197.678163100034,197.678163100034,197.678163100034,197.678163100034,197.678163100034,197.678163100034,197.678163100034,right,0.45357450004667044,198.16195809980854,198.16195809980854,None,,3,001,2025-12-16_15h13.59.524,2025C_exp1_comp,2022.2.4,60.013383072356824,
12.1,315,-1,0,1,28,136,9,198.16195809980854,198.16195809980854,198.66275579994544,198.7288802000694,198.78054749965668,198.78054749965668,198.78054749965668,198.78054749965668,198.82903159968555,198.82903159968555,198.82903159968555,198.82903159968555,198.82903159968555,198.82903159968555,198.82903159968555,198.82903159968555,198.82903159968555,right,0.41418129997327924,199.26304879970849,199.26304879970849,None,,3,001,2025-12-16_15h13.59.524,2025C_exp1_comp,2022.2.4,60.013383072356824,
19.6,315,1,-1,1,29,137,101,199.26304879970849,199.26304879970849,199.76366049982607,199.83036240004003,199.88084569992498,199.88084569992498,199.88084569992498,199.88084569992498,199.9304637000896,199.9304637000896,199.9304637000896,199.9304637000896,199.9304637000896,199.9304637000896,199.9304637000896,199.9304637000896,199.9304637000896,left,0.6964895999990404,200.64763259980828,200.64763259980828,None,,3,001,2025-12-16_15h13.59.524,2025C_exp1_comp,2022.2.4,60.013383072356824,
15.7,45,1,1,1,30,138,55,200.64763259980828,200.64763259980828,201.14830909995362,201.21500389976427,201.26530479965732,201.26530479965732,201.26530479965732,201.26530479965732,201.31509559974074,201.31509559974074,201.31509559974074,201.31509559974074,201.31509559974074,201.31509559974074,201.31509559974074,201.31509559974074,201.31509559974074,left,0.7204980002716184,202.06585770007223,202.06585770007223,None,,3,001,2025-12-16_15h13.59.524,2025C_exp1_comp,2022.2.4,60.013383072356824,
35.3,315,1,0,1,31,139,33,202.06585770007223,202.06585770007223,202.56641229987144,202.63312459969893,202.6833822997287,202.6833822997287,202.6833822997287,202.6833822997287,202.7332176999189,202.7332176999189,202.7332176999189,202.7332176999189,202.7332176999189,202.7332176999189,202.7332176999189,202.7332176999189,202.7332176999189,right,0.33315160032361746,203.08354379981756,203.08354379981756,None,,3,001,2025-12-16_15h13.59.524,2025C_exp1_comp,2022.2.4,60.013383072356824,
19.6,315,1,1,1,32,140,65,203.08354379981756,203.08354379981756,203.5840934999287,203.65075789997354,203.70106919994578,203.70106919994578,203.70106919994578,203.70106919994578,203.75068569974974,203.75068569974974,203.75068569974974,203.75068569974974,203.75068569974974,203.75068569974974,203.75068569974974,203.75068569974974,203.75068569974974,right,0.556507000233978,204.33452709997073,204.33452709997073,None,,3,001,2025-12-16_15h13.59.524,2025C_exp1_comp,2022.2.4,60.013383072356824,
39.2,45,-1,1,1,33,141,43,204.33452709997073,204.33452709997073,204.8353094998747,204.90204269997776,204.9523688997142,204.9523688997142,204.9523688997142,204.9523688997142,205.00213589984924,205.00213589984924,205.00213589984924,205.00213589984924,205.00213589984924,205.00213589984924,205.00213589984924,205.00213589984924,205.00213589984924,right,0.5216801003552973,205.5524744996801,205.5524744996801,None,,3,001,2025-12-16_15h13.59.524,2025C_exp1_comp,2022.2.4,60.013383072356824,
42.7,315,1,1,1,34,142,71,205.5524744996801,205.5524744996801,206.05320069985464,206.11991789983585,206.1701897000894,206.1701897000894,206.1701897000894,206.1701897000894,206.22000949969515,206.22000949969515,206.22000949969515,206.22000949969515,206.22000949969515,206.22000949969515,206.22000949969515,206.22000949969515,206.22000949969515,right,0.5117048001848161,206.75375639973208,206.75375639973208,None,,3,001,2025-12-16_15h13.59.524,2025C_exp1_comp,2022.2.4,60.013383072356824,
19.6,45,1,1,1,35,143,56,206.75375639973208,206.75375639973208,207.25438689999282,207.32115660002455,207.3714271998033,207.3714271998033,207.3714271998033,207.3714271998033,207.42135429987684,207.42135429987684,207.42135429987684,207.42135429987684,207.42135429987684,207.42135429987684,207.42135429987684,207.42135429987684,207.42135429987684,left,0.4295751000754535,207.8716643000953,207.8716643000953,None,,3,001,2025-12-16_15h13.59.524,2025C_exp1_comp,2022.2.4,60.013383072356824,
15.7,45,-1,1,1,36,144,37,207.8716643000953,207.8716643000953,208.37217679992318,208.4388925996609,208.48916850006208,208.48916850006208,208.48916850006208,208.48916850006208,208.53869260009378,208.53869260009378,208.53869260009378,208.53869260009378,208.53869260009378,208.53869260009378,208.53869260009378,208.53869260009378,208.53869260009378,right,0.4651392004452646,209.0227791001089,209.0227791001089,None,,3,001,2025-12-16_15h13.59.524,2025C_exp1_comp,2022.2.4,60.013383072356824,
12.1,45,1,0,1,37,145,18,209.0227791001089,209.0227791001089,209.52332969987765,209.59016799973324,209.6402662997134,209.6402662997134,209.6402662997134,209.6402662997134,209.69001449970528,209.69001449970528,209.69001449970528,209.69001449970528,209.69001449970528,209.69001449970528,209.69001449970528,209.69001449970528,209.69001449970528,left,0.4406363000161946,210.15733309974894,210.15733309974894,None,,3,001,2025-12-16_15h13.59.524,2025C_exp1_comp,2022.2.4,60.013383072356824,
15.7,45,1,-1,1,38,146,91,210.15733309974894,210.15733309974894,210.6576410997659,210.72450979985297,210.7748389998451,210.7748389998451,210.7748389998451,210.7748389998451,210.824536500033,210.824536500033,210.824536500033,210.824536500033,210.824536500033,210.824536500033,210.824536500033,210.824536500033,210.824536500033,left,0.39525730023160577,211.24159689992666,211.24159689992666,None,,3,001,2025-12-16_15h13.59.524,2025C_exp1_comp,2022.2.4,60.013383072356824,
42.7,315,-1,1,1,39,147,53,211.24159689992666,211.24159689992666,211.74226079974324,211.80884729977697,211.85925729991868,211.85925729991868,211.85925729991868,211.85925729991868,211.90899610007182,211.90899610007182,211.90899610007182,211.90899610007182,211.90899610007182,211.90899610007182,211.90899610007182,211.90899610007182,211.90899610007182,left,0.3980097002349794,212.32615009974688,212.32615009974688,None,,3,001,2025-12-16_15h13.59.524,2025C_exp1_comp,2022.2.4,60.013383072356824,
29.4,315,1,1,1,40,148,68,212.32615009974688,212.32615009974688,212.8268935000524,212.89359219977632,212.9439178998582,212.9439178998582,212.9439178998582,212.9439178998582,212.9935673000291,212.9935673000291,212.9935673000291,212.9935673000291,212.9935673000291,212.9935673000291,212.9935673000291,212.9935673000291,212.9935673000291,left,0.3379077003337443,213.36050829989836,213.36050829989836,None,,3,001,2025-12-16_15h13.59.524,2025C_exp1_comp,2022.2.4,60.013383072356824,
22.7,315,-1,1,1,41,149,48,213.36050829989836,213.36050829989836,213.86100289970636,213.92770779971033,213.97795820003375,213.97795820003375,213.97795820003375,213.97795820003375,214.0278312000446,214.0278312000446,214.0278312000446,214.0278312000446,214.0278312000446,214.0278312000446,214.0278312000446,214.0278312000446,214.0278312000446,right,0.6950675002299249,214.7449627998285,214.7449627998285,None,,3,001,2025-12-16_15h13.59.524,2025C_exp1_comp,2022.2.4,60.013383072356824,
29.4,315,-1,1,1,42,150,50,214.7449627998285,214.7449627998285,215.24574350006878,215.3124667997472,215.36277349991724,215.36277349991724,215.36277349991724,215.36277349991724,215.41252069966868,215.41252069966868,215.41252069966868,215.41252069966868,215.41252069966868,215.41252069966868,215.41252069966868,215.41252069966868,215.41252069966868,right,0.9990575006231666,216.4302443000488,216.4302443000488,None,,3,001,2025-12-16_15h13.59.524,2025C_exp1_comp,2022.2.4,60.013383072356824,
12.1,315,1,0,1,43,151,27,216.4302443000488,216.4302443000488,216.93083210010082,216.99769299989566,217.04803139995784,217.04803139995784,217.04803139995784,217.04803139995784,217.09765949985012,217.09765949985012,217.09765949985012,217.09765949985012,217.09765949985012,217.09765949985012,217.09765949985012,217.09765949985012,217.09765949985012,left,1.0729123000055552,218.19861829979345,218.19861829979345,None,,3,001,2025-12-16_15h13.59.524,2025C_exp1_comp,2022.2.4,60.013383072356824,
42.7,315,-1,0,1,44,152,17,218.19861829979345,218.19861829979345,218.69919750001281,218.7657725000754,218.81610339973122,218.81610339973122,218.81610339973122,218.81610339973122,218.8658574000001,218.8658574000001,218.8658574000001,218.8658574000001,218.8658574000001,218.8658574000001,218.8658574000001,218.8658574000001,218.8658574000001,left,0.4812536002136767,219.3665180997923,219.3665180997923,None,,3,001,2025-12-16_15h13.59.524,2025C_exp1_comp,2022.2.4,60.013383072356824,
15.7,315,-1,1,1,45,153,46,219.3665180997923,219.3665180997923,219.867002800107,219.93375349976122,219.9840583000332,219.9840583000332,219.9840583000332,219.9840583000332,220.03381250007078,220.03381250007078,220.03381250007078,220.03381250007078,220.03381250007078,220.03381250007078,220.03381250007078,220.03381250007078,220.03381250007078,right,0.49752730038017035,220.55078659998253,220.55078659998253,None,,3,001,2025-12-16_15h13.59.524,2025C_exp1_comp,2022.2.4,60.013383072356824,
19.6,45,-1,0,1,46,154,2,220.55078659998253,220.55078659998253,221.05125080002472,221.11811009980738,221.16856099991128,221.16856099991128,221.16856099991128,221.16856099991128,221.21836189972237,221.21836189972237,221.21836189972237,221.21836189972237,221.21836189972237,221.21836189972237,221.21836189972237,221.21836189972237,221.21836189972237,right,0.43202920025214553,221.66880799969658,221.66880799969658,None,,3,001,2025-12-16_15h13.59.524,2025C_exp1_comp,2022.2.4,60.013383072356824,
35.3,45,1,-1,1,47,155,96,221.66880799969658,221.66880799969658,222.16934680007398,222.2360529997386,222.28634409978986,222.28634409978986,222.28634409978986,222.28634409978986,222.33615879993886,222.33615879993886,222.33615879993886,222.33615879993886,222.33615879993886,222.33615879993886,222.33615879993886,222.33615879993886,222.33615879993886,right,0.8995119999162853,223.25371159985662,223.25371159985662,None,,3,001,2025-12-16_15h13.59.524,2025C_exp1_comp,2022.2.4,60.013383072356824,
15.7,45,-1,0,1,48,156,1,223.25371159985662,223.25371159985662,223.75421539973468,223.82094109989703,223.8711609998718,223.8711609998718,223.8711609998718,223.8711609998718,223.92092039994895,223.92092039994895,223.92092039994895,223.92092039994895,223.92092039994895,223.92092039994895,223.92092039994895,223.92092039994895,223.92092039994895,right,0.41796640027314425,224.3713595001027,224.3713595001027,None,,3,001,2025-12-16_15h13.59.524,2025C_exp1_comp,2022.2.4,60.013383072356824,
39.2,315,-1,0,1,49,157,16,224.3713595001027,224.3713595001027,224.8720068000257,224.93862529983744,224.98897609999403,224.98897609999403,224.98897609999403,224.98897609999403,225.038852899801,225.038852899801,225.038852899801,225.038852899801,225.038852899801,225.038852899801,225.038852899801,225.038852899801,225.038852899801,right,0.40418800013139844,225.47340809972957,225.47340809972957,None,,3,001,2025-12-16_15h13.59.524,2025C_exp1_comp,2022.2.4,60.013383072356824,
25.5,45,1,1,1,50,158,58,225.47340809972957,225.47340809972957,225.97318949969485,226.0398351997137,226.0902358996682,226.0902358996682,226.0902358996682,226.0902358996682,226.13991869986057,226.13991869986057,226.13991869986057,226.13991869986057,226.13991869986057,226.13991869986057,226.13991869986057,226.13991869986057,226.13991869986057,right,0.5517112002708018,226.72385399974883,226.72385399974883,None,,3,001,2025-12-16_15h13.59.524,2025C_exp1_comp,2022.2.4,60.013383072356824,
25.5,315,-1,-1,1,51,159,85,226.72385399974883,226.72385399974883,227.22449639998376,227.29105430003256,227.34105290006846,227.34105290006846,227.34105290006846,227.34105290006846,227.39116239966825,227.39116239966825,227.39116239966825,227.39116239966825,227.39116239966825,227.39116239966825,227.39116239966825,227.39116239966825,227.39116239966825,right,0.46038150042295456,227.87488859985024,227.87488859985024,None,,3,001,2025-12-16_15h13.59.524,2025C_exp1_comp,2022.2.4,60.013383072356824,
39.2,315,-1,1,1,52,160,52,227.87488859985024,227.87488859985024,228.3755576000549,228.44223590008914,228.49254229990765,228.49254229990765,228.49254229990765,228.49254229990765,228.54236650001258,228.54236650001258,228.54236650001258,228.54236650001258,228.54236650001258,228.54236650001258,228.54236650001258,228.54236650001258,228.54236650001258,right,0.42057970026507974,228.99271650006995,228.99271650006995,None,,3,001,2025-12-16_15h13.59.524,2025C_exp1_comp,2022.2.4,60.013383072356824,
39.2,315,-1,-1,1,53,161,88,228.99271650006995,228.99271650006995,229.49350599991158,229.5602023000829,229.61052859993652,229.61052859993652,229.61052859993652,229.61052859993652,229.66018649982288,229.66018649982288,229.66018649982288,229.66018649982288,229.66018649982288,229.66018649982288,229.66018649982288,229.66018649982288,229.66018649982288,right,0.7024141005240381,230.39411820005625,230.39411820005625,None,,3,001,2025-12-16_15h13.59.524,2025C_exp1_comp,2022.2.4,60.013383072356824,
15.7,315,-1,0,1,54,162,10,230.39411820005625,230.39411820005625,230.89451309992,230.9613409000449,231.01169710000977,231.01169710000977,231.01169710000977,231.01169710000977,231.06152939982712,231.06152939982712,231.06152939982712,231.06152939982712,231.06152939982712,231.06152939982712,231.06152939982712,231.06152939982712,231.06152939982712,right,0.4374711005948484,231.5283850999549,231.5283850999549,None,,3,001,2025-12-16_15h13.59.524,2025C_exp1_comp,2022.2.4,60.013383072356824,
25.5,315,1,1,1,55,163,67,231.5283850999549,231.5283850999549,232.02922419970855,232.0958942999132,232.14620869979262,232.14620869979262,232.14620869979262,232.14620869979262,232.1958464998752,232.1958464998752,232.1958464998752,232.1958464998752,232.1958464998752,232.1958464998752,232.1958464998752,232.1958464998752,232.1958464998752,right,0.40772780030965805,232.62971739983186,232.62971739983186,None,,3,001,2025-12-16_15h13.59.524,2025C_exp1_comp,2022.2.4,60.013383072356824,
29.4,45,1,1,1,56,164,59,232.62971739983186,232.62971739983186,233.1302776997909,233.1968680000864,233.24728169990703,233.24728169990703,233.24728169990703,233.24728169990703,233.29708839999512,233.29708839999512,233.29708839999512,233.29708839999512,233.29708839999512,233.29708839999512,233.29708839999512,233.29708839999512,233.29708839999512,right,0.4334044004790485,233.74754279991612,233.74754279991612,None,,3,001,2025-12-16_15h13.59.524,2025C_exp1_comp,2022.2.4,60.013383072356824,
22.7,315,-1,-1,1,57,165,84,233.74754279991612,233.74754279991612,234.24809690006077,234.31467079976574,234.3649460999295,234.3649460999295,234.3649460999295,234.3649460999295,234.41476579988375,234.41476579988375,234.41476579988375,234.41476579988375,234.41476579988375,234.41476579988375,234.41476579988375,234.41476579988375,234.41476579988375,right,0.46843550028279424,234.91505069984123,234.91505069984123,None,,3,001,2025-12-16_15h13.59.524,2025C_exp1_comp,2022.2.4,60.013383072356824,
15.7,45,-1,-1,1,58,166,73,234.91505069984123,234.91505069984123,235.41587219992653,235.48272860003635,235.53287069965154,235.53287069965154,235.53287069965154,235.53287069965154,235.58278559986502,235.58278559986502,235.58278559986502,235.58278559986502,235.58278559986502,235.58278559986502,235.58278559986502,235.58278559986502,235.58278559986502,right,0.3250680002383888,235.93303840002045,235.93303840002045,None,,3,001,2025-12-16_15h13.59.524,2025C_exp1_comp,2022.2.4,60.013383072356824,
35.3,315,1,1,1,59,167,69,235.93303840002045,235.93303840002045,236.43357739970088,236.50028869975358,236.55038770008832,236.55038770008832,236.55038770008832,236.55038770008832,236.60028559993953,236.60028559993953,236.60028559993953,236.60028559993953,236.60028559993953,236.60028559993953,236.60028559993953,236.60028559993953,236.60028559993953,right,0.2988817999139428,236.91736819967628,236.91736819967628,None,,3,001,2025-12-16_15h13.59.524,2025C_exp1_comp,2022.2.4,60.013383072356824,
19.6,45,-1,-1,1,60,168,74,236.91736819967628,236.91736819967628,237.41806669998914,237.48478999966756,237.53500590007752,237.53500590007752,237.53500590007752,237.53500590007752,237.58487970009446,237.58487970009446,237.58487970009446,237.58487970009446,237.58487970009446,237.58487970009446,237.58487970009446,237.58487970009446,237.58487970009446,right,0.37773000029847026,237.98529340000823,237.98529340000823,None,,3,001,2025-12-16_15h13.59.524,2025C_exp1_comp,2022.2.4,60.013383072356824,
25.5,45,-1,0,1,61,169,4,237.98529340000823,237.98529340000823,238.48566679982468,238.55219539999962,238.60256769973785,238.60256769973785,238.60256769973785,238.60256769973785,238.6525006000884,238.6525006000884,238.6525006000884,238.6525006000884,238.6525006000884,238.6525006000884,238.6525006000884,238.6525006000884,238.6525006000884,right,0.7340372004546225,239.403202699963,239.403202699963,None,,3,001,2025-12-16_15h13.59.524,2025C_exp1_comp,2022.2.4,60.013383072356824,
22.7,315,1,-1,1,62,170,102,239.403202699963,239.403202699963,239.903794599697,239.97069359989837,240.0206919000484,240.0206919000484,240.0206919000484,240.0206919000484,240.07076349994168,240.07076349994168,240.07076349994168,240.07076349994168,240.07076349994168,240.07076349994168,240.07076349994168,240.07076349994168,240.07076349994168,right,0.6361151998862624,240.73753829998896,240.73753829998896,None,,3,001,2025-12-16_15h13.59.524,2025C_exp1_comp,2022.2.4,60.013383072356824,
29.4,315,1,-1,1,63,171,104,240.73753829998896,240.73753829998896,241.23842289997265,241.30509229982272,241.35532679967582,241.35532679967582,241.35532679967582,241.35532679967582,241.4052379000932,241.4052379000932,241.4052379000932,241.4052379000932,241.4052379000932,241.4052379000932,241.4052379000932,241.4052379000932,241.4052379000932,right,0.4610743001103401,241.88866909965873,241.88866909965873,None,,3,001,2025-12-16_15h13.59.524,2025C_exp1_comp,2022.2.4,60.013383072356824,
29.4,315,-1,-1,1,64,172,86,241.88866909965873,241.88866909965873,242.38962949998677,242.45617350004613,242.5066307997331,242.5066307997331,242.5066307997331,242.5066307997331,242.55630829976872,242.55630829976872,242.55630829976872,242.55630829976872,242.55630829976872,242.55630829976872,242.55630829976872,242.55630829976872,242.55630829976872,right,0.4781657001003623,243.05682910000905,243.05682910000905,None,,3,001,2025-12-16_15h13.59.524,2025C_exp1_comp,2022.2.4,60.013383072356824,
35.3,45,-1,-1,1,65,173,78,243.05682910000905,243.05682910000905,243.5572907999158,243.623815999832,243.6741074998863,243.6741074998863,243.6741074998863,243.6741074998863,243.72399909980595,243.72399909980595,243.72399909980595,243.72399909980595,243.72399909980595,243.72399909980595,243.72399909980595,243.72399909980595,243.72399909980595,left,0.40752420015633106,244.1576690999791,244.1576690999791,None,,3,001,2025-12-16_15h13.59.524,2025C_exp1_comp,2022.2.4,60.013383072356824,
29.4,45,1,-1,1,66,174,95,244.1576690999791,244.1576690999791,244.65830329991877,244.72485090000555,244.77518890006468,244.77518890006468,244.77518890006468,244.77518890006468,244.82508189976215,244.82508189976215,244.82508189976215,244.82508189976215,244.82508189976215,244.82508189976215,244.82508189976215,244.82508189976215,244.82508189976215,left,0.530661600176245,245.37568789999932,245.37568789999932,None,,3,001,2025-12-16_15h13.59.524,2025C_exp1_comp,2022.2.4,60.013383072356824,
12.1,315,1,-1,1,67,175,99,245.37568789999932,245.37568789999932,245.87634920002893,245.94305610004812,245.9930875999853,245.9930875999853,245.9930875999853,245.9930875999853,246.0429960996844,246.0429960996844,246.0429960996844,246.0429960996844,246.0429960996844,246.0429960996844,246.0429960996844,246.0429960996844,246.0429960996844,left,0.4566453001461923,246.52712729992345,246.52712729992345,None,,3,001,2025-12-16_15h13.59.524,2025C_exp1_comp,2022.2.4,60.013383072356824,
12.1,45,1,-1,1,68,176,90,246.52712729992345,246.52712729992345,247.027626699768,247.09429309982806,247.1446131998673,247.1446131998673,247.1446131998673,247.1446131998673,247.19434650009498,247.19434650009498,247.19434650009498,247.19434650009498,247.19434650009498,247.19434650009498,247.19434650009498,247.19434650009498,247.19434650009498,left,0.4489033999852836,247.66140350000933,247.66140350000933,None,,3,001,2025-12-16_15h13.59.524,2025C_exp1_comp,2022.2.4,60.013383072356824,
39.2,45,1,0,1,69,177,25,247.66140350000933,247.66140350000933,248.16196909965947,248.22866179980338,248.27888070000336,248.27888070000336,248.27888070000336,248.27888070000336,248.3287820997648,248.3287820997648,248.3287820997648,248.3287820997648,248.3287820997648,248.3287820997648,248.3287820997648,248.3287820997648,248.3287820997648,right,0.5222221999429166,248.87920309975743,248.87920309975743,None,,3,001,2025-12-16_15h13.59.524,2025C_exp1_comp,2022.2.4,60.013383072356824,
29.4,45,1,0,1,70,178,23,248.87920309975743,248.87920309975743,249.37984710000455,249.44652209989727,249.49684630008414,249.49684630008414,249.49684630008414,249.49684630008414,249.54663900006562,249.54663900006562,249.54663900006562,249.54663900006562,249.54663900006562,249.54663900006562,249.54663900006562,249.54663900006562,249.54663900006562,left,0.624530200380832,250.19705769978464,250.19705769978464,None,,3,001,2025-12-16_15h13.59.524,2025C_exp1_comp,2022.2.4,60.013383072356824,
39.2,315,1,-1,1,71,179,106,250.19705769978464,250.19705769978464,250.6979832998477,250.764461199753,250.8145425999537,250.8145425999537,250.8145425999537,250.8145425999537,250.86463299999014,250.86463299999014,250.86463299999014,250.86463299999014,250.86463299999014,250.86463299999014,250.86463299999014,250.86463299999014,250.86463299999014,right,0.38669219985604286,251.28152719978243,251.28152719978243,None,,3,001,2025-12-16_15h13.59.524,2025C_exp1_comp,2022.2.4,60.013383072356824,
25.5,315,-1,0,1,72,180,13,251.28152719978243,251.28152719978243,251.78223509993404,251.84887339966372,251.89926610002294,251.89926610002294,251.89926610002294,251.89926610002294,251.94910899968818,251.94910899968818,251.94910899968818,251.94910899968818,251.94910899968818,251.94910899968818,251.94910899968818,251.94910899968818,251.94910899968818,right,0.5268574003130198,252.49962339969352,252.49962339969352,None,,3,001,2025-12-16_15h13.59.524,2025C_exp1_comp,2022.2.4,60.013383072356824,
15.7,315,-1,-1,1,73,181,82,252.49962339969352,252.49962339969352,253.0001015998423,253.06684579979628,253.11713039968163,253.11713039968163,253.11713039968163,253.11713039968163,253.16697099991143,253.16697099991143,253.16697099991143,253.16697099991143,253.16697099991143,253.16697099991143,253.16697099991143,253.16697099991143,253.16697099991143,right,0.4276938000693917,253.61728570004925,253.61728570004925,None,,3,001,2025-12-16_15h13.59.524,2025C_exp1_comp,2022.2.4,60.013383072356824,
19.6,45,1,-1,1,74,182,92,253.61728570004925,253.61728570004925,254.1179110999219,254.18462609965354,254.2349688000977,254.2349688000977,254.2349688000977,254.2349688000977,254.28482559975237,254.28482559975237,254.28482559975237,254.28482559975237,254.28482559975237,254.28482559975237,254.28482559975237,254.28482559975237,254.28482559975237,left,0.510729799978435,254.81889119977131,254.81889119977131,None,,3,001,2025-12-16_15h13.59.524,2025C_exp1_comp,2022.2.4,60.013383072356824,
29.4,315,-1,0,1,75,183,14,254.81889119977131,254.81889119977131,255.318904499989,255.38597279973328,255.43622829997912,255.43622829997912,255.43622829997912,255.43622829997912,255.48605370009318,255.48605370009318,255.48605370009318,255.48605370009318,255.48605370009318,255.48605370009318,255.48605370009318,255.48605370009318,255.48605370009318,right,0.660295800305903,256.1698611997999,256.1698611997999,None,,3,001,2025-12-16_15h13.59.524,2025C_exp1_comp,2022.2.4,60.013383072356824,
19.6,315,-1,-1,1,76,184,83,256.1698611997999,256.1698611997999,256.67046510009095,256.737171899993,256.78744710003957,256.78744710003957,256.78744710003957,256.78744710003957,256.8372542997822,256.8372542997822,256.8372542997822,256.8372542997822,256.8372542997822,256.8372542997822,256.8372542997822,256.8372542997822,256.8372542997822,right,0.5018233000300825,257.3708465998061,257.3708465998061,None,,3,001,2025-12-16_15h13.59.524,2025C_exp1_comp,2022.2.4,60.013383072356824,
12.1,315,-1,-1,1,77,185,81,257.3708465998061,257.3708465998061,257.87156690005213,257.9383445996791,257.9886288996786,257.9886288996786,257.9886288996786,257.9886288996786,258.0385471000336,258.0385471000336,258.0385471000336,258.0385471000336,258.0385471000336,258.0385471000336,258.0385471000336,258.0385471000336,258.0385471000336,right,0.5004828004166484,258.5720297996886,258.5720297996886,None,,3,001,2025-12-16_15h13.59.524,2025C_exp1_comp,2022.2.4,60.013383072356824,
25.5,45,-1,1,1,78,186,40,258.5720297996886,258.5720297996886,259.0728577999398,259.1395522998646,259.1895850999281,259.1895850999281,259.1895850999281,259.1895850999281,259.2393737998791,259.2393737998791,259.2393737998791,259.2393737998791,259.2393737998791,259.2393737998791,259.2393737998791,259.2393737998791,259.2393737998791,right,0.5480114002712071,259.8069103998132,259.8069103998132,None,,3,001,2025-12-16_15h13.59.524,2025C_exp1_comp,2022.2.4,60.013383072356824,
25.5,45,1,0,1,79,187,22,259.8069103998132,259.8069103998132,260.30748450011015,260.3740599998273,260.4245162997395,260.4245162997395,260.4245162997395,260.4245162997395,260.4742751000449,260.4742751000449,260.4742751000449,260.4742751000449,260.4742751000449,260.4742751000449,260.4742751000449,260.4742751000449,260.4742751000449,left,0.5931262001395226,261.0915517997928,261.0915517997928,None,,3,001,2025-12-16_15h13.59.524,2025C_exp1_comp,2022.2.4,60.013383072356824,
22.7,315,1,1,1,80,188,66,261.0915517997928,261.0915517997928,261.59214239986613,261.65886699967086,261.70907909981906,261.70907909981906,261.70907909981906,261.70907909981906,261.7589815999381,261.7589815999381,261.7589815999381,261.7589815999381,261.7589815999381,261.7589815999381,261.7589815999381,261.7589815999381,261.7589815999381,left,0.4998034001328051,262.2760898997076,262.2760898997076,None,,3,001,2025-12-16_15h13.59.524,2025C_exp1_comp,2022.2.4,60.013383072356824,
22.7,45,1,-1,1,81,189,93,262.2760898997076,262.2760898997076,262.77655499987304,262.8432112997398,262.8936159997247,262.8936159997247,262.8936159997247,262.8936159997247,262.9435510998592,262.9435510998592,262.9435510998592,262.9435510998592,262.9435510998592,262.9435510998592,262.9435510998592,262.9435510998592,262.9435510998592,left,0.49169430043548346,263.46062369970605,263.46062369970605,None,,3,001,2025-12-16_15h13.59.524,2025C_exp1_comp,2022.2.4,60.013383072356824,
12.1,45,-1,1,1,82,190,36,263.46062369970605,263.46062369970605,263.9611376998946,264.0279190996662,264.07815880002454,264.07815880002454,264.07815880002454,264.07815880002454,264.12791289994493,264.12791289994493,264.12791289994493,264.12791289994493,264.12791289994493,264.12791289994493,264.12791289994493,264.12791289994493,264.12791289994493,right,0.47547490056604147,264.62842869991437,264.62842869991437,None,,3,001,2025-12-16_15h13.59.524,2025C_exp1_comp,2022.2.4,60.013383072356824,
25.5,315,-1,1,1,83,191,49,264.62842869991437,264.62842869991437,265.12910579983145,265.1956662000157,265.246034800075,265.246034800075,265.246034800075,265.246034800075,265.29570929985493,265.29570929985493,265.29570929985493,265.29570929985493,265.29570929985493,265.29570929985493,265.29570929985493,265.29570929985493,265.29570929985493,right,0.5548449005000293,265.8795381998643,265.8795381998643,None,,3,001,2025-12-16_15h13.59.524,2025C_exp1_comp,2022.2.4,60.013383072356824,
42.7,45,1,0,1,84,192,26,265.8795381998643,265.8795381998643,266.3802147000097,266.4467857996933,266.4972120998427,266.4972120998427,266.4972120998427,266.4972120998427,266.5469987997785,266.5469987997785,266.5469987997785,266.5469987997785,266.5469987997785,266.5469987997785,266.5469987997785,266.5469987997785,266.5469987997785,left,0.6887559001334012,267.2642862997018,267.2642862997018,None,,3,001,2025-12-16_15h13.59.524,2025C_exp1_comp,2022.2.4,60.013383072356824,
12.1,315,1,1,1,85,193,63,267.2642862997018,267.2642862997018,267.7648479999043,267.83146419981495,267.88174449978396,267.88174449978396,267.88174449978396,267.88174449978396,267.9315486000851,267.9315486000851,267.9315486000851,267.9315486000851,267.9315486000851,267.9315486000851,267.9315486000851,267.9315486000851,267.9315486000851,left,0.5991281005553901,268.5487473998219,268.5487473998219,None,,3,001,2025-12-16_15h13.59.524,2025C_exp1_comp,2022.2.4,60.013383072356824,
12.1,315,-1,1,1,86,194,45,268.5487473998219,268.5487473998219,269.04927189974114,269.1163898999803,269.16655199974775,269.16655199974775,269.16655199974775,269.16655199974775,269.2163664996624,269.2163664996624,269.2163664996624,269.2163664996624,269.2163664996624,269.2163664996624,269.2163664996624,269.2163664996624,269.2163664996624,right,0.4106462001800537,269.6500479998067,269.6500479998067,None,,3,001,2025-12-16_15h13.59.524,2025C_exp1_comp,2022.2.4,60.013383072356824,
35.3,45,1,1,1,87,195,60,269.6500479998067,269.6500479998067,270.15060159983113,270.21719589969143,270.2677611000836,270.2677611000836,270.2677611000836,270.2677611000836,270.3175432998687,270.3175432998687,270.3175432998687,270.3175432998687,270.3175432998687,270.3175432998687,270.3175432998687,270.3175432998687,270.3175432998687,left,0.9815821005031466,271.31858169985935,271.31858169985935,None,,3,001,2025-12-16_15h13.59.524,2025C_exp1_comp,2022.2.4,60.013383072356824,
12.1,45,-1,-1,1,88,196,72,271.31858169985935,271.31858169985935,271.81892859982327,271.8856397997588,271.93590719997883,271.93590719997883,271.93590719997883,271.93590719997883,271.9857608997263,271.9857608997263,271.9857608997263,271.9857608997263,271.9857608997263,271.9857608997263,271.9857608997263,271.9857608997263,271.9857608997263,right,0.5618874002248049,272.5696880999021,272.5696880999021,None,,3,001,2025-12-16_15h13.59.524,2025C_exp1_comp,2022.2.4,60.013383072356824,
25.5,45,-1,-1,1,89,197,76,272.5696880999021,272.5696880999021,273.07044709986076,273.1370437000878,273.1874792999588,273.1874792999588,273.1874792999588,273.1874792999588,273.236779499799,273.236779499799,273.236779499799,273.236779499799,273.236779499799,273.236779499799,273.236779499799,273.236779499799,273.236779499799,right,1.269933800213039,274.5383653999306,274.5383653999306,None,,3,001,2025-12-16_15h13.59.524,2025C_exp1_comp,2022.2.4,60.013383072356824,
15.7,45,1,0,1,90,198,19,274.5383653999306,274.5383653999306,275.03884629998356,275.1055656997487,275.1556998998858,275.1556998998858,275.1556998998858,275.1556998998858,275.2056510997936,275.2056510997936,275.2056510997936,275.2056510997936,275.2056510997936,275.2056510997936,275.2056510997936,275.2056510997936,275.2056510997936,left,0.5088818003423512,275.7392537998967,275.7392537998967,None,,3,001,2025-12-16_15h13.59.524,2025C_exp1_comp,2022.2.4,60.013383072356824,
25.5,45,1,-1,1,91,199,94,275.7392537998967,275.7392537998967,276.2400314998813,276.3067390997894,276.35710430005565,276.35710430005565,276.35710430005565,276.35710430005565,276.40682270005345,276.40682270005345,276.40682270005345,276.40682270005345,276.40682270005345,276.40682270005345,276.40682270005345,276.40682270005345,276.40682270005345,left,0.5564915002323687,276.99064369965345,276.99064369965345,None,,3,001,2025-12-16_15h13.59.524,2025C_exp1_comp,2022.2.4,60.013383072356824,
42.7,315,1,-1,1,92,200,107,276.99064369965345,276.99064369965345,277.4914036998525,277.5580966998823,277.60832110000774,277.60832110000774,277.60832110000774,277.60832110000774,277.6582392998971,277.6582392998971,277.6582392998971,277.6582392998971,277.6582392998971,277.6582392998971,277.6582392998971,277.6582392998971,277.6582392998971,right,0.5772080002352595,278.2585819000378,278.2585819000378,None,,3,001,2025-12-16_15h13.59.524,2025C_exp1_comp,2022.2.4,60.013383072356824,
42.7,315,-1,-1,1,93,201,89,278.2585819000378,278.2585819000378,278.7592213000171,278.8259526998736,278.8762544998899,278.8762544998899,278.8762544998899,278.8762544998899,278.92603479977697,278.92603479977697,278.92603479977697,278.92603479977697,278.92603479977697,278.92603479977697,278.92603479977697,278.92603479977697,278.92603479977697,left,0.5890067000873387,279.54301329981536,279.54301329981536,None,,3,001,2025-12-16_15h13.59.524,2025C_exp1_comp,2022.2.4,60.013383072356824,
25.5,315,1,0,1,94,202,31,279.54301329981536,279.54301329981536,280.0438032997772,280.1105229998939,280.1608270998113,280.1608270998113,280.1608270998113,280.1608270998113,280.2106328997761,280.2106328997761,280.2106328997761,280.2106328997761,280.2106328997761,280.2106328997761,280.2106328997761,280.2106328997761,280.2106328997761,right,0.6725408001802862,280.91120409965515,280.91120409965515,None,,3,001,2025-12-16_15h13.59.524,2025C_exp1_comp,2022.2.4,60.013383072356824,
42.7,45,-1,0,1,95,203,8,280.91120409965515,280.91120409965515,281.4119323999621,281.4785690996796,281.52888679970056,281.52888679970056,281.52888679970056,281.52888679970056,281.5786586999893,281.5786586999893,281.5786586999893,281.5786586999893,281.5786586999893,281.5786586999893,281.5786586999893,281.5786586999893,281.5786586999893,left,0.7049151002429426,282.3129774997942,282.3129774997942,None,,3,001,2025-12-16_15h13.59.524,2025C_exp1_comp,2022.2.4,60.013383072356824,
25.5,315,1,-1,1,96,204,103,282.3129774997942,282.3129774997942,282.81343750003725,282.88028529984877,282.93047019978985,282.93047019978985,282.93047019978985,282.93047019978985,282.9803377999924,282.9803377999924,282.9803377999924,282.9803377999924,282.9803377999924,282.9803377999924,282.9803377999924,282.9803377999924,282.9803377999924,left,0.47085960023105145,283.48057030001655,283.48057030001655,None,,3,001,2025-12-16_15h13.59.524,2025C_exp1_comp,2022.2.4,60.013383072356824,
19.6,315,-1,1,1,97,205,47,283.48057030001655,283.48057030001655,283.9812492998317,284.0480777998455,284.0982579998672,284.0982579998672,284.0982579998672,284.0982579998672,284.14818440005183,284.14818440005183,284.14818440005183,284.14818440005183,284.14818440005183,284.14818440005183,284.14818440005183,284.14818440005183,284.14818440005183,right,0.559455799870193,284.7317286999896,284.7317286999896,None,,3,001,2025-12-16_15h13.59.524,2025C_exp1_comp,2022.2.4,60.013383072356824,
