contrast,ori,lefttarget,righttarget,postcue,precue,trials.thisRepN,trials.thisTrialN,trials.thisN,trials.thisIndex,fix1.started,fix2.started,precue_2.started,precue_2.stopped,left_grating.started,right_grating.started,noise_left.started,noise_right.started,fix1.stopped,fix2.stopped,left_grating.stopped,right_grating.stopped,noise_left.stopped,noise_right.stopped,key_resp.started,postcue_2.started,fix1_2.started,fix2_2.started,key_resp.keys,key_resp.rt,key_resp_2.started,break_text_2.started,key_resp_2.keys,key_resp_2.rt,participant,session,date,expName,psychopyVersion,frameRate,
25.5,315,1,1,-1,1,0,0,0,355,74.99703019997105,74.99703019997105,75.47046090010554,75.53718130011111,75.59788680030033,75.59788680030033,75.59788680030033,75.59788680030033,75.63724370021373,75.63724370021373,75.63724370021373,75.63724370021373,75.63724370021373,75.63724370021373,75.65400380035862,75.65400380035862,75.65400380035862,75.65400380035862,num_3,1.2057606000453234,76.88867160025984,76.88867160025984,None,,3,001,2025-12-16_15h50.21.137,2025C_exp1_detect,2022.2.4,59.91938441835088,
22.7,315,0,0,1,-1,0,1,1,228,76.88867160025984,76.88867160025984,77.38905990030617,77.45573940034956,77.5061101000756,77.5061101000756,77.5061101000756,77.5061101000756,77.556065000128,77.556065000128,77.556065000128,77.556065000128,77.556065000128,77.556065000128,77.556065000128,77.556065000128,77.556065000128,77.556065000128,num_1,1.0638980995863676,78.64038800029084,78.64038800029084,None,,3,001,2025-12-16_15h50.21.137,2025C_exp1_detect,2022.2.4,59.91938441835088,
35.3,315,1,1,-1,0,0,2,2,69,78.64038800029084,78.64038800029084,79.14073450025171,79.20747849997133,79.2579161003232,79.2579161003232,79.2579161003232,79.2579161003232,79.3076464002952,79.3076464002952,79.3076464002952,79.3076464002952,79.3076464002952,79.3076464002952,79.3076464002952,79.3076464002952,79.3076464002952,79.3076464002952,num_3,0.9604505999013782,80.29201210010797,80.29201210010797,None,,3,001,2025-12-16_15h50.21.137,2025C_exp1_detect,2022.2.4,59.91938441835088,
25.5,45,0,0,-1,-1,0,3,3,148,80.29201210010797,80.29201210010797,80.79247880028561,80.85915119992569,80.90958520025015,80.90958520025015,80.90958520025015,80.90958520025015,80.9592965003103,80.9592965003103,80.9592965003103,80.9592965003103,80.9592965003103,80.9592965003103,80.9592965003103,80.9592965003103,80.9592965003103,80.9592965003103,num_1,6.572716299910098,87.54941390035674,87.54941390035674,None,,3,001,2025-12-16_15h50.21.137,2025C_exp1_detect,2022.2.4,59.91938441835088,
12.1,45,0,1,-1,0,0,4,4,36,87.54941390035674,87.54941390035674,88.04975870018825,88.11646040016785,88.16677850019187,88.16677850019187,88.16677850019187,88.16677850019187,88.21659160032868,88.21659160032868,88.21659160032868,88.21659160032868,88.21659160032868,88.21659160032868,88.21659160032868,88.21659160032868,88.21659160032868,88.21659160032868,num_3,1.819915299769491,90.06844810023904,90.06844810023904,None,,3,001,2025-12-16_15h50.21.137,2025C_exp1_detect,2022.2.4,59.91938441835088,
39.2,45,1,0,-1,-1,0,5,5,169,90.06844810023904,90.06844810023904,90.56887840013951,90.63558340026066,90.68593939999118,90.68593939999118,90.68593939999118,90.68593939999118,90.73577990010381,90.73577990010381,90.73577990010381,90.73577990010381,90.73577990010381,90.73577990010381,90.73577990010381,90.73577990010381,90.73577990010381,90.73577990010381,num_1,1.5976386000402272,92.35414150031283,92.35414150031283,None,,3,001,2025-12-16_15h50.21.137,2025C_exp1_detect,2022.2.4,59.91938441835088,
25.5,45,1,1,-1,1,0,6,6,346,92.35414150031283,92.35414150031283,92.85469300020486,92.92164529999718,92.97197860013694,92.97197860013694,92.97197860013694,92.97197860013694,93.0216565001756,93.0216565001756,93.0216565001756,93.0216565001756,93.0216565001756,93.0216565001756,93.0216565001756,93.0216565001756,93.0216565001756,93.0216565001756,num_1,1.8394253994338214,94.88988990010694,94.88988990010694,None,,3,001,2025-12-16_15h50.21.137,2025C_exp1_detect,2022.2.4,59.91938441835088,
12.1,45,0,0,-1,-1,0,7,7,144,94.88988990010694,94.88988990010694,95.39055470004678,95.45715299993753,95.50788399996236,95.50788399996236,95.50788399996236,95.50788399996236,95.55756539991125,95.55756539991125,95.55756539991125,95.55756539991125,95.55756539991125,95.55756539991125,95.55756539991125,95.55756539991125,95.55756539991125,95.55756539991125,num_3,1.0235100998543203,96.60827430011705,96.60827430011705,None,,3,001,2025-12-16_15h50.21.137,2025C_exp1_detect,2022.2.4,59.91938441835088,
19.6,45,0,1,1,-1,0,8,8,254,96.60827430011705,96.60827430011705,97.10893819993362,97.17569570010528,97.22588900011033,97.22588900011033,97.22588900011033,97.22588900011033,97.2759961001575,97.2759961001575,97.2759961001575,97.2759961001575,97.2759961001575,97.2759961001575,97.2759961001575,97.2759961001575,97.2759961001575,97.2759961001575,num_3,2.9769488996826112,100.27858170028776,100.27858170028776,None,,3,001,2025-12-16_15h50.21.137,2025C_exp1_detect,2022.2.4,59.91938441835088,
12.1,45,1,1,1,-1,0,9,9,270,100.27858170028776,100.27858170028776,100.7793719000183,100.84613100020215,100.89640710037202,100.89640710037202,100.89640710037202,100.89640710037202,100.94603059999645,100.94603059999645,100.94603059999645,100.94603059999645,100.94603059999645,100.94603059999645,100.94603059999645,100.94603059999645,100.94603059999645,100.94603059999645,num_3,1.7062538997270167,102.68128219991922,102.68128219991922,None,,3,001,2025-12-16_15h50.21.137,2025C_exp1_detect,2022.2.4,59.91938441835088,
39.2,45,1,1,1,0,0,10,10,133,102.68128219991922,102.68128219991922,103.18183830007911,103.24857020005584,103.29888470005244,103.29888470005244,103.29888470005244,103.29888470005244,103.34862169995904,103.34862169995904,103.34862169995904,103.34862169995904,103.34862169995904,103.34862169995904,103.34862169995904,103.34862169995904,103.34862169995904,103.34862169995904,num_3,1.3522856999188662,104.73330480000004,104.73330480000004,None,,3,001,2025-12-16_15h50.21.137,2025C_exp1_detect,2022.2.4,59.91938441835088,
39.2,45,0,0,1,0,0,11,11,79,104.73330480000004,104.73330480000004,105.23385650012642,105.30056930007413,105.3508677999489,105.3508677999489,105.3508677999489,105.3508677999489,105.40074230032042,105.40074230032042,105.40074230032042,105.40074230032042,105.40074230032042,105.40074230032042,105.40074230032042,105.40074230032042,105.40074230032042,105.40074230032042,num_3,1.12408799957484,106.55179980024695,106.55179980024695,None,,3,001,2025-12-16_15h50.21.137,2025C_exp1_detect,2022.2.4,59.91938441835088,
22.7,315,1,0,-1,-1,0,12,12,174,106.55179980024695,106.55179980024695,107.05238100001588,107.11897940002382,107.16910900035873,107.16910900035873,107.16910900035873,107.16910900035873,107.21904080035165,107.21904080035165,107.21904080035165,107.21904080035165,107.21904080035165,107.21904080035165,107.21904080035165,107.21904080035165,107.21904080035165,107.21904080035165,num_1,1.5929504996165633,108.83715080004185,108.83715080004185,None,,3,001,2025-12-16_15h50.21.137,2025C_exp1_detect,2022.2.4,59.91938441835088,
19.6,45,1,1,1,-1,0,13,13,272,108.83715080004185,108.83715080004185,109.33792790025473,109.40472610015422,109.45505509991199,109.45505509991199,109.45505509991199,109.45505509991199,109.50476940022781,109.50476940022781,109.50476940022781,109.50476940022781,109.50476940022781,109.50476940022781,109.50476940022781,109.50476940022781,109.50476940022781,109.50476940022781,num_3,2.691305299755186,112.22393750026822,112.22393750026822,None,,3,001,2025-12-16_15h50.21.137,2025C_exp1_detect,2022.2.4,59.91938441835088,
12.1,45,0,0,-1,1,0,14,14,288,112.22393750026822,112.22393750026822,112.72481990000233,112.79137660004199,112.84183200029656,112.84183200029656,112.84183200029656,112.84183200029656,112.89161350019276,112.89161350019276,112.89161350019276,112.89161350019276,112.89161350019276,112.89161350019276,112.89161350019276,112.89161350019276,112.89161350019276,112.89161350019276,num_3,1.2969003999605775,114.20920650009066,114.20920650009066,None,,3,001,2025-12-16_15h50.21.137,2025C_exp1_detect,2022.2.4,59.91938441835088,
29.4,45,1,0,-1,0,0,15,15,23,114.20920650009066,114.20920650009066,114.70989189995453,114.77670670021325,114.82698130002245,114.82698130002245,114.82698130002245,114.82698130002245,114.87660050019622,114.87660050019622,114.87660050019622,114.87660050019622,114.87660050019622,114.87660050019622,114.87660050019622,114.87660050019622,114.87660050019622,114.87660050019622,num_1,0.8403850998729467,115.74413389991969,115.74413389991969,None,,3,001,2025-12-16_15h50.21.137,2025C_exp1_detect,2022.2.4,59.91938441835088,
29.4,315,1,1,-1,-1,0,16,16,212,115.74413389991969,115.74413389991969,116.24487170018256,116.31154419993982,116.3618602999486,116.3618602999486,116.3618602999486,116.3618602999486,116.41161590022966,116.41161590022966,116.41161590022966,116.41161590022966,116.41161590022966,116.41161590022966,116.41161590022966,116.41161590022966,116.41161590022966,116.41161590022966,num_1,0.6654006997123361,117.09548550006002,117.09548550006002,None,,3,001,2025-12-16_15h50.21.137,2025C_exp1_detect,2022.2.4,59.91938441835088,
19.6,315,1,1,1,0,0,17,17,137,117.09548550006002,117.09548550006002,117.59593760035932,117.66290799994022,117.713193600066,117.713193600066,117.713193600066,117.713193600066,117.76295080035925,117.76295080035925,117.76295080035925,117.76295080035925,117.76295080035925,117.76295080035925,117.76295080035925,117.76295080035925,117.76295080035925,117.76295080035925,num_3,2.0897537996061146,119.88150020036846,119.88150020036846,None,,3,001,2025-12-16_15h50.21.137,2025C_exp1_detect,2022.2.4,59.91938441835088,
29.4,45,0,0,1,1,0,18,18,365,119.88150020036846,119.88150020036846,120.38236459996551,120.449098800309,120.49932250007987,120.49932250007987,120.49932250007987,120.49932250007987,120.54927540011704,120.54927540011704,120.54927540011704,120.54927540011704,120.54927540011704,120.54927540011704,120.54927540011704,120.54927540011704,120.54927540011704,120.54927540011704,num_1,0.7117581996135414,121.28291950002313,121.28291950002313,None,,3,001,2025-12-16_15h50.21.137,2025C_exp1_detect,2022.2.4,59.91938441835088,
29.4,315,0,0,1,1,0,19,19,374,121.28291950002313,121.28291950002313,121.7835794002749,121.85039550019428,121.90067839995027,121.90067839995027,121.90067839995027,121.90067839995027,121.9506173003465,121.9506173003465,121.9506173003465,121.9506173003465,121.9506173003465,121.9506173003465,121.9506173003465,121.9506173003465,121.9506173003465,121.9506173003465,num_1,0.6535366997122765,122.63433500006795,122.63433500006795,None,,3,001,2025-12-16_15h50.21.137,2025C_exp1_detect,2022.2.4,59.91938441835088,
39.2,315,1,1,-1,0,0,20,20,70,122.63433500006795,122.63433500006795,123.13506670016795,123.20182400010526,123.25221700035036,123.25221700035036,123.25221700035036,123.25221700035036,123.3019745000638,123.3019745000638,123.3019745000638,123.3019745000638,123.3019745000638,123.3019745000638,123.3019745000638,123.3019745000638,123.3019745000638,123.3019745000638,num_3,5.807289199903607,129.14084160001948,129.14084160001948,None,,3,001,2025-12-16_15h50.21.137,2025C_exp1_detect,2022.2.4,59.91938441835088,
39.2,315,0,0,1,1,0,21,21,376,129.14084160001948,129.14084160001948,129.64157430035993,129.70829159999266,129.75858699996024,129.75858699996024,129.75858699996024,129.75858699996024,129.80852119997144,129.80852119997144,129.80852119997144,129.80852119997144,129.80852119997144,129.80852119997144,129.80852119997144,129.80852119997144,129.80852119997144,129.80852119997144,num_1,0.6351502994075418,130.47574059991166,130.47574059991166,None,,3,001,2025-12-16_15h50.21.137,2025C_exp1_detect,2022.2.4,59.91938441835088,
25.5,315,0,0,-1,1,0,22,22,301,130.47574059991166,130.47574059991166,130.9763646000065,131.04285510024056,131.0932419002056,131.0932419002056,131.0932419002056,131.0932419002056,131.14295489992946,131.14295489992946,131.14295489992946,131.14295489992946,131.14295489992946,131.14295489992946,131.14295489992946,131.14295489992946,131.14295489992946,131.14295489992946,num_3,0.9821032998152077,132.1437627999112,132.1437627999112,None,,3,001,2025-12-16_15h50.21.137,2025C_exp1_detect,2022.2.4,59.91938441835088,
22.7,45,1,0,1,0,0,23,23,93,132.1437627999112,132.1437627999112,132.64483180036768,132.7115112002939,132.7617828999646,132.7617828999646,132.7617828999646,132.7617828999646,132.81163530005142,132.81163530005142,132.81163530005142,132.81163530005142,132.81163530005142,132.81163530005142,132.81163530005142,132.81163530005142,132.81163530005142,132.81163530005142,num_1,0.7762223999015987,133.61191989993677,133.61191989993677,None,,3,001,2025-12-16_15h50.21.137,2025C_exp1_detect,2022.2.4,59.91938441835088,
39.2,315,0,0,-1,0,0,24,24,16,133.61191989993677,133.61191989993677,134.11259109992534,134.1791693000123,134.22942270012572,134.22942270012572,134.22942270012572,134.22942270012572,134.2794563001953,134.2794563001953,134.2794563001953,134.2794563001953,134.2794563001953,134.2794563001953,134.2794563001953,134.2794563001953,134.2794563001953,134.2794563001953,num_1,0.7565113995224237,135.06343510001898,135.06343510001898,None,,3,001,2025-12-16_15h50.21.137,2025C_exp1_detect,2022.2.4,59.91938441835088,
15.7,45,0,1,1,0,0,25,25,109,135.06343510001898,135.06343510001898,135.56415490014479,135.63075789995492,135.68109260033816,135.68109260033816,135.68109260033816,135.68109260033816,135.7309338003397,135.7309338003397,135.7309338003397,135.7309338003397,135.7309338003397,135.7309338003397,135.7309338003397,135.7309338003397,135.7309338003397,135.7309338003397,num_3,2.2335155997425318,137.9829285000451,137.9829285000451,None,,3,001,2025-12-16_15h50.21.137,2025C_exp1_detect,2022.2.4,59.91938441835088,
42.7,315,1,0,1,0,0,26,26,107,137.9829285000451,137.9829285000451,138.48384250001982,138.55050370004028,138.60070780012757,138.60070780012757,138.60070780012757,138.60070780012757,138.6506950003095,138.6506950003095,138.6506950003095,138.6506950003095,138.6506950003095,138.6506950003095,138.6506950003095,138.6506950003095,138.6506950003095,138.6506950003095,num_3,1.7613362995907664,140.43539630016312,140.43539630016312,None,,3,001,2025-12-16_15h50.21.137,2025C_exp1_detect,2022.2.4,59.91938441835088,
19.6,45,1,0,1,1,0,27,27,380,140.43539630016312,140.43539630016312,140.93621300021186,141.00305500021204,141.053249000106,141.053249000106,141.053249000106,141.053249000106,141.1031142002903,141.1031142002903,141.1031142002903,141.1031142002903,141.1031142002903,141.1031142002903,141.1031142002903,141.1031142002903,141.1031142002903,141.1031142002903,num_3,1.0534189995378256,142.18734579999,142.18734579999,None,,3,001,2025-12-16_15h50.21.137,2025C_exp1_detect,2022.2.4,59.91938441835088,
42.7,45,0,0,1,0,0,28,28,80,142.18734579999,142.18734579999,142.6881011002697,142.75486050033942,142.80501090036705,142.80501090036705,142.80501090036705,142.80501090036705,142.85490120016038,142.85490120016038,142.85490120016038,142.85490120016038,142.85490120016038,142.85490120016038,142.85490120016038,142.85490120016038,142.85490120016038,142.85490120016038,num_1,1.1102689993567765,143.98896840028465,143.98896840028465,None,,3,001,2025-12-16_15h50.21.137,2025C_exp1_detect,2022.2.4,59.91938441835088,
35.3,45,0,1,-1,1,0,29,29,330,143.98896840028465,143.98896840028465,144.48974050022662,144.5562215000391,144.60663040028885,144.60663040028885,144.60663040028885,144.60663040028885,144.65648319991305,144.65648319991305,144.65648319991305,144.65648319991305,144.65648319991305,144.65648319991305,144.65648319991305,144.65648319991305,144.65648319991305,144.65648319991305,num_3,1.6594751998782158,146.3413196001202,146.3413196001202,None,,3,001,2025-12-16_15h50.21.137,2025C_exp1_detect,2022.2.4,59.91938441835088,
12.1,45,1,0,1,1,0,30,30,378,146.3413196001202,146.3413196001202,146.84182460000739,146.908807199914,146.9593728003092,146.9593728003092,146.9593728003092,146.9593728003092,147.00909649999812,147.00909649999812,147.00909649999812,147.00909649999812,147.00909649999812,147.00909649999812,147.00909649999812,147.00909649999812,147.00909649999812,147.00909649999812,num_3,1.042752799578011,148.07637390028685,148.07637390028685,None,,3,001,2025-12-16_15h50.21.137,2025C_exp1_detect,2022.2.4,59.91938441835088,
22.7,315,1,0,1,0,0,31,31,102,148.07637390028685,148.07637390028685,148.57716900017112,148.64385499991477,148.694317500107,148.694317500107,148.694317500107,148.694317500107,148.7439409000799,148.7439409000799,148.7439409000799,148.7439409000799,148.7439409000799,148.7439409000799,148.7439409000799,148.7439409000799,148.7439409000799,148.7439409000799,num_1,0.8365646996535361,149.61125770024955,149.61125770024955,None,,3,001,2025-12-16_15h50.21.137,2025C_exp1_detect,2022.2.4,59.91938441835088,
22.7,45,1,1,1,0,0,32,32,129,149.61125770024955,149.61125770024955,150.1119401003234,150.17876980034634,150.22904800018296,150.22904800018296,150.22904800018296,150.22904800018296,150.27894240012392,150.27894240012392,150.27894240012392,150.27894240012392,150.27894240012392,150.27894240012392,150.27894240012392,150.27894240012392,150.27894240012392,150.27894240012392,num_1,0.6380654997192323,150.9459591000341,150.9459591000341,None,,3,001,2025-12-16_15h50.21.137,2025C_exp1_detect,2022.2.4,59.91938441835088,
15.7,315,0,1,-1,-1,0,33,33,190,150.9459591000341,150.9459591000341,151.44666359992698,151.5133346002549,151.56346879992634,151.56346879992634,151.56346879992634,151.56346879992634,151.61355530004948,151.61355530004948,151.61355530004948,151.61355530004948,151.61355530004948,151.61355530004948,151.61355530004948,151.61355530004948,151.61355530004948,151.61355530004948,num_3,0.8783940994180739,152.51411550026387,152.51411550026387,None,,3,001,2025-12-16_15h50.21.137,2025C_exp1_detect,2022.2.4,59.91938441835088,
39.2,45,1,0,-1,0,0,34,34,25,152.51411550026387,152.51411550026387,153.01494480017573,153.0816155001521,153.1319257002324,153.1319257002324,153.1319257002324,153.1319257002324,153.18194450018927,153.18194450018927,153.18194450018927,153.18194450018927,153.18194450018927,153.18194450018927,153.18194450018927,153.18194450018927,153.18194450018927,153.18194450018927,num_1,0.6070600999519229,153.8154597003013,153.8154597003013,None,,3,001,2025-12-16_15h50.21.137,2025C_exp1_detect,2022.2.4,59.91938441835088,
29.4,45,1,0,1,0,0,35,35,95,153.8154597003013,153.8154597003013,154.31615799991414,154.3828206001781,154.43324870010838,154.43324870010838,154.43324870010838,154.43324870010838,154.48312380025163,154.48312380025163,154.48312380025163,154.48312380025163,154.48312380025163,154.48312380025163,154.48312380025163,154.48312380025163,154.48312380025163,154.48312380025163,num_3,1.4422537996433675,155.95115380035713,155.95115380035713,None,,3,001,2025-12-16_15h50.21.137,2025C_exp1_detect,2022.2.4,59.91938441835088,
15.7,315,1,0,-1,-1,0,36,36,172,155.95115380035713,155.95115380035713,156.45161580014974,156.51831379998475,156.56848799996078,156.56848799996078,156.56848799996078,156.56848799996078,156.6184618002735,156.6184618002735,156.6184618002735,156.6184618002735,156.6184618002735,156.6184618002735,156.6184618002735,156.6184618002735,156.6184618002735,156.6184618002735,num_1,0.6345465998165309,157.2691854001023,157.2691854001023,None,,3,001,2025-12-16_15h50.21.137,2025C_exp1_detect,2022.2.4,59.91938441835088,
12.1,315,0,1,-1,1,0,37,37,333,157.2691854001023,157.2691854001023,157.76986310025677,157.83649099990726,157.8866922003217,157.8866922003217,157.8866922003217,157.8866922003217,157.93646400002763,157.93646400002763,157.93646400002763,157.93646400002763,157.93646400002763,157.93646400002763,157.93646400002763,157.93646400002763,157.93646400002763,157.93646400002763,num_3,1.3806925998069346,159.33770040003583,159.33770040003583,None,,3,001,2025-12-16_15h50.21.137,2025C_exp1_detect,2022.2.4,59.91938441835088,
29.4,315,1,1,-1,1,0,38,38,356,159.33770040003583,159.33770040003583,159.83842220017686,159.90515010012314,159.95542420027778,159.95542420027778,159.95542420027778,159.95542420027778,160.00515050021932,160.00515050021932,160.00515050021932,160.00515050021932,160.00515050021932,160.00515050021932,160.00515050021932,160.00515050021932,160.00515050021932,160.00515050021932,num_1,1.135566999670118,161.17310310015455,161.17310310015455,None,,3,001,2025-12-16_15h50.21.137,2025C_exp1_detect,2022.2.4,59.91938441835088,
35.3,315,1,1,-1,1,0,39,39,357,161.17310310015455,161.17310310015455,161.67359249992296,161.74024670012295,161.79055450018495,161.79055450018495,161.79055450018495,161.79055450018495,161.8404224999249,161.8404224999249,161.8404224999249,161.8404224999249,161.8404224999249,161.8404224999249,161.8404224999249,161.8404224999249,161.8404224999249,161.8404224999249,num_1,1.5639606001786888,163.42519330000505,163.42519330000505,None,,3,001,2025-12-16_15h50.21.137,2025C_exp1_detect,2022.2.4,59.91938441835088,
25.5,315,0,0,1,1,0,40,40,373,163.42519330000505,163.42519330000505,163.92583920015022,163.99254260025918,164.0428214003332,164.0428214003332,164.0428214003332,164.0428214003332,164.09271160000935,164.09271160000935,164.09271160000935,164.09271160000935,164.09271160000935,164.09271160000935,164.09271160000935,164.09271160000935,164.09271160000935,164.09271160000935,num_3,1.056254199706018,165.17681080009788,165.17681080009788,None,,3,001,2025-12-16_15h50.21.137,2025C_exp1_detect,2022.2.4,59.91938441835088,
39.2,315,0,0,-1,-1,0,41,41,160,165.17681080009788,165.17681080009788,165.67757680034265,165.74428460001945,165.794589899946,165.794589899946,165.794589899946,165.794589899946,165.8444610000588,165.8444610000588,165.8444610000588,165.8444610000588,165.8444610000588,165.8444610000588,165.8444610000588,165.8444610000588,165.8444610000588,165.8444610000588,num_1,0.7844404997304082,166.64495020033792,166.64495020033792,None,,3,001,2025-12-16_15h50.21.137,2025C_exp1_detect,2022.2.4,59.91938441835088,
19.6,45,0,0,1,-1,0,42,42,218,166.64495020033792,166.64495020033792,167.14573770016432,167.21245480002835,167.26267800014466,167.26267800014466,167.26267800014466,167.26267800014466,167.3125066999346,167.3125066999346,167.3125066999346,167.3125066999346,167.3125066999346,167.3125066999346,167.3125066999346,167.3125066999346,167.3125066999346,167.3125066999346,num_3,1.2289249999448657,168.5637678001076,168.5637678001076,None,,3,001,2025-12-16_15h50.21.137,2025C_exp1_detect,2022.2.4,59.91938441835088,
22.7,315,1,1,1,-1,0,43,43,282,168.5637678001076,168.5637678001076,169.06429630005732,169.13105039997026,169.18129120022058,169.18129120022058,169.18129120022058,169.18129120022058,169.2312394999899,169.2312394999899,169.2312394999899,169.2312394999899,169.2312394999899,169.2312394999899,169.2312394999899,169.2312394999899,169.2312394999899,169.2312394999899,num_1,0.6781175998039544,169.93165330030024,169.93165330030024,None,,3,001,2025-12-16_15h50.21.137,2025C_exp1_detect,2022.2.4,59.91938441835088,
12.1,45,0,1,-1,1,0,44,44,324,169.93165330030024,169.93165330030024,170.43216030020267,170.49906470021233,170.54936830000952,170.54936830000952,170.54936830000952,170.54936830000952,170.59925090009347,170.59925090009347,170.59925090009347,170.59925090009347,170.59925090009347,170.59925090009347,170.59925090009347,170.59925090009347,170.59925090009347,170.59925090009347,num_3,0.9090329995378852,171.5331991002895,171.5331991002895,None,,3,001,2025-12-16_15h50.21.137,2025C_exp1_detect,2022.2.4,59.91938441835088,
35.3,45,0,0,-1,-1,0,45,45,150,171.5331991002895,171.5331991002895,172.03387519996613,172.1006260002032,172.1509503000416,172.1509503000416,172.1509503000416,172.1509503000416,172.20077580027282,172.20077580027282,172.20077580027282,172.20077580027282,172.20077580027282,172.20077580027282,172.20077580027282,172.20077580027282,172.20077580027282,172.20077580027282,num_1,0.6754048997536302,172.90139769995585,172.90139769995585,None,,3,001,2025-12-16_15h50.21.137,2025C_exp1_detect,2022.2.4,59.91938441835088,
42.7,315,0,0,-1,1,0,46,46,305,172.90139769995585,172.90139769995585,173.40205950010568,173.4688152000308,173.51908150035888,173.51908150035888,173.51908150035888,173.51908150035888,173.5689579001628,173.5689579001628,173.5689579001628,173.5689579001628,173.5689579001628,173.5689579001628,173.5689579001628,173.5689579001628,173.5689579001628,173.5689579001628,num_1,0.6109842997975647,174.2026444002986,174.2026444002986,None,,3,001,2025-12-16_15h50.21.137,2025C_exp1_detect,2022.2.4,59.91938441835088,
39.2,315,1,1,1,1,0,47,47,430,174.2026444002986,174.2026444002986,174.70318290032446,174.77001149998978,174.8202901002951,174.8202901002951,174.8202901002951,174.8202901002951,174.87017010012642,174.87017010012642,174.87017010012642,174.87017010012642,174.87017010012642,174.87017010012642,174.87017010012642,174.87017010012642,174.87017010012642,174.87017010012642,num_1,2.2066510999575257,177.1054629003629,177.1054629003629,None,,3,001,2025-12-16_15h50.21.137,2025C_exp1_detect,2022.2.4,59.91938441835088,
29.4,315,0,1,-1,1,0,48,48,338,177.1054629003629,177.1054629003629,177.60623320005834,177.6730575999245,177.7233601999469,177.7233601999469,177.7233601999469,177.7233601999469,177.77319210022688,177.77319210022688,177.77319210022688,177.77319210022688,177.77319210022688,177.77319210022688,177.77319210022688,177.77319210022688,177.77319210022688,177.77319210022688,num_3,0.8471504999324679,178.6403002999723,178.6403002999723,None,,3,001,2025-12-16_15h50.21.137,2025C_exp1_detect,2022.2.4,59.91938441835088,
29.4,315,1,0,-1,-1,0,49,49,176,178.6403002999723,178.6403002999723,179.1410995000042,179.20766380010173,179.25808029994369,179.25808029994369,179.25808029994369,179.25808029994369,179.30786910001189,179.30786910001189,179.30786910001189,179.30786910001189,179.30786910001189,179.30786910001189,179.30786910001189,179.30786910001189,179.30786910001189,179.30786910001189,num_1,0.6722532999701798,180.00838240003213,180.00838240003213,None,,3,001,2025-12-16_15h50.21.137,2025C_exp1_detect,2022.2.4,59.91938441835088,
15.7,315,1,1,1,-1,0,50,50,280,180.00838240003213,180.00838240003213,180.50908280024305,180.5758014000021,180.6261521000415,180.6261521000415,180.6261521000415,180.6261521000415,180.6758934003301,180.6758934003301,180.6758934003301,180.6758934003301,180.6758934003301,180.6758934003301,180.6758934003301,180.6758934003301,180.6758934003301,180.6758934003301,num_1,0.6651393999345601,181.3596626999788,181.3596626999788,None,,3,001,2025-12-16_15h50.21.137,2025C_exp1_detect,2022.2.4,59.91938441835088,
29.4,45,0,0,1,-1,0,51,51,221,181.3596626999788,181.3596626999788,181.86045640008524,181.9272408001125,181.97756000002846,181.97756000002846,181.97756000002846,181.97756000002846,182.0274634999223,182.0274634999223,182.0274634999223,182.0274634999223,182.0274634999223,182.0274634999223,182.0274634999223,182.0274634999223,182.0274634999223,182.0274634999223,num_3,0.7123846998438239,182.7610955000855,182.7610955000855,None,,3,001,2025-12-16_15h50.21.137,2025C_exp1_detect,2022.2.4,59.91938441835088,
42.7,45,1,1,1,1,0,52,52,422,182.7610955000855,182.7610955000855,183.26213590009138,183.32881030021235,183.37914560036734,183.37914560036734,183.37914560036734,183.37914560036734,183.42888900032267,183.42888900032267,183.42888900032267,183.42888900032267,183.42888900032267,183.42888900032267,183.42888900032267,183.42888900032267,183.42888900032267,183.42888900032267,num_1,1.0953593999147415,184.54644200019538,184.54644200019538,None,,3,001,2025-12-16_15h50.21.137,2025C_exp1_detect,2022.2.4,59.91938441835088,
39.2,45,0,1,-1,0,0,53,53,43,184.54644200019538,184.54644200019538,185.04701320035383,185.11339840013534,185.16369630023837,185.16369630023837,185.16369630023837,185.16369630023837,185.2137000001967,185.2137000001967,185.2137000001967,185.2137000001967,185.2137000001967,185.2137000001967,185.2137000001967,185.2137000001967,185.2137000001967,185.2137000001967,num_1,1.4226840999908745,186.66501340037212,186.66501340037212,None,,3,001,2025-12-16_15h50.21.137,2025C_exp1_detect,2022.2.4,59.91938441835088,
39.2,315,0,1,1,-1,0,54,54,268,186.66501340037212,186.66501340037212,187.1655453001149,187.23242660006508,187.28270350024104,187.28270350024104,187.28270350024104,187.28270350024104,187.33260790025815,187.33260790025815,187.33260790025815,187.33260790025815,187.33260790025815,187.33260790025815,187.33260790025815,187.33260790025815,187.33260790025815,187.33260790025815,num_3,0.9674089998006821,188.31662870012224,188.31662870012224,None,,3,001,2025-12-16_15h50.21.137,2025C_exp1_detect,2022.2.4,59.91938441835088,
25.5,45,0,1,-1,-1,0,55,55,184,188.31662870012224,188.31662870012224,188.81738930009305,188.884105599951,188.9343036999926,188.9343036999926,188.9343036999926,188.9343036999926,188.98408740013838,188.98408740013838,188.98408740013838,188.98408740013838,188.98408740013838,188.98408740013838,188.98408740013838,188.98408740013838,188.98408740013838,188.98408740013838,num_3,0.9637472997419536,189.9683227003552,189.9683227003552,None,,3,001,2025-12-16_15h50.21.137,2025C_exp1_detect,2022.2.4,59.91938441835088,
39.2,45,1,1,1,1,0,56,56,421,189.9683227003552,189.9683227003552,190.46876440010965,190.53574809990823,190.58606400014833,190.58606400014833,190.58606400014833,190.58606400014833,190.63592310016975,190.63592310016975,190.63592310016975,190.63592310016975,190.63592310016975,190.63592310016975,190.63592310016975,190.63592310016975,190.63592310016975,190.63592310016975,num_1,0.7052146000787616,191.3697179001756,191.3697179001756,None,,3,001,2025-12-16_15h50.21.137,2025C_exp1_detect,2022.2.4,59.91938441835088,
15.7,45,0,1,-1,-1,0,57,57,181,191.3697179001756,191.3697179001756,191.87030109995976,191.93715550005436,191.98744420008734,191.98744420008734,191.98744420008734,191.98744420008734,192.0373023999855,192.0373023999855,192.0373023999855,192.0373023999855,192.0373023999855,192.0373023999855,192.0373023999855,192.0373023999855,192.0373023999855,192.0373023999855,num_1,0.7671693996526301,192.82127450034022,192.82127450034022,None,,3,001,2025-12-16_15h50.21.137,2025C_exp1_detect,2022.2.4,59.91938441835088,
42.7,45,1,0,1,1,0,58,58,386,192.82127450034022,192.82127450034022,193.32173640001565,193.38858549995348,193.4390457002446,193.4390457002446,193.4390457002446,193.4390457002446,193.4887871001847,193.4887871001847,193.4887871001847,193.4887871001847,193.4887871001847,193.4887871001847,193.4887871001847,193.4887871001847,193.4887871001847,193.4887871001847,num_1,0.7871777997352183,194.3059137002565,194.3059137002565,None,,3,001,2025-12-16_15h50.21.137,2025C_exp1_detect,2022.2.4,59.91938441835088,
25.5,315,0,1,-1,1,0,59,59,337,194.3059137002565,194.3059137002565,194.80674060015008,194.8732715002261,194.923747099936,194.923747099936,194.923747099936,194.923747099936,194.97362020006403,194.97362020006403,194.97362020006403,194.97362020006403,194.97362020006403,194.97362020006403,194.97362020006403,194.97362020006403,194.97362020006403,194.97362020006403,num_3,0.7433477998711169,195.7406860999763,195.7406860999763,None,,3,001,2025-12-16_15h50.21.137,2025C_exp1_detect,2022.2.4,59.91938441835088,
22.7,45,0,0,1,0,0,60,60,75,195.7406860999763,195.7406860999763,196.2414794000797,196.30820900015533,196.35849500028417,196.35849500028417,196.35849500028417,196.35849500028417,196.40836790017784,196.40836790017784,196.40836790017784,196.40836790017784,196.40836790017784,196.40836790017784,196.40836790017784,196.40836790017784,196.40836790017784,196.40836790017784,num_3,0.8355541997589171,197.27571000019088,197.27571000019088,None,,3,001,2025-12-16_15h50.21.137,2025C_exp1_detect,2022.2.4,59.91938441835088,
35.3,315,0,0,1,0,0,61,61,87,197.27571000019088,197.27571000019088,197.77633510017768,197.8430515001528,197.89339280035347,197.89339280035347,197.89339280035347,197.89339280035347,197.94322950020432,197.94322950020432,197.94322950020432,197.94322950020432,197.94322950020432,197.94322950020432,197.94322950020432,197.94322950020432,197.94322950020432,197.94322950020432,num_3,0.5889953998848796,198.5600872002542,198.5600872002542,None,,3,001,2025-12-16_15h50.21.137,2025C_exp1_detect,2022.2.4,59.91938441835088,
15.7,45,1,0,1,1,0,62,62,379,198.5600872002542,198.5600872002542,199.06101880036294,199.12759259995073,199.1780036003329,199.1780036003329,199.1780036003329,199.1780036003329,199.22781680012122,199.22781680012122,199.22781680012122,199.22781680012122,199.22781680012122,199.22781680012122,199.22781680012122,199.22781680012122,199.22781680012122,199.22781680012122,num_1,0.873000799678266,200.1284675002098,200.1284675002098,None,,3,001,2025-12-16_15h50.21.137,2025C_exp1_detect,2022.2.4,59.91938441835088,
42.7,315,0,1,-1,-1,0,63,63,197,200.1284675002098,200.1284675002098,200.6291453000158,200.69593270029873,200.74623160017654,200.74623160017654,200.74623160017654,200.74623160017654,200.7958733001724,200.7958733001724,200.7958733001724,200.7958733001724,200.7958733001724,200.7958733001724,200.7958733001724,200.7958733001724,200.7958733001724,200.7958733001724,num_3,0.8484918996691704,201.6633337000385,201.6633337000385,None,,3,001,2025-12-16_15h50.21.137,2025C_exp1_detect,2022.2.4,59.91938441835088,
25.5,45,1,0,-1,0,0,64,64,22,201.6633337000385,201.6633337000385,202.1641128002666,202.2306633000262,202.28113140026107,202.28113140026107,202.28113140026107,202.28113140026107,202.33102679997683,202.33102679997683,202.33102679997683,202.33102679997683,202.33102679997683,202.33102679997683,202.33102679997683,202.33102679997683,202.33102679997683,202.33102679997683,num_1,0.4975809999741614,202.8479295000434,202.8479295000434,None,,3,001,2025-12-16_15h50.21.137,2025C_exp1_detect,2022.2.4,59.91938441835088,
42.7,45,1,1,1,0,0,65,65,134,202.8479295000434,202.8479295000434,203.34861550014466,203.41540160030127,203.46549220010638,203.46549220010638,203.46549220010638,203.46549220010638,203.5153692001477,203.5153692001477,203.5153692001477,203.5153692001477,203.5153692001477,203.5153692001477,203.5153692001477,203.5153692001477,203.5153692001477,203.5153692001477,num_1,0.7683368995785713,204.3160602003336,204.3160602003336,None,,3,001,2025-12-16_15h50.21.137,2025C_exp1_detect,2022.2.4,59.91938441835088,
12.1,45,0,0,1,0,0,66,66,72,204.3160602003336,204.3160602003336,204.8168343999423,204.88351570023224,204.93388500018045,204.93388500018045,204.93388500018045,204.93388500018045,204.98351640021428,204.98351640021428,204.98351640021428,204.98351640021428,204.98351640021428,204.98351640021428,204.98351640021428,204.98351640021428,204.98351640021428,204.98351640021428,num_1,0.8847692999988794,205.90112549997866,205.90112549997866,None,,3,001,2025-12-16_15h50.21.137,2025C_exp1_detect,2022.2.4,59.91938441835088,
19.6,315,1,1,-1,-1,0,67,67,209,205.90112549997866,205.90112549997866,206.4017813000828,206.46835360024124,206.51874430011958,206.51874430011958,206.51874430011958,206.51874430011958,206.5684914002195,206.5684914002195,206.5684914002195,206.5684914002195,206.5684914002195,206.5684914002195,206.5684914002195,206.5684914002195,206.5684914002195,206.5684914002195,num_3,1.2996888998895884,207.8861622000113,207.8861622000113,None,,3,001,2025-12-16_15h50.21.137,2025C_exp1_detect,2022.2.4,59.91938441835088,
12.1,315,0,1,-1,-1,0,68,68,189,207.8861622000113,207.8861622000113,208.38693860033527,208.45366180036217,208.50397820025682,208.50397820025682,208.50397820025682,208.50397820025682,208.5538258003071,208.5538258003071,208.5538258003071,208.5538258003071,208.5538258003071,208.5538258003071,208.5538258003071,208.5538258003071,208.5538258003071,208.5538258003071,num_1,0.5305108996108174,209.10406249994412,209.10406249994412,None,,3,001,2025-12-16_15h50.21.137,2025C_exp1_detect,2022.2.4,59.91938441835088,
39.2,45,1,0,1,0,0,69,69,97,209.10406249994412,209.10406249994412,209.60480710025877,209.67154810018837,209.72168690012768,209.72168690012768,209.72168690012768,209.72168690012768,209.77158330008388,209.77158330008388,209.77158330008388,209.77158330008388,209.77158330008388,209.77158330008388,209.77158330008388,209.77158330008388,209.77158330008388,209.77158330008388,num_1,1.2642383999191225,211.05597779992968,211.05597779992968,None,,3,001,2025-12-16_15h50.21.137,2025C_exp1_detect,2022.2.4,59.91938441835088,
39.2,45,1,0,1,1,0,70,70,385,211.05597779992968,211.05597779992968,211.55699319997802,211.62352050002664,211.67375570023432,211.67375570023432,211.67375570023432,211.67375570023432,211.7235256000422,211.7235256000422,211.7235256000422,211.7235256000422,211.7235256000422,211.7235256000422,211.7235256000422,211.7235256000422,211.7235256000422,211.7235256000422,num_3,2.128752399701625,213.87555030034855,213.87555030034855,None,,3,001,2025-12-16_15h50.21.137,2025C_exp1_detect,2022.2.4,59.91938441835088,
12.1,315,0,0,-1,1,0,71,71,297,213.87555030034855,213.87555030034855,214.37633650004864,214.44304120028391,214.4934144001454,214.4934144001454,214.4934144001454,214.4934144001454,214.5431616003625,214.5431616003625,214.5431616003625,214.5431616003625,214.5431616003625,214.5431616003625,214.5431616003625,214.5431616003625,214.5431616003625,214.5431616003625,num_1,1.5175819001160562,216.0777437002398,216.0777437002398,None,,3,001,2025-12-16_15h50.21.137,2025C_exp1_detect,2022.2.4,59.91938441835088,
19.6,45,1,1,1,1,0,72,72,416,216.0777437002398,216.0777437002398,216.57844959991053,216.6451751999557,216.69543740013614,216.69543740013614,216.69543740013614,216.69543740013614,216.74529840005562,216.74529840005562,216.74529840005562,216.74529840005562,216.74529840005562,216.74529840005562,216.74529840005562,216.74529840005562,216.74529840005562,216.74529840005562,num_1,0.9545574998483062,217.7293405001983,217.7293405001983,None,,3,001,2025-12-16_15h50.21.137,2025C_exp1_detect,2022.2.4,59.91938441835088,
12.1,315,1,0,-1,0,0,73,73,27,217.7293405001983,217.7293405001983,218.22994500026107,218.29673750000075,218.3470574002713,218.3470574002713,218.3470574002713,218.3470574002713,218.39702029991895,218.39702029991895,218.39702029991895,218.39702029991895,218.39702029991895,218.39702029991895,218.39702029991895,218.39702029991895,218.39702029991895,218.39702029991895,num_1,0.6474533998407423,219.0639790999703,219.0639790999703,None,,3,001,2025-12-16_15h50.21.137,2025C_exp1_detect,2022.2.4,59.91938441835088,
25.5,45,0,1,1,-1,0,74,74,256,219.0639790999703,219.0639790999703,219.5647820001468,219.63148119999096,219.68169610016048,219.68169610016048,219.68169610016048,219.68169610016048,219.73170470027253,219.73170470027253,219.73170470027253,219.73170470027253,219.73170470027253,219.73170470027253,219.73170470027253,219.73170470027253,219.73170470027253,219.73170470027253,num_3,0.9845246998593211,220.73240400012583,220.73240400012583,None,,3,001,2025-12-16_15h50.21.137,2025C_exp1_detect,2022.2.4,59.91938441835088,
19.6,315,0,0,-1,-1,0,75,75,155,220.73240400012583,220.73240400012583,221.2330158003606,221.29986179992557,221.35015260009095,221.35015260009095,221.35015260009095,221.35015260009095,221.40002069994807,221.40002069994807,221.40002069994807,221.40002069994807,221.40002069994807,221.40002069994807,221.40002069994807,221.40002069994807,221.40002069994807,221.40002069994807,num_1,0.6930944994091988,222.11704390030354,222.11704390030354,None,,3,001,2025-12-16_15h50.21.137,2025C_exp1_detect,2022.2.4,59.91938441835088,
42.7,45,0,1,1,1,0,76,76,404,222.11704390030354,222.11704390030354,222.61767950002104,222.6845609000884,222.73488070024177,222.73488070024177,222.73488070024177,222.73488070024177,222.78459790023044,222.78459790023044,222.78459790023044,222.78459790023044,222.78459790023044,222.78459790023044,222.78459790023044,222.78459790023044,222.78459790023044,222.78459790023044,num_1,0.6842331998050213,223.48508320003748,223.48508320003748,None,,3,001,2025-12-16_15h50.21.137,2025C_exp1_detect,2022.2.4,59.91938441835088,
25.5,45,0,0,1,1,0,77,77,364,223.48508320003748,223.48508320003748,223.98589960020036,224.05257409997284,224.10276000015438,224.10276000015438,224.10276000015438,224.10276000015438,224.15274520032108,224.15274520032108,224.15274520032108,224.15274520032108,224.15274520032108,224.15274520032108,224.15274520032108,224.15274520032108,224.15274520032108,224.15274520032108,num_3,1.0517834997735918,225.23711870005354,225.23711870005354,None,,3,001,2025-12-16_15h50.21.137,2025C_exp1_detect,2022.2.4,59.91938441835088,
39.2,315,0,0,-1,1,0,78,78,304,225.23711870005354,225.23711870005354,225.7376423003152,225.80416840035468,225.8548196000047,225.8548196000047,225.8548196000047,225.8548196000047,225.90449680015445,225.90449680015445,225.90449680015445,225.90449680015445,225.90449680015445,225.90449680015445,225.90449680015445,225.90449680015445,225.90449680015445,225.90449680015445,num_3,0.7880866001360118,226.72162690013647,226.72162690013647,None,,3,001,2025-12-16_15h50.21.137,2025C_exp1_detect,2022.2.4,59.91938441835088,
39.2,45,1,1,-1,1,0,79,79,349,226.72162690013647,226.72162690013647,227.22249010019004,227.28906710026786,227.33946130005643,227.33946130005643,227.33946130005643,227.33946130005643,227.38919030036777,227.38919030036777,227.38919030036777,227.38919030036777,227.38919030036777,227.38919030036777,227.38919030036777,227.38919030036777,227.38919030036777,227.38919030036777,num_3,1.0959340995177627,228.50682050036266,228.50682050036266,None,,3,001,2025-12-16_15h50.21.137,2025C_exp1_detect,2022.2.4,59.91938441835088,
19.6,315,1,1,1,1,0,80,80,425,228.50682050036266,228.50682050036266,229.00755250034854,229.0741138001904,229.12457989994437,229.12457989994437,229.12457989994437,229.12457989994437,229.17443579994142,229.17443579994142,229.17443579994142,229.17443579994142,229.17443579994142,229.17443579994142,229.17443579994142,229.17443579994142,229.17443579994142,229.17443579994142,num_1,0.6384588996879756,229.84154210006818,229.84154210006818,None,,3,001,2025-12-16_15h50.21.137,2025C_exp1_detect,2022.2.4,59.91938441835088,
15.7,45,1,1,1,-1,0,81,81,271,229.84154210006818,229.84154210006818,230.34223900036886,230.40898880036548,230.45938270026818,230.45938270026818,230.45938270026818,230.45938270026818,230.50915260007605,230.50915260007605,230.50915260007605,230.50915260007605,230.50915260007605,230.50915260007605,230.50915260007605,230.50915260007605,230.50915260007605,230.50915260007605,num_3,1.2389014000073075,231.77677350025624,231.77677350025624,None,,3,001,2025-12-16_15h50.21.137,2025C_exp1_detect,2022.2.4,59.91938441835088,
42.7,315,1,1,1,1,0,82,82,431,231.77677350025624,231.77677350025624,232.2776346001774,232.3443154003471,232.39462759997696,232.39462759997696,232.39462759997696,232.39462759997696,232.44455750007182,232.44455750007182,232.44455750007182,232.44455750007182,232.44455750007182,232.44455750007182,232.44455750007182,232.44455750007182,232.44455750007182,232.44455750007182,num_1,0.6883376999758184,233.16142840031534,233.16142840031534,None,,3,001,2025-12-16_15h50.21.137,2025C_exp1_detect,2022.2.4,59.91938441835088,
15.7,45,0,1,1,-1,0,83,83,253,233.16142840031534,233.16142840031534,233.66213939990848,233.72895740019158,233.7792480001226,233.7792480001226,233.7792480001226,233.7792480001226,233.8289421000518,233.8289421000518,233.8289421000518,233.8289421000518,233.8289421000518,233.8289421000518,233.8289421000518,233.8289421000518,233.8289421000518,233.8289421000518,num_1,0.583695899695158,234.42940360028297,234.42940360028297,None,,3,001,2025-12-16_15h50.21.137,2025C_exp1_detect,2022.2.4,59.91938441835088,
22.7,315,0,0,-1,-1,0,84,84,156,234.42940360028297,234.42940360028297,234.93015620019287,234.99667480029166,235.04715210013092,235.04715210013092,235.04715210013092,235.04715210013092,235.09700950002298,235.09700950002298,235.09700950002298,235.09700950002298,235.09700950002298,235.09700950002298,235.09700950002298,235.09700950002298,235.09700950002298,235.09700950002298,num_3,0.7636693995445967,235.88087720004842,235.88087720004842,None,,3,001,2025-12-16_15h50.21.137,2025C_exp1_detect,2022.2.4,59.91938441835088,
29.4,315,0,0,1,-1,0,85,85,230,235.88087720004842,235.88087720004842,236.38166519999504,236.448397600092,236.4987580003217,236.4987580003217,236.4987580003217,236.4987580003217,236.5485320002772,236.5485320002772,236.5485320002772,236.5485320002772,236.5485320002772,236.5485320002772,236.5485320002772,236.5485320002772,236.5485320002772,236.5485320002772,num_3,1.1842085998505354,237.74936790019274,237.74936790019274,None,,3,001,2025-12-16_15h50.21.137,2025C_exp1_detect,2022.2.4,59.91938441835088,
39.2,45,0,1,1,-1,0,86,86,259,237.74936790019274,237.74936790019274,238.24992260010913,238.31681019999087,238.36712469998747,238.36712469998747,238.36712469998747,238.36712469998747,238.41687040030956,238.41687040030956,238.41687040030956,238.41687040030956,238.41687040030956,238.41687040030956,238.41687040030956,238.41687040030956,238.41687040030956,238.41687040030956,num_1,0.6030600997619331,239.05076490016654,239.05076490016654,None,,3,001,2025-12-16_15h50.21.137,2025C_exp1_detect,2022.2.4,59.91938441835088,
15.7,45,1,1,1,0,0,87,87,127,239.05076490016654,239.05076490016654,239.55141430022195,239.61815749993548,239.6684555001557,239.6684555001557,239.6684555001557,239.6684555001557,239.71817400027066,239.71817400027066,239.71817400027066,239.71817400027066,239.71817400027066,239.71817400027066,239.71817400027066,239.71817400027066,239.71817400027066,239.71817400027066,num_1,0.7107634996064007,240.45211590034887,240.45211590034887,None,,3,001,2025-12-16_15h50.21.137,2025C_exp1_detect,2022.2.4,59.91938441835088,
39.2,45,1,0,1,-1,0,88,88,241,240.45211590034887,240.45211590034887,240.95281920023263,241.019540600013,241.0698342001997,241.0698342001997,241.0698342001997,241.0698342001997,241.11975060030818,241.11975060030818,241.11975060030818,241.11975060030818,241.11975060030818,241.11975060030818,241.11975060030818,241.11975060030818,241.11975060030818,241.11975060030818,num_3,0.7962942998856306,241.9368608002551,241.9368608002551,None,,3,001,2025-12-16_15h50.21.137,2025C_exp1_detect,2022.2.4,59.91938441835088,
42.7,45,0,0,1,-1,0,89,89,224,241.9368608002551,241.9368608002551,242.43764240015298,242.50437900004908,242.55465660011396,242.55465660011396,242.55465660011396,242.55465660011396,242.60452330019325,242.60452330019325,242.60452330019325,242.60452330019325,242.60452330019325,242.60452330019325,242.60452330019325,242.60452330019325,242.60452330019325,242.60452330019325,num_3,0.5605884995311499,243.1881805001758,243.1881805001758,None,,3,001,2025-12-16_15h50.21.137,2025C_exp1_detect,2022.2.4,59.91938441835088,
35.3,315,0,1,-1,-1,0,90,90,195,243.1881805001758,243.1881805001758,243.68895270023495,243.75566550018266,243.80593289993703,243.80593289993703,243.80593289993703,243.80593289993703,243.85564600024372,243.85564600024372,243.85564600024372,243.85564600024372,243.85564600024372,243.85564600024372,243.85564600024372,243.85564600024372,243.85564600024372,243.85564600024372,num_3,0.8929027998819947,244.77306549996138,244.77306549996138,None,,3,001,2025-12-16_15h50.21.137,2025C_exp1_detect,2022.2.4,59.91938441835088,
39.2,45,0,0,-1,-1,0,91,91,151,244.77306549996138,244.77306549996138,245.27368120010942,245.3402859000489,245.39085280010477,245.39085280010477,245.39085280010477,245.39085280010477,245.4408112000674,245.4408112000674,245.4408112000674,245.4408112000674,245.4408112000674,245.4408112000674,245.4408112000674,245.4408112000674,245.4408112000674,245.4408112000674,num_1,0.6829653000459075,246.14106890000403,246.14106890000403,None,,3,001,2025-12-16_15h50.21.137,2025C_exp1_detect,2022.2.4,59.91938441835088,
29.4,45,0,1,1,-1,0,92,92,257,246.14106890000403,246.14106890000403,246.64183380035684,246.70852759992704,246.75883450033143,246.75883450033143,246.75883450033143,246.75883450033143,246.80874860007316,246.80874860007316,246.80874860007316,246.80874860007316,246.80874860007316,246.80874860007316,246.80874860007316,246.80874860007316,246.80874860007316,246.80874860007316,num_1,1.6923152995295823,248.52686930028722,248.52686930028722,None,,3,001,2025-12-16_15h50.21.137,2025C_exp1_detect,2022.2.4,59.91938441835088,
35.3,315,0,1,-1,1,0,93,93,339,248.52686930028722,248.52686930028722,249.0275938999839,249.09426640020683,249.14459779998288,249.14459779998288,249.14459779998288,249.14459779998288,249.19446159992367,249.19446159992367,249.19446159992367,249.19446159992367,249.19446159992367,249.19446159992367,249.19446159992367,249.19446159992367,249.19446159992367,249.19446159992367,num_3,0.7784350998699665,249.99491759994999,249.99491759994999,None,,3,001,2025-12-16_15h50.21.137,2025C_exp1_detect,2022.2.4,59.91938441835088,
19.6,315,0,1,1,1,0,94,94,407,249.99491759994999,249.99491759994999,250.49575729994103,250.56234440021217,250.61254060035571,250.61254060035571,250.61254060035571,250.61254060035571,250.6623112000525,250.6623112000525,250.6623112000525,250.6623112000525,250.6623112000525,250.6623112000525,250.6623112000525,250.6623112000525,250.6623112000525,250.6623112000525,num_1,0.6468162997625768,251.32958280015737,251.32958280015737,None,,3,001,2025-12-16_15h50.21.137,2025C_exp1_detect,2022.2.4,59.91938441835088,
29.4,315,0,1,1,-1,0,95,95,266,251.32958280015737,251.32958280015737,251.83047630032524,251.89716610033065,251.94756310014054,251.94756310014054,251.94756310014054,251.94756310014054,251.9973862003535,251.9973862003535,251.9973862003535,251.9973862003535,251.9973862003535,251.9973862003535,251.9973862003535,251.9973862003535,251.9973862003535,251.9973862003535,num_1,0.5834479993209243,252.59759030025452,252.59759030025452,None,,3,001,2025-12-16_15h50.21.137,2025C_exp1_detect,2022.2.4,59.91938441835088,
12.1,45,0,1,1,0,0,96,96,108,252.59759030025452,252.59759030025452,253.09833920001984,253.16482100030407,253.2153023001738,253.2153023001738,253.2153023001738,253.2153023001738,253.26507370034233,253.26507370034233,253.26507370034233,253.26507370034233,253.26507370034233,253.26507370034233,253.26507370034233,253.26507370034233,253.26507370034233,253.26507370034233,num_1,0.5871879998594522,253.88240660028532,253.88240660028532,None,,3,001,2025-12-16_15h50.21.137,2025C_exp1_detect,2022.2.4,59.91938441835088,
22.7,315,0,0,-1,1,0,97,97,300,253.88240660028532,253.88240660028532,254.38283560005948,254.44977810001,254.49978210031986,254.49978210031986,254.49978210031986,254.49978210031986,254.5498126000166,254.5498126000166,254.5498126000166,254.5498126000166,254.5498126000166,254.5498126000166,254.5498126000166,254.5498126000166,254.5498126000166,254.5498126000166,num_3,0.6632568999193609,255.23374120006338,255.23374120006338,None,,3,001,2025-12-16_15h50.21.137,2025C_exp1_detect,2022.2.4,59.91938441835088,
29.4,45,1,1,1,1,0,98,98,419,255.23374120006338,255.23374120006338,255.7342757000588,255.80068230023608,255.85132100014016,255.85132100014016,255.85132100014016,255.85132100014016,255.90117430035025,255.90117430035025,255.90117430035025,255.90117430035025,255.90117430035025,255.90117430035025,255.90117430035025,255.90117430035025,255.90117430035025,255.90117430035025,num_1,1.1990037998184562,257.118851700332,257.118851700332,None,,3,001,2025-12-16_15h50.21.137,2025C_exp1_detect,2022.2.4,59.91938441835088,
19.6,45,0,1,1,1,0,99,99,398,257.118851700332,257.118851700332,257.6195445000194,257.6861622002907,257.73652689997107,257.73652689997107,257.73652689997107,257.73652689997107,257.78641800023615,257.78641800023615,257.78641800023615,257.78641800023615,257.78641800023615,257.78641800023615,257.78641800023615,257.78641800023615,257.78641800023615,257.78641800023615,num_1,0.5623842994682491,258.3701992002316,258.3701992002316,None,,3,001,2025-12-16_15h50.21.137,2025C_exp1_detect,2022.2.4,59.91938441835088,
35.3,45,1,0,1,0,0,100,100,96,258.3701992002316,258.3701992002316,258.87111190008,258.93714589998126,258.9878842001781,258.9878842001781,258.9878842001781,258.9878842001781,259.0376300001517,259.0376300001517,259.0376300001517,259.0376300001517,259.0376300001517,259.0376300001517,259.0376300001517,259.0376300001517,259.0376300001517,259.0376300001517,num_3,1.327616899739951,260.3889039000496,260.3889039000496,None,,3,001,2025-12-16_15h50.21.137,2025C_exp1_detect,2022.2.4,59.91938441835088,
12.1,315,1,1,1,0,0,101,101,135,260.3889039000496,260.3889039000496,260.88947540009394,260.9561638003215,261.00621720030904,261.00621720030904,261.00621720030904,261.00621720030904,261.0563527001068,261.0563527001068,261.0563527001068,261.0563527001068,261.0563527001068,261.0563527001068,261.0563527001068,261.0563527001068,261.0563527001068,261.0563527001068,num_1,0.46043779980391264,261.53992430027574,261.53992430027574,None,,3,001,2025-12-16_15h50.21.137,2025C_exp1_detect,2022.2.4,59.91938441835088,
15.7,315,0,0,-1,1,0,102,102,298,261.53992430027574,261.53992430027574,262.04068500036374,262.1072936002165,262.1575740999542,262.1575740999542,262.1575740999542,262.1575740999542,262.20744100026786,262.20744100026786,262.20744100026786,262.20744100026786,262.20744100026786,262.20744100026786,262.20744100026786,262.20744100026786,262.20744100026786,262.20744100026786,num_3,0.6444370998069644,262.8745299000293,262.8745299000293,None,,3,001,2025-12-16_15h50.21.137,2025C_exp1_detect,2022.2.4,59.91938441835088,
42.7,315,1,0,-1,0,0,103,103,35,262.8745299000293,262.8745299000293,263.3753424999304,263.44207060011104,263.4923892002553,263.4923892002553,263.4923892002553,263.4923892002553,263.5421356000006,263.5421356000006,263.5421356000006,263.5421356000006,263.5421356000006,263.5421356000006,263.5421356000006,263.5421356000006,263.5421356000006,263.5421356000006,num_1,0.5024820999242365,264.0759620000608,264.0759620000608,None,,3,001,2025-12-16_15h50.21.137,2025C_exp1_detect,2022.2.4,59.91938441835088,
19.6,45,1,0,1,-1,0,104,104,236,264.0759620000608,264.0759620000608,264.5763210002333,264.6431831000373,264.6934160999954,264.6934160999954,264.6934160999954,264.6934160999954,264.7433008002117,264.7433008002117,264.7433008002117,264.7433008002117,264.7433008002117,264.7433008002117,264.7433008002117,264.7433008002117,264.7433008002117,264.7433008002117,num_3,0.7575913998298347,265.52722810022533,265.52722810022533,None,,3,001,2025-12-16_15h50.21.137,2025C_exp1_detect,2022.2.4,59.91938441835088,
22.7,45,1,1,-1,-1,0,105,105,201,265.52722810022533,265.52722810022533,266.0279135000892,266.09465550025925,266.1449318001978,266.1449318001978,266.1449318001978,266.1449318001978,266.1947274003178,266.1947274003178,266.1947274003178,266.1947274003178,266.1947274003178,266.1947274003178,266.1947274003178,266.1947274003178,266.1947274003178,266.1947274003178,num_1,0.5373066994361579,266.76195080019534,266.76195080019534,None,,3,001,2025-12-16_15h50.21.137,2025C_exp1_detect,2022.2.4,59.91938441835088,
39.2,315,0,1,1,0,0,106,106,124,266.76195080019534,266.76195080019534,267.26215700013563,267.3291883999482,267.37939770007506,267.37939770007506,267.37939770007506,267.37939770007506,267.429347100202,267.429347100202,267.429347100202,267.429347100202,267.429347100202,267.429347100202,267.429347100202,267.429347100202,267.429347100202,267.429347100202,num_1,0.5115192998200655,267.96312749991193,267.96312749991193,None,,3,001,2025-12-16_15h50.21.137,2025C_exp1_detect,2022.2.4,59.91938441835088,
29.4,45,1,0,1,1,0,107,107,383,267.96312749991193,267.96312749991193,268.4636560003273,268.53037600032985,268.58067500032485,268.58067500032485,268.58067500032485,268.58067500032485,268.63040090026334,268.63040090026334,268.63040090026334,268.63040090026334,268.63040090026334,268.63040090026334,268.63040090026334,268.63040090026334,268.63040090026334,268.63040090026334,num_1,0.9018272995017469,269.5647754003294,269.5647754003294,space,2.095856599509716,3,001,2025-12-16_15h50.21.137,2025C_exp1_detect,2022.2.4,59.91938441835088,
29.4,45,1,0,-1,1,0,108,108,311,271.68353490019217,271.68353490019217,272.18402290018275,272.25074990000576,272.3009904003702,272.3009904003702,272.3009904003702,272.3009904003702,272.3508701999672,272.3508701999672,272.3508701999672,272.3508701999672,272.3508701999672,272.3508701999672,272.3508701999672,272.3508701999672,272.3508701999672,272.3508701999672,num_1,0.3897860995493829,272.7678379002027,272.7678379002027,None,,3,001,2025-12-16_15h50.21.137,2025C_exp1_detect,2022.2.4,59.91938441835088,
12.1,45,1,0,-1,-1,0,109,109,162,272.7678379002027,272.7678379002027,273.26855910010636,273.3352708001621,273.3854898000136,273.3854898000136,273.3854898000136,273.3854898000136,273.435412700288,273.435412700288,273.435412700288,273.435412700288,273.435412700288,273.435412700288,273.435412700288,273.435412700288,273.435412700288,273.435412700288,num_1,0.3293573996052146,273.7856208002195,273.7856208002195,None,,3,001,2025-12-16_15h50.21.137,2025C_exp1_detect,2022.2.4,59.91938441835088,
35.3,315,1,1,1,-1,0,110,110,285,273.7856208002195,273.7856208002195,274.2861354001798,274.3528776001185,274.4031336000189,274.4031336000189,274.4031336000189,274.4031336000189,274.4530603000894,274.4530603000894,274.4530603000894,274.4530603000894,274.4530603000894,274.4530603000894,274.4530603000894,274.4530603000894,274.4530603000894,274.4530603000894,num_3,0.4074776996858418,274.886591500137,274.886591500137,None,,3,001,2025-12-16_15h50.21.137,2025C_exp1_detect,2022.2.4,59.91938441835088,
29.4,45,1,1,-1,-1,0,111,111,203,274.886591500137,274.886591500137,275.38714889995754,275.4539558002725,275.5042719999328,275.5042719999328,275.5042719999328,275.5042719999328,275.55384920025244,275.55384920025244,275.55384920025244,275.55384920025244,275.55384920025244,275.55384920025244,275.55384920025244,275.55384920025244,275.55384920025244,275.55384920025244,num_1,0.4180765994824469,276.0045139002614,276.0045139002614,None,,3,001,2025-12-16_15h50.21.137,2025C_exp1_detect,2022.2.4,59.91938441835088,
12.1,315,1,0,-1,1,0,112,112,315,276.0045139002614,276.0045139002614,276.5050158002414,276.5718347001821,276.6222037002444,276.6222037002444,276.6222037002444,276.6222037002444,276.67197970021516,276.67197970021516,276.67197970021516,276.67197970021516,276.67197970021516,276.67197970021516,276.67197970021516,276.67197970021516,276.67197970021516,276.67197970021516,num_1,0.42825919948518276,277.1223115003668,277.1223115003668,None,,3,001,2025-12-16_15h50.21.137,2025C_exp1_detect,2022.2.4,59.91938441835088,
19.6,45,0,0,1,1,0,113,113,362,277.1223115003668,277.1223115003668,277.6226081000641,277.6893699001521,277.7399059003219,277.7399059003219,277.7399059003219,277.7399059003219,277.789871300105,277.789871300105,277.789871300105,277.789871300105,277.789871300105,277.789871300105,277.789871300105,277.789871300105,277.789871300105,277.789871300105,num_3,1.5751191996969283,279.39113839995116,279.39113839995116,None,,3,001,2025-12-16_15h50.21.137,2025C_exp1_detect,2022.2.4,59.91938441835088,
39.2,315,0,1,-1,0,0,114,114,52,279.39113839995116,279.39113839995116,279.89199199993163,279.958604299929,280.0090120001696,280.0090120001696,280.0090120001696,280.0090120001696,280.0588305001147,280.0588305001147,280.0588305001147,280.0588305001147,280.0588305001147,280.0588305001147,280.0588305001147,280.0588305001147,280.0588305001147,280.0588305001147,num_3,0.7219377993606031,280.8093710001558,280.8093710001558,None,,3,001,2025-12-16_15h50.21.137,2025C_exp1_detect,2022.2.4,59.91938441835088,
42.7,315,1,0,-1,1,0,115,115,323,280.8093710001558,280.8093710001558,281.30985390022397,281.37658399995416,281.42682219995186,281.42682219995186,281.42682219995186,281.42682219995186,281.47675279993564,281.47675279993564,281.47675279993564,281.47675279993564,281.47675279993564,281.47675279993564,281.47675279993564,281.47675279993564,281.47675279993564,281.47675279993564,num_1,0.47121560014784336,281.97705710027367,281.97705710027367,None,,3,001,2025-12-16_15h50.21.137,2025C_exp1_detect,2022.2.4,59.91938441835088,
22.7,45,0,0,-1,0,0,116,116,3,281.97705710027367,281.97705710027367,282.4775161999278,282.5443532001227,282.59466670034453,282.59466670034453,282.59466670034453,282.59466670034453,282.6443811003119,282.6443811003119,282.6443811003119,282.6443811003119,282.6443811003119,282.6443811003119,282.6443811003119,282.6443811003119,282.6443811003119,282.6443811003119,num_3,0.6799961999058723,283.3451702003367,283.3451702003367,None,,3,001,2025-12-16_15h50.21.137,2025C_exp1_detect,2022.2.4,59.91938441835088,
12.1,315,0,0,1,0,0,117,117,81,283.3451702003367,283.3451702003367,283.845609200187,283.91221689991653,283.9624447003007,283.9624447003007,283.9624447003007,283.9624447003007,284.0125836003572,284.0125836003572,284.0125836003572,284.0125836003572,284.0125836003572,284.0125836003572,284.0125836003572,284.0125836003572,284.0125836003572,284.0125836003572,num_3,0.8720803000032902,284.9132779003121,284.9132779003121,None,,3,001,2025-12-16_15h50.21.137,2025C_exp1_detect,2022.2.4,59.91938441835088,
35.3,315,0,1,1,-1,0,118,118,267,284.9132779003121,284.9132779003121,285.41408650018275,285.48075280012563,285.53089580032974,285.53089580032974,285.53089580032974,285.53089580032974,285.5807064999826,285.5807064999826,285.5807064999826,285.5807064999826,285.5807064999826,285.5807064999826,285.5807064999826,285.5807064999826,285.5807064999826,285.5807064999826,num_3,0.41577009996399283,286.0142487003468,286.0142487003468,None,,3,001,2025-12-16_15h50.21.137,2025C_exp1_detect,2022.2.4,59.91938441835088,
19.6,315,1,1,-1,1,0,119,119,353,286.0142487003468,286.0142487003468,286.5151022002101,286.5816236003302,286.6320390002802,286.6320390002802,286.6320390002802,286.6320390002802,286.6818087999709,286.6818087999709,286.6818087999709,286.6818087999709,286.6818087999709,286.6818087999709,286.6818087999709,286.6818087999709,286.6818087999709,286.6818087999709,num_3,1.8828925997950137,288.5836374000646,288.5836374000646,None,,3,001,2025-12-16_15h50.21.137,2025C_exp1_detect,2022.2.4,59.91938441835088,
22.7,315,0,0,1,1,0,120,120,372,288.5836374000646,288.5836374000646,289.08431409997866,289.150847800076,289.2012712000869,289.2012712000869,289.2012712000869,289.2012712000869,289.2511669001542,289.2511669001542,289.2511669001542,289.2511669001542,289.2511669001542,289.2511669001542,289.2511669001542,289.2511669001542,289.2511669001542,289.2511669001542,num_1,0.617040699813515,289.8851263001561,289.8851263001561,None,,3,001,2025-12-16_15h50.21.137,2025C_exp1_detect,2022.2.4,59.91938441835088,
39.2,45,1,0,-1,1,0,121,121,313,289.8851263001561,289.8851263001561,290.3856823001988,290.4523138999939,290.5025956002064,290.5025956002064,290.5025956002064,290.5025956002064,290.55258140014485,290.55258140014485,290.55258140014485,290.55258140014485,290.55258140014485,290.55258140014485,290.55258140014485,290.55258140014485,290.55258140014485,290.55258140014485,num_1,0.6197559996508062,291.2028824002482,291.2028824002482,None,,3,001,2025-12-16_15h50.21.137,2025C_exp1_detect,2022.2.4,59.91938441835088,
25.5,315,0,0,-1,0,0,122,122,13,291.2028824002482,291.2028824002482,291.70354480016977,291.77028720034286,291.8205766999163,291.8205766999163,291.8205766999163,291.8205766999163,291.87022620020434,291.87022620020434,291.87022620020434,291.87022620020434,291.87022620020434,291.87022620020434,291.87022620020434,291.87022620020434,291.87022620020434,291.87022620020434,num_3,0.7183684995397925,292.60470960009843,292.60470960009843,None,,3,001,2025-12-16_15h50.21.137,2025C_exp1_detect,2022.2.4,59.91938441835088,
19.6,315,0,0,1,-1,0,123,123,227,292.60470960009843,292.60470960009843,293.104822400026,293.17165190028027,293.221947400365,293.221947400365,293.221947400365,293.221947400365,293.2718307999894,293.2718307999894,293.2718307999894,293.2718307999894,293.2718307999894,293.2718307999894,293.2718307999894,293.2718307999894,293.2718307999894,293.2718307999894,num_3,2.1405207994394004,295.4407525002025,295.4407525002025,None,,3,001,2025-12-16_15h50.21.137,2025C_exp1_detect,2022.2.4,59.91938441835088,
42.7,45,1,1,-1,0,0,124,124,62,295.4407525002025,295.4407525002025,295.94113120017573,296.0077285999432,296.05795680033043,296.05795680033043,296.05795680033043,296.05795680033043,296.10775380022824,296.10775380022824,296.10775380022824,296.10775380022824,296.10775380022824,296.10775380022824,296.10775380022824,296.10775380022824,296.10775380022824,296.10775380022824,num_3,0.6561332996934652,296.79196820035577,296.79196820035577,None,,3,001,2025-12-16_15h50.21.137,2025C_exp1_detect,2022.2.4,59.91938441835088,
29.4,45,0,1,1,0,0,125,125,113,296.79196820035577,296.79196820035577,297.29245280008763,297.35920240031555,297.4094857000746,297.4094857000746,297.4094857000746,297.4094857000746,297.459363900125,297.459363900125,297.459363900125,297.459363900125,297.459363900125,297.459363900125,297.459363900125,297.459363900125,297.459363900125,297.459363900125,num_1,0.6009209998883307,298.07651789998636,298.07651789998636,None,,3,001,2025-12-16_15h50.21.137,2025C_exp1_detect,2022.2.4,59.91938441835088,
25.5,45,0,1,-1,1,0,126,126,328,298.07651789998636,298.07651789998636,298.5768387001008,298.6437047002837,298.69433860015124,298.69433860015124,298.69433860015124,298.69433860015124,298.7440742999315,298.7440742999315,298.7440742999315,298.7440742999315,298.7440742999315,298.7440742999315,298.7440742999315,298.7440742999315,298.7440742999315,298.7440742999315,num_3,0.6845915000885725,299.4611404002644,299.4611404002644,None,,3,001,2025-12-16_15h50.21.137,2025C_exp1_detect,2022.2.4,59.91938441835088,
15.7,315,0,0,-1,-1,0,127,127,154,299.4611404002644,299.4611404002644,299.9617902999744,300.02859449991956,300.07898849993944,300.07898849993944,300.07898849993944,300.07898849993944,300.12882700003684,300.12882700003684,300.12882700003684,300.12882700003684,300.12882700003684,300.12882700003684,300.12882700003684,300.12882700003684,300.12882700003684,300.12882700003684,num_1,0.45163399958983064,300.61247210018337,300.61247210018337,None,,3,001,2025-12-16_15h50.21.137,2025C_exp1_detect,2022.2.4,59.91938441835088,
19.6,45,1,0,-1,0,0,128,128,20,300.61247210018337,300.61247210018337,301.1129435002804,301.1796667999588,301.2296473002061,301.2296473002061,301.2296473002061,301.2296473002061,301.2796825999394,301.2796825999394,301.2796825999394,301.2796825999394,301.2796825999394,301.2796825999394,301.2796825999394,301.2796825999394,301.2796825999394,301.2796825999394,num_1,0.4523431998677552,301.7634525001049,301.7634525001049,None,,3,001,2025-12-16_15h50.21.137,2025C_exp1_detect,2022.2.4,59.91938441835088,
29.4,315,0,0,-1,1,0,129,129,302,301.7634525001049,301.7634525001049,302.26437370013446,302.3309794003144,302.3813733002171,302.3813733002171,302.3813733002171,302.3813733002171,302.43115650024265,302.43115650024265,302.43115650024265,302.43115650024265,302.43115650024265,302.43115650024265,302.43115650024265,302.43115650024265,302.43115650024265,302.43115650024265,num_1,0.7977899997495115,303.2483220002614,303.2483220002614,None,,3,001,2025-12-16_15h50.21.137,2025C_exp1_detect,2022.2.4,59.91938441835088,
19.6,45,0,0,1,0,0,130,130,74,303.2483220002614,303.2483220002614,303.7490338999778,303.81579890009016,303.86595620028675,303.86595620028675,303.86595620028675,303.86595620028675,303.91581250028685,303.91581250028685,303.91581250028685,303.91581250028685,303.91581250028685,303.91581250028685,303.91581250028685,303.91581250028685,303.91581250028685,303.91581250028685,num_3,0.8971411995589733,304.83309790026397,304.83309790026397,None,,3,001,2025-12-16_15h50.21.137,2025C_exp1_detect,2022.2.4,59.91938441835088,
42.7,315,1,0,-1,-1,0,131,131,179,304.83309790026397,304.83309790026397,305.33385290019214,305.40055919997394,305.4508607001044,305.4508607001044,305.4508607001044,305.4508607001044,305.50075819995254,305.50075819995254,305.50075819995254,305.50075819995254,305.50075819995254,305.50075819995254,305.50075819995254,305.50075819995254,305.50075819995254,305.50075819995254,num_1,0.7108404999598861,306.23441610019654,306.23441610019654,None,,3,001,2025-12-16_15h50.21.137,2025C_exp1_detect,2022.2.4,59.91938441835088,
25.5,315,1,1,1,0,0,132,132,139,306.23441610019654,306.23441610019654,306.7353209001012,306.8020791001618,306.8524662000127,306.8524662000127,306.8524662000127,306.8524662000127,306.90226070024073,306.90226070024073,306.90226070024073,306.90226070024073,306.90226070024073,306.90226070024073,306.90226070024073,306.90226070024073,306.90226070024073,306.90226070024073,num_1,0.9898877996020019,307.91959840012714,307.91959840012714,None,,3,001,2025-12-16_15h50.21.137,2025C_exp1_detect,2022.2.4,59.91938441835088,
12.1,45,1,1,-1,1,0,133,133,342,307.91959840012714,307.91959840012714,308.4202773999423,308.4870700999163,308.537363700103,308.537363700103,308.537363700103,308.537363700103,308.58722800016403,308.58722800016403,308.58722800016403,308.58722800016403,308.58722800016403,308.58722800016403,308.58722800016403,308.58722800016403,308.58722800016403,308.58722800016403,num_3,1.4414598001167178,310.05526689998806,310.05526689998806,None,,3,001,2025-12-16_15h50.21.137,2025C_exp1_detect,2022.2.4,59.91938441835088,
29.4,315,1,0,-1,1,0,134,134,320,310.05526689998806,310.05526689998806,310.555854300037,310.62231629993767,310.6727356002666,310.6727356002666,310.6727356002666,310.6727356002666,310.72248540027067,310.72248540027067,310.72248540027067,310.72248540027067,310.72248540027067,310.72248540027067,310.72248540027067,310.72248540027067,310.72248540027067,310.72248540027067,num_1,0.5854521994479001,311.33986080018803,311.33986080018803,None,,3,001,2025-12-16_15h50.21.137,2025C_exp1_detect,2022.2.4,59.91938441835088,
12.1,315,1,1,1,1,0,135,135,423,311.33986080018803,311.33986080018803,311.8404439003207,311.9070743001066,311.957523799967,311.957523799967,311.957523799967,311.957523799967,312.0073314001784,312.0073314001784,312.0073314001784,312.0073314001784,312.0073314001784,312.0073314001784,312.0073314001784,312.0073314001784,312.0073314001784,312.0073314001784,num_1,0.6209283997304738,312.65785189997405,312.65785189997405,None,,3,001,2025-12-16_15h50.21.137,2025C_exp1_detect,2022.2.4,59.91938441835088,
25.5,45,1,1,1,1,0,136,136,418,312.65785189997405,312.65785189997405,313.15822690026835,313.22485750028864,313.2755054999143,313.2755054999143,313.2755054999143,313.2755054999143,313.3252198002301,313.3252198002301,313.3252198002301,313.3252198002301,313.3252198002301,313.3252198002301,313.3252198002301,313.3252198002301,313.3252198002301,313.3252198002301,num_1,0.47041979990899563,313.8255209000781,313.8255209000781,None,,3,001,2025-12-16_15h50.21.137,2025C_exp1_detect,2022.2.4,59.91938441835088,
15.7,45,1,1,-1,0,0,137,137,55,313.8255209000781,313.8255209000781,314.3263111002743,314.39299790002406,314.44323089998215,314.44323089998215,314.44323089998215,314.44323089998215,314.49304690025747,314.49304690025747,314.49304690025747,314.49304690025747,314.49304690025747,314.49304690025747,314.49304690025747,314.49304690025747,314.49304690025747,314.49304690025747,num_3,0.6391962999477983,315.1602818001993,315.1602818001993,None,,3,001,2025-12-16_15h50.21.137,2025C_exp1_detect,2022.2.4,59.91938441835088,
22.7,315,1,1,1,0,0,138,138,138,315.1602818001993,315.1602818001993,315.6608396000229,315.72754839994013,315.7777082999237,315.7777082999237,315.7777082999237,315.7777082999237,315.82757139997557,315.82757139997557,315.82757139997557,315.82757139997557,315.82757139997557,315.82757139997557,315.82757139997557,315.82757139997557,315.82757139997557,315.82757139997557,num_1,0.769000499509275,316.6284378003329,316.6284378003329,None,,3,001,2025-12-16_15h50.21.137,2025C_exp1_detect,2022.2.4,59.91938441835088,
12.1,315,1,1,-1,0,0,139,139,63,316.6284378003329,316.6284378003329,317.1290156999603,317.19540240010247,317.2458814000711,317.2458814000711,317.2458814000711,317.2458814000711,317.29584990022704,317.29584990022704,317.29584990022704,317.29584990022704,317.29584990022704,317.29584990022704,317.29584990022704,317.29584990022704,317.29584990022704,317.29584990022704,num_3,1.324073499534279,318.6473843003623,318.6473843003623,None,,3,001,2025-12-16_15h50.21.137,2025C_exp1_detect,2022.2.4,59.91938441835088,
12.1,45,0,0,1,1,0,140,140,360,318.6473843003623,318.6473843003623,319.1478176000528,319.21410290012136,319.2645890000276,319.2645890000276,319.2645890000276,319.2645890000276,319.31452370015904,319.31452370015904,319.31452370015904,319.31452370015904,319.31452370015904,319.31452370015904,319.31452370015904,319.31452370015904,319.31452370015904,319.31452370015904,num_1,0.5298539996147156,319.8650794001296,319.8650794001296,None,,3,001,2025-12-16_15h50.21.137,2025C_exp1_detect,2022.2.4,59.91938441835088,
35.3,315,1,1,1,1,0,141,141,429,319.8650794001296,319.8650794001296,320.3655134001747,320.43239929992706,320.48268719995394,320.48268719995394,320.48268719995394,320.48268719995394,320.5325528001413,320.5325528001413,320.5325528001413,320.5325528001413,320.5325528001413,320.5325528001413,320.5325528001413,320.5325528001413,320.5325528001413,320.5325528001413,num_1,0.6074033998884261,321.166180500295,321.166180500295,None,,3,001,2025-12-16_15h50.21.137,2025C_exp1_detect,2022.2.4,59.91938441835088,
15.7,45,0,0,1,0,0,142,142,73,321.166180500295,321.166180500295,321.66665269993246,321.73354330006987,321.7837582002394,321.7837582002394,321.7837582002394,321.7837582002394,321.83373620035127,321.83373620035127,321.83373620035127,321.83373620035127,321.83373620035127,321.83373620035127,321.83373620035127,321.83373620035127,321.83373620035127,321.83373620035127,num_1,0.9301002994179726,322.7844108999707,322.7844108999707,None,,3,001,2025-12-16_15h50.21.137,2025C_exp1_detect,2022.2.4,59.91938441835088,
15.7,45,0,1,-1,0,0,143,143,37,322.7844108999707,322.7844108999707,323.28500170027837,323.3518211003393,323.40207740012556,323.40207740012556,323.40207740012556,323.40207740012556,323.4519972000271,323.4519972000271,323.4519972000271,323.4519972000271,323.4519972000271,323.4519972000271,323.4519972000271,323.4519972000271,323.4519972000271,323.4519972000271,num_3,0.7524750996381044,324.23588640009984,324.23588640009984,None,,3,001,2025-12-16_15h50.21.137,2025C_exp1_detect,2022.2.4,59.91938441835088,
42.7,45,1,0,-1,-1,0,144,144,170,324.23588640009984,324.23588640009984,324.7365760002285,324.8034198000096,324.85376940015703,324.85376940015703,324.85376940015703,324.85376940015703,324.90358030004427,324.90358030004427,324.90358030004427,324.90358030004427,324.90358030004427,324.90358030004427,324.90358030004427,324.90358030004427,324.90358030004427,324.90358030004427,num_1,0.5735728996805847,325.5037635001354,325.5037635001354,None,,3,001,2025-12-16_15h50.21.137,2025C_exp1_detect,2022.2.4,59.91938441835088,
29.4,315,0,1,-1,0,0,145,145,50,325.5037635001354,325.5037635001354,326.00448080012575,326.0710983001627,326.121544000227,326.121544000227,326.121544000227,326.121544000227,326.17142520006746,326.17142520006746,326.17142520006746,326.17142520006746,326.17142520006746,326.17142520006746,326.17142520006746,326.17142520006746,326.17142520006746,326.17142520006746,num_3,0.6805588998831809,326.8721632999368,326.8721632999368,None,,3,001,2025-12-16_15h50.21.137,2025C_exp1_detect,2022.2.4,59.91938441835088,
22.7,315,0,1,-1,-1,0,146,146,192,326.8721632999368,326.8721632999368,327.3727557999082,327.43938439991325,327.4895828999579,327.4895828999579,327.4895828999579,327.4895828999579,327.53928910009563,327.53928910009563,327.53928910009563,327.53928910009563,327.53928910009563,327.53928910009563,327.53928910009563,327.53928910009563,327.53928910009563,327.53928910009563,num_1,0.6967102997004986,328.25683260010555,328.25683260010555,None,,3,001,2025-12-16_15h50.21.137,2025C_exp1_detect,2022.2.4,59.91938441835088,
25.5,315,1,1,-1,-1,0,147,147,211,328.25683260010555,328.25683260010555,328.7573717003688,328.82398870028555,328.8743969001807,328.8743969001807,328.8743969001807,328.8743969001807,328.9242350002751,328.9242350002751,328.9242350002751,328.9242350002751,328.9242350002751,328.9242350002751,328.9242350002751,328.9242350002751,328.9242350002751,328.9242350002751,num_1,0.47264799987897277,329.4245833000168,329.4245833000168,None,,3,001,2025-12-16_15h50.21.137,2025C_exp1_detect,2022.2.4,59.91938441835088,
22.7,315,0,1,-1,0,0,148,148,48,329.4245833000168,329.4245833000168,329.92511539999396,329.9918714002706,330.0419362001121,330.0419362001121,330.0419362001121,330.0419362001121,330.0920150000602,330.0920150000602,330.0920150000602,330.0920150000602,330.0920150000602,330.0920150000602,330.0920150000602,330.0920150000602,330.0920150000602,330.0920150000602,num_1,0.5925111998803914,330.70914190029725,330.70914190029725,None,,3,001,2025-12-16_15h50.21.137,2025C_exp1_detect,2022.2.4,59.91938441835088,
42.7,45,1,0,1,0,0,149,149,98,330.70914190029725,330.70914190029725,331.20942130032927,331.27610719995573,331.3264011000283,331.3264011000283,331.3264011000283,331.3264011000283,331.37628520000726,331.37628520000726,331.37628520000726,331.37628520000726,331.37628520000726,331.37628520000726,331.37628520000726,331.37628520000726,331.37628520000726,331.37628520000726,num_3,1.0044837999157608,332.4111842000857,332.4111842000857,None,,3,001,2025-12-16_15h50.21.137,2025C_exp1_detect,2022.2.4,59.91938441835088,
19.6,45,0,0,-1,0,0,150,150,2,332.4111842000857,332.4111842000857,332.91166510013863,332.9783165003173,333.02844320004806,333.02844320004806,333.02844320004806,333.02844320004806,333.07828530017287,333.07828530017287,333.07828530017287,333.07828530017287,333.07828530017287,333.07828530017287,333.07828530017287,333.07828530017287,333.07828530017287,333.07828530017287,num_3,0.7106995997019112,333.8119736001827,333.8119736001827,None,,3,001,2025-12-16_15h50.21.137,2025C_exp1_detect,2022.2.4,59.91938441835088,
25.5,315,1,0,-1,0,0,151,151,31,333.8119736001827,333.8119736001827,334.31278630020097,334.37950750021264,334.42982800025493,334.42982800025493,334.42982800025493,334.42982800025493,334.4795584003441,334.4795584003441,334.4795584003441,334.4795584003441,334.4795584003441,334.4795584003441,334.4795584003441,334.4795584003441,334.4795584003441,334.4795584003441,num_1,0.549323299434036,335.0466837002896,335.0466837002896,None,,3,001,2025-12-16_15h50.21.137,2025C_exp1_detect,2022.2.4,59.91938441835088,
12.1,315,1,1,-1,-1,0,152,152,207,335.0466837002896,335.0466837002896,335.5473679001443,335.6140932003036,335.66437130002305,335.66437130002305,335.66437130002305,335.66437130002305,335.71425070008263,335.71425070008263,335.71425070008263,335.71425070008263,335.71425070008263,335.71425070008263,335.71425070008263,335.71425070008263,335.71425070008263,335.71425070008263,num_1,0.5546440999023616,336.2983177001588,336.2983177001588,None,,3,001,2025-12-16_15h50.21.137,2025C_exp1_detect,2022.2.4,59.91938441835088,
42.7,45,1,1,1,-1,0,153,153,278,336.2983177001588,336.2983177001588,336.79872280033305,336.86540890019387,336.9158061002381,336.9158061002381,336.9158061002381,336.9158061002381,336.96559610031545,336.96559610031545,336.96559610031545,336.96559610031545,336.96559610031545,336.96559610031545,336.96559610031545,336.96559610031545,336.96559610031545,336.96559610031545,num_3,0.8864005994983017,337.8829385000281,337.8829385000281,None,,3,001,2025-12-16_15h50.21.137,2025C_exp1_detect,2022.2.4,59.91938441835088,
15.7,45,1,0,-1,-1,0,154,154,163,337.8829385000281,337.8829385000281,338.38360700011253,338.4501986000687,338.5006026001647,338.5006026001647,338.5006026001647,338.5006026001647,338.5504191000946,338.5504191000946,338.5504191000946,338.5504191000946,338.5504191000946,338.5504191000946,338.5504191000946,338.5504191000946,338.5504191000946,338.5504191000946,num_1,0.6054386999458075,339.1843763003126,339.1843763003126,None,,3,001,2025-12-16_15h50.21.137,2025C_exp1_detect,2022.2.4,59.91938441835088,
25.5,315,0,0,1,-1,0,155,155,229,339.1843763003126,339.1843763003126,339.68496240023524,339.75154220033437,339.80195340001956,339.80195340001956,339.80195340001956,339.80195340001956,339.8518345002085,339.8518345002085,339.8518345002085,339.8518345002085,339.8518345002085,339.8518345002085,339.8518345002085,339.8518345002085,339.8518345002085,339.8518345002085,num_3,0.7206762996502221,340.6024064999074,340.6024064999074,None,,3,001,2025-12-16_15h50.21.137,2025C_exp1_detect,2022.2.4,59.91938441835088,
19.6,315,0,1,-1,0,0,156,156,47,340.6024064999074,340.6024064999074,341.10292110033333,341.1696493001655,341.21994099998847,341.21994099998847,341.21994099998847,341.21994099998847,341.26988020027056,341.26988020027056,341.26988020027056,341.26988020027056,341.26988020027056,341.26988020027056,341.26988020027056,341.26988020027056,341.26988020027056,341.26988020027056,num_3,1.1021004999056458,342.4041293002665,342.4041293002665,None,,3,001,2025-12-16_15h50.21.137,2025C_exp1_detect,2022.2.4,59.91938441835088,
19.6,315,0,1,-1,-1,0,157,157,191,342.4041293002665,342.4041293002665,342.90483390027657,342.9714742000215,343.0218138000928,343.0218138000928,343.0218138000928,343.0218138000928,343.07173390034586,343.07173390034586,343.07173390034586,343.07173390034586,343.07173390034586,343.07173390034586,343.07173390034586,343.07173390034586,343.07173390034586,343.07173390034586,num_3,0.6362633998505771,343.73890180001035,343.73890180001035,None,,3,001,2025-12-16_15h50.21.137,2025C_exp1_detect,2022.2.4,59.91938441835088,
35.3,45,1,0,1,-1,0,158,158,240,343.73890180001035,343.73890180001035,344.2394106001593,344.3061287999153,344.3565203999169,344.3565203999169,344.3565203999169,344.3565203999169,344.40618190029636,344.40618190029636,344.40618190029636,344.40618190029636,344.40618190029636,344.40618190029636,344.40618190029636,344.40618190029636,344.40618190029636,344.40618190029636,num_3,1.5431010997854173,345.97445560013875,345.97445560013875,None,,3,001,2025-12-16_15h50.21.137,2025C_exp1_detect,2022.2.4,59.91938441835088,
15.7,315,0,1,1,-1,0,159,159,262,345.97445560013875,345.97445560013875,346.4750234000385,346.5416228999384,346.5921149002388,346.5921149002388,346.5921149002388,346.5921149002388,346.64169159997255,346.64169159997255,346.64169159997255,346.64169159997255,346.64169159997255,346.64169159997255,346.64169159997255,346.64169159997255,346.64169159997255,346.64169159997255,num_1,0.8982907994650304,347.5592003003694,347.5592003003694,None,,3,001,2025-12-16_15h50.21.137,2025C_exp1_detect,2022.2.4,59.91938441835088,
22.7,315,1,1,-1,-1,0,160,160,210,347.5592003003694,347.5592003003694,348.0599263003096,348.1265553999692,348.17705260030925,348.17705260030925,348.17705260030925,348.17705260030925,348.22673409990966,348.22673409990966,348.22673409990966,348.22673409990966,348.22673409990966,348.22673409990966,348.22673409990966,348.22673409990966,348.22673409990966,348.22673409990966,num_3,0.7783409999683499,349.0273079001345,349.0273079001345,None,,3,001,2025-12-16_15h50.21.137,2025C_exp1_detect,2022.2.4,59.91938441835088,
15.7,315,0,1,1,0,0,161,161,118,349.0273079001345,349.0273079001345,349.5280225002207,349.5947426999919,349.64504420012236,349.64504420012236,349.64504420012236,349.64504420012236,349.6949275000952,349.6949275000952,349.6949275000952,349.6949275000952,349.6949275000952,349.6949275000952,349.6949275000952,349.6949275000952,349.6949275000952,349.6949275000952,num_3,0.4213372999802232,350.14501830004156,350.14501830004156,None,,3,001,2025-12-16_15h50.21.137,2025C_exp1_detect,2022.2.4,59.91938441835088,
22.7,45,1,0,-1,0,0,162,162,21,350.14501830004156,350.14501830004156,350.6457712999545,350.71239640004933,350.76279290020466,350.76279290020466,350.76279290020466,350.76279290020466,350.81275029992685,350.81275029992685,350.81275029992685,350.81275029992685,350.81275029992685,350.81275029992685,350.81275029992685,350.81275029992685,350.81275029992685,350.81275029992685,num_1,0.4875300000421703,351.32975420029834,351.32975420029834,None,,3,001,2025-12-16_15h50.21.137,2025C_exp1_detect,2022.2.4,59.91938441835088,
39.2,45,1,1,-1,0,0,163,163,61,351.32975420029834,351.32975420029834,351.8302084999159,351.8969302000478,351.9472688003443,351.9472688003443,351.9472688003443,351.9472688003443,351.9970110002905,351.9970110002905,351.9970110002905,351.9970110002905,351.9970110002905,351.9970110002905,351.9970110002905,351.9970110002905,351.9970110002905,351.9970110002905,num_3,1.2398938997648656,353.26498119998723,353.26498119998723,None,,3,001,2025-12-16_15h50.21.137,2025C_exp1_detect,2022.2.4,59.91938441835088,
25.5,315,1,1,1,1,0,164,164,427,353.26498119998723,353.26498119998723,353.76561020035297,353.8323004003614,353.8826198000461,353.8826198000461,353.8826198000461,353.8826198000461,353.9325092001818,353.9325092001818,353.9325092001818,353.9325092001818,353.9325092001818,353.9325092001818,353.9325092001818,353.9325092001818,353.9325092001818,353.9325092001818,num_1,0.6405759998597205,354.5997613002546,354.5997613002546,None,,3,001,2025-12-16_15h50.21.137,2025C_exp1_detect,2022.2.4,59.91938441835088,
29.4,315,0,1,1,0,0,165,165,122,354.5997613002546,354.5997613002546,355.1002412000671,355.1669637002051,355.217263400089,355.217263400089,355.217263400089,355.217263400089,355.26706370012835,355.26706370012835,355.26706370012835,355.26706370012835,355.26706370012835,355.26706370012835,355.26706370012835,355.26706370012835,355.26706370012835,355.26706370012835,num_1,0.6895963996648788,355.9844877999276,355.9844877999276,None,,3,001,2025-12-16_15h50.21.137,2025C_exp1_detect,2022.2.4,59.91938441835088,
35.3,45,1,0,-1,1,0,166,166,312,355.9844877999276,355.9844877999276,356.4849853999913,356.55165880033746,356.6019871002063,356.6019871002063,356.6019871002063,356.6019871002063,356.65188129991293,356.65188129991293,356.65188129991293,356.65188129991293,356.65188129991293,356.65188129991293,356.65188129991293,356.65188129991293,356.65188129991293,356.65188129991293,num_1,0.7525531998835504,357.43579410016537,357.43579410016537,None,,3,001,2025-12-16_15h50.21.137,2025C_exp1_detect,2022.2.4,59.91938441835088,
39.2,315,1,1,-1,-1,0,167,167,214,357.43579410016537,357.43579410016537,357.93653930025175,358.0032696002163,358.0534618003294,358.0534618003294,358.0534618003294,358.0534618003294,358.1033061002381,358.1033061002381,358.1033061002381,358.1033061002381,358.1033061002381,358.1033061002381,358.1033061002381,358.1033061002381,358.1033061002381,358.1033061002381,num_3,0.7976101995445788,358.92073580017313,358.92073580017313,None,,3,001,2025-12-16_15h50.21.137,2025C_exp1_detect,2022.2.4,59.91938441835088,
39.2,45,0,0,-1,1,0,168,168,295,358.92073580017313,358.92073580017313,359.4213180001825,359.4876749003306,359.53828500024974,359.53828500024974,359.53828500024974,359.53828500024974,359.58797830017284,359.58797830017284,359.58797830017284,359.58797830017284,359.58797830017284,359.58797830017284,359.58797830017284,359.58797830017284,359.58797830017284,359.58797830017284,num_3,0.8331110994331539,360.4390511000529,360.4390511000529,None,,3,001,2025-12-16_15h50.21.137,2025C_exp1_detect,2022.2.4,59.91938441835088,
35.3,45,0,1,1,0,0,169,169,114,360.4390511000529,360.4390511000529,360.93955990020186,361.00612370017916,361.05637080036104,361.05637080036104,361.05637080036104,361.05637080036104,361.1060377000831,361.1060377000831,361.1060377000831,361.1060377000831,361.1060377000831,361.1060377000831,361.1060377000831,361.1060377000831,361.1060377000831,361.1060377000831,num_1,1.082538299728185,362.2072823001072,362.2072823001072,None,,3,001,2025-12-16_15h50.21.137,2025C_exp1_detect,2022.2.4,59.91938441835088,
22.7,315,1,1,-1,0,0,170,170,66,362.2072823001072,362.2072823001072,362.7075992003083,362.77425910020247,362.82456260034814,362.82456260034814,362.82456260034814,362.82456260034814,362.87443440034986,362.87443440034986,362.87443440034986,362.87443440034986,362.87443440034986,362.87443440034986,362.87443440034986,362.87443440034986,362.87443440034986,362.87443440034986,num_3,1.0495108999311924,363.942284299992,363.942284299992,None,,3,001,2025-12-16_15h50.21.137,2025C_exp1_detect,2022.2.4,59.91938441835088,
15.7,45,1,1,-1,1,0,171,171,343,363.942284299992,363.942284299992,364.4428264000453,364.5093199000694,364.5597831001505,364.5597831001505,364.5597831001505,364.5597831001505,364.6095382999629,364.6095382999629,364.6095382999629,364.6095382999629,364.6095382999629,364.6095382999629,364.6095382999629,364.6095382999629,364.6095382999629,364.6095382999629,num_1,0.4827621001750231,365.1099378000945,365.1099378000945,None,,3,001,2025-12-16_15h50.21.137,2025C_exp1_detect,2022.2.4,59.91938441835088,
29.4,45,1,0,1,-1,0,172,172,239,365.1099378000945,365.1099378000945,365.61060310015455,365.6773586999625,365.7284476002678,365.7284476002678,365.7284476002678,365.7284476002678,365.7781143002212,365.7781143002212,365.7781143002212,365.7781143002212,365.7781143002212,365.7781143002212,365.7781143002212,365.7781143002212,365.7781143002212,365.7781143002212,num_3,0.8656661994755268,366.66154250036925,366.66154250036925,None,,3,001,2025-12-16_15h50.21.137,2025C_exp1_detect,2022.2.4,59.91938441835088,
22.7,45,0,0,-1,1,0,173,173,291,366.66154250036925,366.66154250036925,367.16201650025323,367.2287190002389,367.2790657002479,367.2790657002479,367.2790657002479,367.2790657002479,367.3290989003144,367.3290989003144,367.3290989003144,367.3290989003144,367.3290989003144,367.3290989003144,367.3290989003144,367.3290989003144,367.3290989003144,367.3290989003144,num_3,0.7233059997670352,368.07957640010864,368.07957640010864,None,,3,001,2025-12-16_15h50.21.137,2025C_exp1_detect,2022.2.4,59.91938441835088,
12.1,315,1,0,1,1,0,174,174,387,368.07957640010864,368.07957640010864,368.58037350000814,368.6470858999528,368.6973684001714,368.6973684001714,368.6973684001714,368.6973684001714,368.74727970035747,368.74727970035747,368.74727970035747,368.74727970035747,368.74727970035747,368.74727970035747,368.74727970035747,368.74727970035747,368.74727970035747,368.74727970035747,num_3,0.9937770999968052,369.7649139999412,369.7649139999412,None,,3,001,2025-12-16_15h50.21.137,2025C_exp1_detect,2022.2.4,59.91938441835088,
25.5,315,1,0,1,-1,0,175,175,247,369.7649139999412,369.7649139999412,370.2654210003093,370.3322841003537,370.3825905001722,370.3825905001722,370.3825905001722,370.3825905001722,370.4323411001824,370.4323411001824,370.4323411001824,370.4323411001824,370.4323411001824,370.4323411001824,370.4323411001824,370.4323411001824,370.4323411001824,370.4323411001824,num_3,0.5961752999573946,371.0494409003295,371.0494409003295,None,,3,001,2025-12-16_15h50.21.137,2025C_exp1_detect,2022.2.4,59.91938441835088,
42.7,315,0,0,1,-1,0,176,176,233,371.0494409003295,371.0494409003295,371.5497694001533,371.6166735002771,371.66716579999775,371.66716579999775,371.66716579999775,371.66716579999775,371.7170088002458,371.7170088002458,371.7170088002458,371.7170088002458,371.7170088002458,371.7170088002458,371.7170088002458,371.7170088002458,371.7170088002458,371.7170088002458,num_3,0.8395521999336779,372.58439279999584,372.58439279999584,None,,3,001,2025-12-16_15h50.21.137,2025C_exp1_detect,2022.2.4,59.91938441835088,
35.3,45,0,1,1,-1,0,177,177,258,372.58439279999584,372.58439279999584,373.08489109994844,373.1516064000316,373.2019593999721,373.2019593999721,373.2019593999721,373.2019593999721,373.2517710002139,373.2517710002139,373.2517710002139,373.2517710002139,373.2517710002139,373.2517710002139,373.2517710002139,373.2517710002139,373.2517710002139,373.2517710002139,num_1,0.616949999704957,373.8856190000661,373.8856190000661,None,,3,001,2025-12-16_15h50.21.137,2025C_exp1_detect,2022.2.4,59.91938441835088,
42.7,45,0,0,1,1,0,178,178,368,373.8856190000661,373.8856190000661,374.3861449002288,374.45287970034406,374.50330720003694,374.50330720003694,374.50330720003694,374.50330720003694,374.5528420000337,374.5528420000337,374.5528420000337,374.5528420000337,374.5528420000337,374.5528420000337,374.5528420000337,374.5528420000337,374.5528420000337,374.5528420000337,num_3,1.243377299979329,375.82100970018655,375.82100970018655,None,,3,001,2025-12-16_15h50.21.137,2025C_exp1_detect,2022.2.4,59.91938441835088,
35.3,315,0,0,-1,0,0,179,179,15,375.82100970018655,375.82100970018655,376.3214626000263,376.38818070013076,376.4384659002535,376.4384659002535,376.4384659002535,376.4384659002535,376.4883461003192,376.4883461003192,376.4883461003192,376.4883461003192,376.4883461003192,376.4883461003192,376.4883461003192,376.4883461003192,376.4883461003192,376.4883461003192,num_3,0.6836067000404,377.188859899994,377.188859899994,None,,3,001,2025-12-16_15h50.21.137,2025C_exp1_detect,2022.2.4,59.91938441835088,
35.3,315,0,0,-1,-1,0,180,180,159,377.188859899994,377.188859899994,377.6894423002377,377.7559194001369,377.806275700219,377.806275700219,377.806275700219,377.806275700219,377.8562877001241,377.8562877001241,377.8562877001241,377.8562877001241,377.8562877001241,377.8562877001241,377.8562877001241,377.8562877001241,377.8562877001241,377.8562877001241,num_3,0.3559602997265756,378.2400505999103,378.2400505999103,None,,3,001,2025-12-16_15h50.21.137,2025C_exp1_detect,2022.2.4,59.91938441835088,
12.1,45,1,1,1,0,0,181,181,126,378.2400505999103,378.2400505999103,378.7405286002904,378.8072389001027,378.8576177000068,378.8576177000068,378.8576177000068,378.8576177000068,378.90758650004864,378.90758650004864,378.90758650004864,378.90758650004864,378.90758650004864,378.90758650004864,378.90758650004864,378.90758650004864,378.90758650004864,378.90758650004864,num_3,1.009266599547118,379.94169590016827,379.94169590016827,None,,3,001,2025-12-16_15h50.21.137,2025C_exp1_detect,2022.2.4,59.91938441835088,
35.3,315,1,0,-1,0,0,182,182,33,379.94169590016827,379.94169590016827,380.44223430007696,380.5089655001648,380.55924980016425,380.55924980016425,380.55924980016425,380.55924980016425,380.60913660004735,380.60913660004735,380.60913660004735,380.60913660004735,380.60913660004735,380.60913660004735,380.60913660004735,380.60913660004735,380.60913660004735,380.60913660004735,num_1,0.4184263995848596,381.0595224001445,381.0595224001445,None,,3,001,2025-12-16_15h50.21.137,2025C_exp1_detect,2022.2.4,59.91938441835088,
42.7,45,1,0,1,-1,0,183,183,242,381.0595224001445,381.0595224001445,381.5600626002997,381.62666640011594,381.6770390002057,381.6770390002057,381.6770390002057,381.6770390002057,381.72694840002805,381.72694840002805,381.72694840002805,381.72694840002805,381.72694840002805,381.72694840002805,381.72694840002805,381.72694840002805,381.72694840002805,381.72694840002805,num_3,0.5257247998379171,382.27750919992104,382.27750919992104,None,,3,001,2025-12-16_15h50.21.137,2025C_exp1_detect,2022.2.4,59.91938441835088,
35.3,45,1,1,-1,1,0,184,184,348,382.27750919992104,382.27750919992104,382.777882500086,382.8448087000288,382.8949652002193,382.8949652002193,382.8949652002193,382.8949652002193,382.9448147001676,382.9448147001676,382.9448147001676,382.9448147001676,382.9448147001676,382.9448147001676,382.9448147001676,382.9448147001676,382.9448147001676,382.9448147001676,num_1,0.47527100006118417,383.4452463001944,383.4452463001944,None,,3,001,2025-12-16_15h50.21.137,2025C_exp1_detect,2022.2.4,59.91938441835088,
29.4,45,0,1,-1,1,0,185,185,329,383.4452463001944,383.4452463001944,383.9456533999182,384.0125012001954,384.0625295001082,384.0625295001082,384.0625295001082,384.0625295001082,384.1125023001805,384.1125023001805,384.1125023001805,384.1125023001805,384.1125023001805,384.1125023001805,384.1125023001805,384.1125023001805,384.1125023001805,384.1125023001805,num_1,0.9234108994714916,385.0633784001693,385.0633784001693,None,,3,001,2025-12-16_15h50.21.137,2025C_exp1_detect,2022.2.4,59.91938441835088,
15.7,45,1,1,1,1,0,186,186,415,385.0633784001693,385.0633784001693,385.56403800006956,385.6307407999411,385.68118080031127,385.68118080031127,385.68118080031127,385.68118080031127,385.73106010025367,385.73106010025367,385.73106010025367,385.73106010025367,385.73106010025367,385.73106010025367,385.73106010025367,385.73106010025367,385.73106010025367,385.73106010025367,num_3,0.49801479978486896,386.2480649999343,386.2480649999343,None,,3,001,2025-12-16_15h50.21.137,2025C_exp1_detect,2022.2.4,59.91938441835088,
29.4,45,0,0,-1,1,0,187,187,293,386.2480649999343,386.2480649999343,386.7485734000802,386.8150658002123,386.865449400153,386.865449400153,386.865449400153,386.865449400153,386.9154431000352,386.9154431000352,386.9154431000352,386.9154431000352,386.9154431000352,386.9154431000352,386.9154431000352,386.9154431000352,386.9154431000352,386.9154431000352,num_1,0.41778659960255027,387.3493375000544,387.3493375000544,None,,3,001,2025-12-16_15h50.21.137,2025C_exp1_detect,2022.2.4,59.91938441835088,
39.2,315,1,0,-1,-1,0,188,188,178,387.3493375000544,387.3493375000544,387.8498660000041,387.9166216002777,387.9669237001799,387.9669237001799,387.9669237001799,387.9669237001799,388.01677300035954,388.01677300035954,388.01677300035954,388.01677300035954,388.01677300035954,388.01677300035954,388.01677300035954,388.01677300035954,388.01677300035954,388.01677300035954,num_1,0.4030919997021556,388.45008410001174,388.45008410001174,None,,3,001,2025-12-16_15h50.21.137,2025C_exp1_detect,2022.2.4,59.91938441835088,
39.2,45,0,0,1,-1,0,189,189,223,388.45008410001174,388.45008410001174,388.9507797001861,389.0174483000301,389.067747999914,389.067747999914,389.067747999914,389.067747999914,389.11767130019143,389.11767130019143,389.11767130019143,389.11767130019143,389.11767130019143,389.11767130019143,389.11767130019143,389.11767130019143,389.11767130019143,389.11767130019143,num_3,0.4072123998776078,389.55119980033487,389.55119980033487,None,,3,001,2025-12-16_15h50.21.137,2025C_exp1_detect,2022.2.4,59.91938441835088,
39.2,315,0,1,-1,1,0,190,190,340,389.55119980033487,389.55119980033487,390.0517744002864,390.11862470023334,390.16891549993306,390.16891549993306,390.16891549993306,390.16891549993306,390.21875869994983,390.21875869994983,390.21875869994983,390.21875869994983,390.21875869994983,390.21875869994983,390.21875869994983,390.21875869994983,390.21875869994983,390.21875869994983,num_3,1.1133694001473486,391.35281730024144,391.35281730024144,None,,3,001,2025-12-16_15h50.21.137,2025C_exp1_detect,2022.2.4,59.91938441835088,
35.3,45,1,0,-1,0,0,191,191,24,391.35281730024144,391.35281730024144,391.8535486003384,391.9201698000543,391.97066400013864,391.97066400013864,391.97066400013864,391.97066400013864,392.02058569993824,392.02058569993824,392.02058569993824,392.02058569993824,392.02058569993824,392.02058569993824,392.02058569993824,392.02058569993824,392.02058569993824,392.02058569993824,num_1,0.5834882999770343,392.6209968002513,392.6209968002513,None,,3,001,2025-12-16_15h50.21.137,2025C_exp1_detect,2022.2.4,59.91938441835088,
12.1,315,0,0,1,-1,0,192,192,225,392.6209968002513,392.6209968002513,393.1215931000188,393.18830549996346,393.2386159999296,393.2386159999296,393.2386159999296,393.2386159999296,393.28849259996787,393.28849259996787,393.28849259996787,393.28849259996787,393.28849259996787,393.28849259996787,393.28849259996787,393.28849259996787,393.28849259996787,393.28849259996787,num_3,0.5152662000618875,393.82239910028875,393.82239910028875,None,,3,001,2025-12-16_15h50.21.137,2025C_exp1_detect,2022.2.4,59.91938441835088,
25.5,45,0,1,1,1,0,193,193,400,393.82239910028875,393.82239910028875,394.3227523001842,394.3895741002634,394.43987220013514,394.43987220013514,394.43987220013514,394.43987220013514,394.48961120005697,394.48961120005697,394.48961120005697,394.48961120005697,394.48961120005697,394.48961120005697,394.48961120005697,394.48961120005697,394.48961120005697,394.48961120005697,num_1,0.618697399739176,395.1404849002138,395.1404849002138,None,,3,001,2025-12-16_15h50.21.137,2025C_exp1_detect,2022.2.4,59.91938441835088,
42.7,45,0,1,1,-1,0,194,194,260,395.1404849002138,395.1404849002138,395.64100930001587,395.7076145000756,395.75803979998454,395.75803979998454,395.75803979998454,395.75803979998454,395.80787370027974,395.80787370027974,395.80787370027974,395.80787370027974,395.80787370027974,395.80787370027974,395.80787370027974,395.80787370027974,395.80787370027974,395.80787370027974,num_1,0.6602405998855829,396.4917441001162,396.4917441001162,None,,3,001,2025-12-16_15h50.21.137,2025C_exp1_detect,2022.2.4,59.91938441835088,
39.2,315,1,1,1,0,0,195,195,142,396.4917441001162,396.4917441001162,396.9921578001231,397.05858399998397,397.1088247001171,397.1088247001171,397.1088247001171,397.1088247001171,397.15898780012503,397.15898780012503,397.15898780012503,397.15898780012503,397.15898780012503,397.15898780012503,397.15898780012503,397.15898780012503,397.15898780012503,397.15898780012503,num_1,0.5092283999547362,397.6927825999446,397.6927825999446,None,,3,001,2025-12-16_15h50.21.137,2025C_exp1_detect,2022.2.4,59.91938441835088,
