contrast,ori,side,precue,trials.thisRepN,trials.thisTrialN,trials.thisN,trials.thisIndex,fix1.started,fix2.started,precue_2.started,precue_2.stopped,left_grating.started,right_grating.started,noise_left2.started,noise_right2.started,fix1.stopped,fix2.stopped,left_grating.stopped,right_grating.stopped,noise_left2.stopped,noise_right2.stopped,key_resp.started,fix1_2.started,fix2_2.started,key_resp.keys,key_resp.rt,key_resp_2.started,break_text_2.started,key_resp_2.keys,key_resp_2.rt,participant,session,date,expName,psychopyVersion,frameRate,
19.6,45,-1,-1,0,0,0,74,14.224145300220698,14.224145300220698,14.693208600394428,14.759886000305414,14.838916100095958,14.838916100095958,14.838916100095958,14.838916100095958,14.86005590017885,14.86005590017885,14.86005590017885,14.86005590017885,14.86005590017885,14.86005590017885,14.893422500230372,14.893422500230372,14.893422500230372,left,2.5843493002466857,17.49607940018177,17.49607940018177,None,,4,001,2025-12-16_17h08.15.316,2025C_exp1_comp,2022.2.4,59.79713211104799,
39.2,315,1,0,0,1,1,34,17.49607940018177,17.49607940018177,17.996639100369066,18.063211100175977,18.11364410025999,18.11364410025999,18.11364410025999,18.11364410025999,18.163431500084698,18.163431500084698,18.163431500084698,18.163431500084698,18.163431500084698,18.163431500084698,18.163431500084698,18.163431500084698,18.163431500084698,right,4.409203100018203,22.60117180040106,22.60117180040106,None,,4,001,2025-12-16_17h08.15.316,2025C_exp1_comp,2022.2.4,59.79713211104799,
12.1,315,-1,1,0,2,2,45,22.60117180040106,22.60117180040106,23.101531200110912,23.168401000089943,23.218778900336474,23.218778900336474,23.218778900336474,23.218778900336474,23.26851740013808,23.26851740013808,23.26851740013808,23.26851740013808,23.26851740013808,23.26851740013808,23.26851740013808,23.26851740013808,23.26851740013808,right,1.5130358999595046,24.803361300379038,24.803361300379038,None,,4,001,2025-12-16_17h08.15.316,2025C_exp1_comp,2022.2.4,59.79713211104799,
35.3,45,-1,0,0,3,3,6,24.803361300379038,24.803361300379038,25.30377780040726,25.370641500223428,25.42067740019411,25.42067740019411,25.42067740019411,25.42067740019411,25.470572700258344,25.470572700258344,25.470572700258344,25.470572700258344,25.470572700258344,25.470572700258344,25.470572700258344,25.470572700258344,25.470572700258344,right,1.9510466000065207,27.439336200244725,27.439336200244725,None,,4,001,2025-12-16_17h08.15.316,2025C_exp1_comp,2022.2.4,59.79713211104799,
19.6,315,-1,-1,0,4,4,83,27.439336200244725,27.439336200244725,27.93983589997515,28.006552000064403,28.05686300015077,28.05686300015077,28.05686300015077,28.05686300015077,28.106515200342983,28.106515200342983,28.106515200342983,28.106515200342983,28.106515200342983,28.106515200342983,28.106515200342983,28.106515200342983,28.106515200342983,left,1.9540331000462174,30.09198940033093,30.09198940033093,None,,4,001,2025-12-16_17h08.15.316,2025C_exp1_comp,2022.2.4,59.79713211104799,
12.1,315,1,1,0,5,5,63,30.09198940033093,30.09198940033093,30.592498400248587,30.658982899971306,30.709223200101405,30.709223200101405,30.709223200101405,30.709223200101405,30.7592700002715,30.7592700002715,30.7592700002715,30.7592700002715,30.7592700002715,30.7592700002715,30.7592700002715,30.7592700002715,30.7592700002715,left,1.3986578998155892,32.177360200323164,32.177360200323164,None,,4,001,2025-12-16_17h08.15.316,2025C_exp1_comp,2022.2.4,59.79713211104799,
12.1,45,1,-1,0,6,6,90,32.177360200323164,32.177360200323164,32.67791010020301,32.7446644003503,32.79494330007583,32.79494330007583,32.79494330007583,32.79494330007583,32.844701300375164,32.844701300375164,32.844701300375164,32.844701300375164,32.844701300375164,32.844701300375164,32.844701300375164,32.844701300375164,32.844701300375164,left,23.344481700100005,56.21803340036422,56.21803340036422,None,,4,001,2025-12-16_17h08.15.316,2025C_exp1_comp,2022.2.4,59.79713211104799,
19.6,45,1,0,0,7,7,20,56.21803340036422,56.21803340036422,56.71833660034463,56.7853662003763,56.835729100275785,56.835729100275785,56.835729100275785,56.835729100275785,56.885526000056416,56.885526000056416,56.885526000056416,56.885526000056416,56.885526000056416,56.885526000056416,56.885526000056416,56.885526000056416,56.885526000056416,left,1.0403456999920309,57.953195800073445,57.953195800073445,None,,4,001,2025-12-16_17h08.15.316,2025C_exp1_comp,2022.2.4,59.79713211104799,
22.7,315,-1,0,0,8,8,12,57.953195800073445,57.953195800073445,58.453663300257176,58.520376400090754,58.57070860033855,58.57070860033855,58.57070860033855,58.57070860033855,58.620508700143546,58.620508700143546,58.620508700143546,58.620508700143546,58.620508700143546,58.620508700143546,58.620508700143546,58.620508700143546,58.620508700143546,right,1.0888310996815562,59.73815830005333,59.73815830005333,None,,4,001,2025-12-16_17h08.15.316,2025C_exp1_comp,2022.2.4,59.79713211104799,
25.5,45,1,1,0,9,9,58,59.73815830005333,59.73815830005333,60.23872400028631,60.30551750026643,60.35576170030981,60.35576170030981,60.35576170030981,60.35576170030981,60.40560920024291,60.40560920024291,60.40560920024291,60.40560920024291,60.40560920024291,60.40560920024291,60.40560920024291,60.40560920024291,60.40560920024291,right,2.4559291996993124,62.891473000403494,62.891473000403494,None,,4,001,2025-12-16_17h08.15.316,2025C_exp1_comp,2022.2.4,59.79713211104799,
29.4,45,1,1,0,10,10,59,62.891473000403494,62.891473000403494,63.392171600367874,63.458802400156856,63.50910470029339,63.50910470029339,63.50910470029339,63.50910470029339,63.55896060029045,63.55896060029045,63.55896060029045,63.55896060029045,63.55896060029045,63.55896060029045,63.55896060029045,63.55896060029045,63.55896060029045,right,2.5984387998469174,66.17804640019313,66.17804640019313,None,,4,001,2025-12-16_17h08.15.316,2025C_exp1_comp,2022.2.4,59.79713211104799,
12.1,315,-1,0,0,11,11,9,66.17804640019313,66.17804640019313,66.67851170012727,66.74528590030968,66.7956195003353,66.7956195003353,66.7956195003353,66.7956195003353,66.84535840013996,66.84535840013996,66.84535840013996,66.84535840013996,66.84535840013996,66.84535840013996,66.84535840013996,66.84535840013996,66.84535840013996,right,0.9512180997990072,67.81276560015976,67.81276560015976,None,,4,001,2025-12-16_17h08.15.316,2025C_exp1_comp,2022.2.4,59.79713211104799,
35.3,315,1,-1,0,12,12,105,67.81276560015976,67.81276560015976,68.31351020000875,68.38024620013312,68.43040450010449,68.43040450010449,68.43040450010449,68.43040450010449,68.48021780001,68.48021780001,68.48021780001,68.48021780001,68.48021780001,68.48021780001,68.48021780001,68.48021780001,68.48021780001,left,0.8937372998334467,69.39795930031687,69.39795930031687,None,,4,001,2025-12-16_17h08.15.316,2025C_exp1_comp,2022.2.4,59.79713211104799,
25.5,315,1,-1,0,13,13,103,69.39795930031687,69.39795930031687,69.8985701999627,69.9649708000943,70.01525990013033,70.01525990013033,70.01525990013033,70.01525990013033,70.06508140033111,70.06508140033111,70.06508140033111,70.06508140033111,70.06508140033111,70.06508140033111,70.06508140033111,70.06508140033111,70.06508140033111,left,1.1089296997524798,71.19975270004943,71.19975270004943,None,,4,001,2025-12-16_17h08.15.316,2025C_exp1_comp,2022.2.4,59.79713211104799,
42.7,315,-1,-1,0,14,14,89,71.19975270004943,71.19975270004943,71.70041349995881,71.7672093003057,71.81742480024695,71.81742480024695,71.81742480024695,71.81742480024695,71.86723230034113,71.86723230034113,71.86723230034113,71.86723230034113,71.86723230034113,71.86723230034113,71.86723230034113,71.86723230034113,71.86723230034113,right,1.0178251997567713,72.90128650004044,72.90128650004044,None,,4,001,2025-12-16_17h08.15.316,2025C_exp1_comp,2022.2.4,59.79713211104799,
12.1,45,-1,1,0,15,15,36,72.90128650004044,72.90128650004044,73.40167970024049,73.46927290037274,73.51891189999878,73.51891189999878,73.51891189999878,73.51891189999878,73.56863320013508,73.56863320013508,73.56863320013508,73.56863320013508,73.56863320013508,73.56863320013508,73.56863320013508,73.56863320013508,73.56863320013508,right,1.4693624000065029,75.07035870011896,75.07035870011896,None,,4,001,2025-12-16_17h08.15.316,2025C_exp1_comp,2022.2.4,59.79713211104799,
39.2,315,-1,-1,0,16,16,88,75.07035870011896,75.07035870011896,75.5708016003482,75.6377688003704,75.68796910019591,75.68796910019591,75.68796910019591,75.68796910019591,75.73786740005016,75.73786740005016,75.73786740005016,75.73786740005016,75.73786740005016,75.73786740005016,75.73786740005016,75.73786740005016,75.73786740005016,left,0.995299800299108,76.7554375003092,76.7554375003092,None,,4,001,2025-12-16_17h08.15.316,2025C_exp1_comp,2022.2.4,59.79713211104799,
42.7,45,1,0,0,17,17,26,76.7554375003092,76.7554375003092,77.25591780012473,77.32268670015037,77.37305930024013,77.37305930024013,77.37305930024013,77.37305930024013,77.42290010023862,77.42290010023862,77.42290010023862,77.42290010023862,77.42290010023862,77.42290010023862,77.42290010023862,77.42290010023862,77.42290010023862,right,0.9911223999224603,78.44036710029468,78.44036710029468,None,,4,001,2025-12-16_17h08.15.316,2025C_exp1_comp,2022.2.4,59.79713211104799,
29.4,45,-1,1,0,18,18,41,78.44036710029468,78.44036710029468,78.94094520015642,79.0075559001416,79.05787680018693,79.05787680018693,79.05787680018693,79.05787680018693,79.10761480033398,79.10761480033398,79.10761480033398,79.10761480033398,79.10761480033398,79.10761480033398,79.10761480033398,79.10761480033398,79.10761480033398,right,1.1137289004400373,80.24222230026498,80.24222230026498,None,,4,001,2025-12-16_17h08.15.316,2025C_exp1_comp,2022.2.4,59.79713211104799,
22.7,315,1,0,0,19,19,30,80.24222230026498,80.24222230026498,80.74269620003179,80.8092265999876,80.85960840014741,80.85960840014741,80.85960840014741,80.85960840014741,80.90949150035158,80.90949150035158,80.90949150035158,80.90949150035158,80.90949150035158,80.90949150035158,80.90949150035158,80.90949150035158,80.90949150035158,left,0.823579499963671,81.76030160021037,81.76030160021037,None,,4,001,2025-12-16_17h08.15.316,2025C_exp1_comp,2022.2.4,59.79713211104799,
39.2,45,1,-1,0,20,20,97,81.76030160021037,81.76030160021037,82.26080160029233,82.32749810023233,82.37774410005659,82.37774410005659,82.37774410005659,82.37774410005659,82.42762560024858,82.42762560024858,82.42762560024858,82.42762560024858,82.42762560024858,82.42762560024858,82.42762560024858,82.42762560024858,82.42762560024858,right,3.1851237998344004,85.63084250036627,85.63084250036627,None,,4,001,2025-12-16_17h08.15.316,2025C_exp1_comp,2022.2.4,59.79713211104799,
42.7,315,-1,1,0,21,21,53,85.63084250036627,85.63084250036627,86.13135439995676,86.19776250002906,86.24827190022916,86.24827190022916,86.24827190022916,86.24827190022916,86.29817530000582,86.29817530000582,86.29817530000582,86.29817530000582,86.29817530000582,86.29817530000582,86.29817530000582,86.29817530000582,86.29817530000582,left,2.7954432000406086,89.11764260008931,89.11764260008931,None,,4,001,2025-12-16_17h08.15.316,2025C_exp1_comp,2022.2.4,59.79713211104799,
29.4,315,-1,0,0,22,22,14,89.11764260008931,89.11764260008931,89.61799659999087,89.68487230036408,89.73519599996507,89.73519599996507,89.73519599996507,89.73519599996507,89.78497890010476,89.78497890010476,89.78497890010476,89.78497890010476,89.78497890010476,89.78497890010476,89.78497890010476,89.78497890010476,89.78497890010476,right,2.3964399001561105,92.20385020039976,92.20385020039976,None,,4,001,2025-12-16_17h08.15.316,2025C_exp1_comp,2022.2.4,59.79713211104799,
25.5,315,-1,1,0,23,23,49,92.20385020039976,92.20385020039976,92.70458290027454,92.7712984001264,92.8214890002273,92.8214890002273,92.8214890002273,92.8214890002273,92.87138930009678,92.87138930009678,92.87138930009678,92.87138930009678,92.87138930009678,92.87138930009678,92.87138930009678,92.87138930009678,92.87138930009678,right,1.4457181999459863,94.33925990015268,94.33925990015268,None,,4,001,2025-12-16_17h08.15.316,2025C_exp1_comp,2022.2.4,59.79713211104799,
25.5,45,-1,0,0,24,24,4,94.33925990015268,94.33925990015268,94.84006169997156,94.90674270037562,94.95702980039641,94.95702980039641,94.95702980039641,94.95702980039641,95.0068894000724,95.0068894000724,95.0068894000724,95.0068894000724,95.0068894000724,95.0068894000724,95.0068894000724,95.0068894000724,95.0068894000724,right,1.1506310999393463,96.1745567000471,96.1745567000471,None,,4,001,2025-12-16_17h08.15.316,2025C_exp1_comp,2022.2.4,59.79713211104799,
25.5,315,-1,-1,0,25,25,85,96.1745567000471,96.1745567000471,96.67527440004051,96.7419627001509,96.79216620000079,96.79216620000079,96.79216620000079,96.79216620000079,96.84209140017629,96.84209140017629,96.84209140017629,96.84209140017629,96.84209140017629,96.84209140017629,96.84209140017629,96.84209140017629,96.84209140017629,left,0.9144932003691792,97.77616630028933,97.77616630028933,None,,4,001,2025-12-16_17h08.15.316,2025C_exp1_comp,2022.2.4,59.79713211104799,
19.6,315,1,-1,0,26,26,101,97.77616630028933,97.77616630028933,98.2768124002032,98.34352190000936,98.39373670006171,98.39373670006171,98.39373670006171,98.39373670006171,98.44334720028564,98.44334720028564,98.44334720028564,98.44334720028564,98.44334720028564,98.44334720028564,98.44334720028564,98.44334720028564,98.44334720028564,left,0.7617367003113031,99.22784440033138,99.22784440033138,None,,4,001,2025-12-16_17h08.15.316,2025C_exp1_comp,2022.2.4,59.79713211104799,
39.2,45,-1,1,0,27,27,43,99.22784440033138,99.22784440033138,99.72824130021036,99.79501989996061,99.84531929995865,99.84531929995865,99.84531929995865,99.84531929995865,99.89511200040579,99.89511200040579,99.89511200040579,99.89511200040579,99.89511200040579,99.89511200040579,99.89511200040579,99.89511200040579,99.89511200040579,right,2.638155600056052,102.56414070026949,102.56414070026949,None,,4,001,2025-12-16_17h08.15.316,2025C_exp1_comp,2022.2.4,59.79713211104799,
15.7,45,1,0,0,28,28,19,102.56414070026949,102.56414070026949,103.06495700031519,103.13163980003446,103.18186610005796,103.18186610005796,103.18186610005796,103.18186610005796,103.23165730014443,103.23165730014443,103.23165730014443,103.23165730014443,103.23165730014443,103.23165730014443,103.23165730014443,103.23165730014443,103.23165730014443,left,0.8942526001483202,104.1493428000249,104.1493428000249,None,,4,001,2025-12-16_17h08.15.316,2025C_exp1_comp,2022.2.4,59.79713211104799,
42.7,45,-1,0,0,29,29,8,104.1493428000249,104.1493428000249,104.64960080012679,104.71657819999382,104.76687150029466,104.76687150029466,104.76687150029466,104.76687150029466,104.81664410000667,104.81664410000667,104.81664410000667,104.81664410000667,104.81664410000667,104.81664410000667,104.81664410000667,104.81664410000667,104.81664410000667,right,2.2678518001921475,107.10223970003426,107.10223970003426,None,,4,001,2025-12-16_17h08.15.316,2025C_exp1_comp,2022.2.4,59.79713211104799,
42.7,315,1,0,0,30,30,35,107.10223970003426,107.10223970003426,107.60281580034643,107.66945710033178,107.7196996002458,107.7196996002458,107.7196996002458,107.7196996002458,107.76969300024211,107.76969300024211,107.76969300024211,107.76969300024211,107.76969300024211,107.76969300024211,107.76969300024211,107.76969300024211,107.76969300024211,left,1.6111838999204338,109.40460850019008,109.40460850019008,None,,4,001,2025-12-16_17h08.15.316,2025C_exp1_comp,2022.2.4,59.79713211104799,
22.7,45,-1,1,0,31,31,39,109.40460850019008,109.40460850019008,109.90506410039961,109.97193180024624,110.02215309999883,110.02215309999883,110.02215309999883,110.02215309999883,110.0717953001149,110.0717953001149,110.0717953001149,110.0717953001149,110.0717953001149,110.0717953001149,110.0717953001149,110.0717953001149,110.0717953001149,left,1.5574620002880692,111.65670100040734,111.65670100040734,None,,4,001,2025-12-16_17h08.15.316,2025C_exp1_comp,2022.2.4,59.79713211104799,
15.7,45,-1,0,0,32,32,1,111.65670100040734,111.65670100040734,112.15736520010978,112.22408320009708,112.27438230020925,112.27438230020925,112.27438230020925,112.27438230020925,112.32406640006229,112.32406640006229,112.32406640006229,112.32406640006229,112.32406640006229,112.32406640006229,112.32406640006229,112.32406640006229,112.32406640006229,left,2.8172559002414346,115.16009410005063,115.16009410005063,None,,4,001,2025-12-16_17h08.15.316,2025C_exp1_comp,2022.2.4,59.79713211104799,
19.6,315,-1,1,0,33,33,47,115.16009410005063,115.16009410005063,115.6608549002558,115.7278228001669,115.77803940000013,115.77803940000013,115.77803940000013,115.77803940000013,115.82784450007603,115.82784450007603,115.82784450007603,115.82784450007603,115.82784450007603,115.82784450007603,115.82784450007603,115.82784450007603,115.82784450007603,left,1.0334729002788663,116.87858870020136,116.87858870020136,None,,4,001,2025-12-16_17h08.15.316,2025C_exp1_comp,2022.2.4,59.79713211104799,
25.5,45,1,-1,0,34,34,94,116.87858870020136,116.87858870020136,117.3792580999434,117.44590330030769,117.49621660029516,117.49621660029516,117.49621660029516,117.49621660029516,117.54591150023043,117.54591150023043,117.54591150023043,117.54591150023043,117.54591150023043,117.54591150023043,117.54591150023043,117.54591150023043,117.54591150023043,left,1.7000508001074195,119.26458190008998,119.26458190008998,None,,4,001,2025-12-16_17h08.15.316,2025C_exp1_comp,2022.2.4,59.79713211104799,
19.6,315,1,0,0,35,35,29,119.26458190008998,119.26458190008998,119.76498360000551,119.8317335001193,119.88204709999263,119.88204709999263,119.88204709999263,119.88204709999263,119.93167910026386,119.93167910026386,119.93167910026386,119.93167910026386,119.93167910026386,119.93167910026386,119.93167910026386,119.93167910026386,119.93167910026386,left,1.1692456002347171,121.13300810009241,121.13300810009241,None,,4,001,2025-12-16_17h08.15.316,2025C_exp1_comp,2022.2.4,59.79713211104799,
22.7,315,1,1,0,36,36,66,121.13300810009241,121.13300810009241,121.63346600020304,121.70018550008535,121.75035980017856,121.75035980017856,121.75035980017856,121.75035980017856,121.80030620004982,121.80030620004982,121.80030620004982,121.80030620004982,121.80030620004982,121.80030620004982,121.80030620004982,121.80030620004982,121.80030620004982,left,1.1962218000553548,123.01811570022255,123.01811570022255,None,,4,001,2025-12-16_17h08.15.316,2025C_exp1_comp,2022.2.4,59.79713211104799,
12.1,45,-1,-1,0,37,37,72,123.01811570022255,123.01811570022255,123.51851930003613,123.58516210038215,123.63571720011532,123.63571720011532,123.63571720011532,123.63571720011532,123.68549300031736,123.68549300031736,123.68549300031736,123.68549300031736,123.68549300031736,123.68549300031736,123.68549300031736,123.68549300031736,123.68549300031736,left,1.423107999842614,125.13691799994558,125.13691799994558,None,,4,001,2025-12-16_17h08.15.316,2025C_exp1_comp,2022.2.4,59.79713211104799,
19.6,45,-1,1,0,38,38,38,125.13691799994558,125.13691799994558,125.63739260006696,125.70419760001823,125.75473950011656,125.75473950011656,125.75473950011656,125.75473950011656,125.80456469999626,125.80456469999626,125.80456469999626,125.80456469999626,125.80456469999626,125.80456469999626,125.80456469999626,125.80456469999626,125.80456469999626,right,0.9770156000740826,126.80524600017816,126.80524600017816,None,,4,001,2025-12-16_17h08.15.316,2025C_exp1_comp,2022.2.4,59.79713211104799,
35.3,45,1,0,0,39,39,24,126.80524600017816,126.80524600017816,127.30582110024989,127.37236770009622,127.4227032000199,127.4227032000199,127.4227032000199,127.4227032000199,127.47251450037584,127.47251450037584,127.47251450037584,127.47251450037584,127.47251450037584,127.47251450037584,127.47251450037584,127.47251450037584,127.47251450037584,left,1.8605578001588583,129.36600919999182,129.36600919999182,None,,4,001,2025-12-16_17h08.15.316,2025C_exp1_comp,2022.2.4,59.79713211104799,
25.5,45,1,0,0,40,40,22,129.36600919999182,129.36600919999182,129.85843210015446,129.92497680010274,129.97510000038892,129.97510000038892,129.97510000038892,129.97510000038892,130.02485170029104,130.02485170029104,130.02485170029104,130.02485170029104,130.02485170029104,130.02485170029104,130.0415611001663,130.0415611001663,130.0415611001663,left,1.9317962997592986,131.99370850017294,131.99370850017294,None,,4,001,2025-12-16_17h08.15.316,2025C_exp1_comp,2022.2.4,59.79713211104799,
15.7,45,1,-1,0,41,41,91,131.99370850017294,131.99370850017294,132.4942664001137,132.56108480039984,132.61122420011088,132.61122420011088,132.61122420011088,132.61122420011088,132.6611708002165,132.6611708002165,132.6611708002165,132.6611708002165,132.6611708002165,132.6611708002165,132.6611708002165,132.6611708002165,132.6611708002165,left,1.2081806003116071,133.895736400038,133.895736400038,None,,4,001,2025-12-16_17h08.15.316,2025C_exp1_comp,2022.2.4,59.79713211104799,
15.7,315,1,-1,0,42,42,100,133.895736400038,133.895736400038,134.39650550018996,134.46308170026168,134.51337280031294,134.51337280031294,134.51337280031294,134.51337280031294,134.56302050035447,134.56302050035447,134.56302050035447,134.56302050035447,134.56302050035447,134.56302050035447,134.56302050035447,134.56302050035447,134.56302050035447,left,0.9540630001574755,135.54725390020758,135.54725390020758,None,,4,001,2025-12-16_17h08.15.316,2025C_exp1_comp,2022.2.4,59.79713211104799,
15.7,315,1,0,0,43,43,28,135.54725390020758,135.54725390020758,136.04779650038108,136.11460640002042,136.1648913002573,136.1648913002573,136.1648913002573,136.1648913002573,136.2147905002348,136.2147905002348,136.2147905002348,136.2147905002348,136.2147905002348,136.2147905002348,136.2147905002348,136.2147905002348,136.2147905002348,left,1.1109274998307228,137.349043100141,137.349043100141,None,,4,001,2025-12-16_17h08.15.316,2025C_exp1_comp,2022.2.4,59.79713211104799,
25.5,315,1,1,0,44,44,67,137.349043100141,137.349043100141,137.84969790000468,137.9162910003215,137.9667110000737,137.9667110000737,137.9667110000737,137.9667110000737,138.01637350022793,138.01637350022793,138.01637350022793,138.01637350022793,138.01637350022793,138.01637350022793,138.01637350022793,138.01637350022793,138.01637350022793,right,1.4522255002520978,139.50119330035523,139.50119330035523,None,,4,001,2025-12-16_17h08.15.316,2025C_exp1_comp,2022.2.4,59.79713211104799,
39.2,45,-1,0,0,45,45,7,139.50119330035523,139.50119330035523,140.00187460007146,140.0685137002729,140.11874310020357,140.11874310020357,140.11874310020357,140.11874310020357,140.16865060012788,140.16865060012788,140.16865060012788,140.16865060012788,140.16865060012788,140.16865060012788,140.16865060012788,140.16865060012788,140.16865060012788,left,0.7732370002195239,140.96930290013552,140.96930290013552,None,,4,001,2025-12-16_17h08.15.316,2025C_exp1_comp,2022.2.4,59.79713211104799,
19.6,45,1,-1,0,46,46,92,140.96930290013552,140.96930290013552,141.4701082999818,141.5368381002918,141.58702930016443,141.58702930016443,141.58702930016443,141.58702930016443,141.63684380007908,141.63684380007908,141.63684380007908,141.63684380007908,141.63684380007908,141.63684380007908,141.63684380007908,141.63684380007908,141.63684380007908,left,0.7284978004172444,142.38729470036924,142.38729470036924,None,,4,001,2025-12-16_17h08.15.316,2025C_exp1_comp,2022.2.4,59.79713211104799,
29.4,315,1,-1,0,47,47,104,142.38729470036924,142.38729470036924,142.8877749000676,142.95445469999686,143.00478250021115,143.00478250021115,143.00478250021115,143.00478250021115,143.05466000037268,143.05466000037268,143.05466000037268,143.05466000037268,143.05466000037268,143.05466000037268,143.05466000037268,143.05466000037268,143.05466000037268,left,0.7176470998674631,143.80532590020448,143.80532590020448,None,,4,001,2025-12-16_17h08.15.316,2025C_exp1_comp,2022.2.4,59.79713211104799,
25.5,45,-1,1,0,48,48,40,143.80532590020448,143.80532590020448,144.30583260022104,144.3725443002768,144.42302460037172,144.42302460037172,144.42302460037172,144.42302460037172,144.4726877999492,144.4726877999492,144.4726877999492,144.4726877999492,144.4726877999492,144.4726877999492,144.4726877999492,144.4726877999492,144.4726877999492,left,1.2287929998710752,145.72417740011588,145.72417740011588,None,,4,001,2025-12-16_17h08.15.316,2025C_exp1_comp,2022.2.4,59.79713211104799,
29.4,45,-1,-1,0,49,49,77,145.72417740011588,145.72417740011588,146.22473290003836,146.29143150011078,146.3416702002287,146.3416702002287,146.3416702002287,146.3416702002287,146.3915562001057,146.3915562001057,146.3915562001057,146.3915562001057,146.3915562001057,146.3915562001057,146.3915562001057,146.3915562001057,146.3915562001057,left,1.7892360002733767,148.21006239997223,148.21006239997223,None,,4,001,2025-12-16_17h08.15.316,2025C_exp1_comp,2022.2.4,59.79713211104799,
19.6,315,-1,0,0,50,50,11,148.21006239997223,148.21006239997223,148.71056850021705,148.77717819996178,148.8276198003441,148.8276198003441,148.8276198003441,148.8276198003441,148.8774222000502,148.8774222000502,148.8774222000502,148.8774222000502,148.8774222000502,148.8774222000502,148.8774222000502,148.8774222000502,148.8774222000502,right,1.0801762999035418,149.9785806001164,149.9785806001164,None,,4,001,2025-12-16_17h08.15.316,2025C_exp1_comp,2022.2.4,59.79713211104799,
39.2,45,1,1,0,51,51,61,149.9785806001164,149.9785806001164,150.47903540031984,150.54579070024192,150.59598840028048,150.59598840028048,150.59598840028048,150.59598840028048,150.64552980009466,150.64552980009466,150.64552980009466,150.64552980009466,150.64552980009466,150.64552980009466,150.64552980009466,150.64552980009466,150.64552980009466,right,1.224564100150019,151.8971828999929,151.8971828999929,None,,4,001,2025-12-16_17h08.15.316,2025C_exp1_comp,2022.2.4,59.79713211104799,
15.7,315,-1,-1,0,52,52,82,151.8971828999929,151.8971828999929,152.3976374003105,152.46436290023848,152.5146729000844,152.5146729000844,152.5146729000844,152.5146729000844,152.56438240036368,152.56438240036368,152.56438240036368,152.56438240036368,152.56438240036368,152.56438240036368,152.56438240036368,152.56438240036368,152.56438240036368,right,1.0415002000518143,153.63211070001125,153.63211070001125,None,,4,001,2025-12-16_17h08.15.316,2025C_exp1_comp,2022.2.4,59.79713211104799,
42.7,45,1,1,0,53,53,62,153.63211070001125,153.63211070001125,154.13251820020378,154.19935940019786,154.24982669996098,154.24982669996098,154.24982669996098,154.24982669996098,154.2995522003621,154.2995522003621,154.2995522003621,154.2995522003621,154.2995522003621,154.2995522003621,154.2995522003621,154.2995522003621,154.2995522003621,right,1.8818851001560688,156.20140579994768,156.20140579994768,None,,4,001,2025-12-16_17h08.15.316,2025C_exp1_comp,2022.2.4,59.79713211104799,
19.6,315,1,1,0,54,54,65,156.20140579994768,156.20140579994768,156.70193680003285,156.7686877003871,156.81869930028915,156.81869930028915,156.81869930028915,156.81869930028915,156.86839910037816,156.86839910037816,156.86839910037816,156.86839910037816,156.86839910037816,156.86839910037816,156.86839910037816,156.86839910037816,156.86839910037816,left,1.03286960022524,157.91985930036753,157.91985930036753,None,,4,001,2025-12-16_17h08.15.316,2025C_exp1_comp,2022.2.4,59.79713211104799,
22.7,45,1,-1,0,55,55,93,157.91985930036753,157.91985930036753,158.42035990022123,158.4868602999486,158.53727540001273,158.53727540001273,158.53727540001273,158.53727540001273,158.58709500031546,158.58709500031546,158.58709500031546,158.58709500031546,158.58709500031546,158.58709500031546,158.58709500031546,158.58709500031546,158.58709500031546,left,0.8577332999557257,159.4712360999547,159.4712360999547,None,,4,001,2025-12-16_17h08.15.316,2025C_exp1_comp,2022.2.4,59.79713211104799,
35.3,45,1,-1,0,56,56,96,159.4712360999547,159.4712360999547,159.97181890020147,160.03853380028158,160.08867350034416,160.08867350034416,160.08867350034416,160.08867350034416,160.13847970031202,160.13847970031202,160.13847970031202,160.13847970031202,160.13847970031202,160.13847970031202,160.13847970031202,160.13847970031202,160.13847970031202,right,2.4425015999004245,162.60746320011094,162.60746320011094,None,,4,001,2025-12-16_17h08.15.316,2025C_exp1_comp,2022.2.4,59.79713211104799,
15.7,315,-1,1,0,57,57,46,162.60746320011094,162.60746320011094,163.10834920033813,163.17492160014808,163.22510810010135,163.22510810010135,163.22510810010135,163.22510810010135,163.27512070024386,163.27512070024386,163.27512070024386,163.27512070024386,163.27512070024386,163.27512070024386,163.27512070024386,163.27512070024386,163.27512070024386,right,0.7454852000810206,164.04269660031423,164.04269660031423,None,,4,001,2025-12-16_17h08.15.316,2025C_exp1_comp,2022.2.4,59.79713211104799,
25.5,45,-1,-1,0,58,58,76,164.04269660031423,164.04269660031423,164.54307450028136,164.6094979001209,164.6598429000005,164.6598429000005,164.6598429000005,164.6598429000005,164.70977420033887,164.70977420033887,164.70977420033887,164.70977420033887,164.70977420033887,164.70977420033887,164.70977420033887,164.70977420033887,164.70977420033887,right,0.7270287000574172,165.4604911999777,165.4604911999777,None,,4,001,2025-12-16_17h08.15.316,2025C_exp1_comp,2022.2.4,59.79713211104799,
12.1,315,-1,-1,0,59,59,81,165.4604911999777,165.4604911999777,165.9610708002001,166.02777509996668,166.07823100034148,166.07823100034148,166.07823100034148,166.07823100034148,166.1279865000397,166.1279865000397,166.1279865000397,166.1279865000397,166.1279865000397,166.1279865000397,166.1279865000397,166.1279865000397,166.1279865000397,right,0.7897893004119396,166.94530600029975,166.94530600029975,None,,4,001,2025-12-16_17h08.15.316,2025C_exp1_comp,2022.2.4,59.79713211104799,
29.4,45,1,-1,0,60,60,95,166.94530600029975,166.94530600029975,167.44593780022115,167.51268160017207,167.56295859999955,167.56295859999955,167.56295859999955,167.56295859999955,167.61284490022808,167.61284490022808,167.61284490022808,167.61284490022808,167.61284490022808,167.61284490022808,167.61284490022808,167.61284490022808,167.61284490022808,left,1.2090743002481759,168.84739040024579,168.84739040024579,None,,4,001,2025-12-16_17h08.15.316,2025C_exp1_comp,2022.2.4,59.79713211104799,
35.3,315,-1,-1,0,61,61,87,168.84739040024579,168.84739040024579,169.34762410027906,169.4144367002882,169.46477340022102,169.46477340022102,169.46477340022102,169.46477340022102,169.51465849997476,169.51465849997476,169.51465849997476,169.51465849997476,169.51465849997476,169.51465849997476,169.51465849997476,169.51465849997476,169.51465849997476,right,1.1698354999534786,170.71589200012386,170.71589200012386,None,,4,001,2025-12-16_17h08.15.316,2025C_exp1_comp,2022.2.4,59.79713211104799,
35.3,315,1,1,0,62,62,69,170.71589200012386,170.71589200012386,171.2162920003757,171.2831582003273,171.33339990023524,171.33339990023524,171.33339990023524,171.33339990023524,171.38326210016385,171.38326210016385,171.38326210016385,171.38326210016385,171.38326210016385,171.38326210016385,171.38326210016385,171.38326210016385,171.38326210016385,right,1.6534267999231815,173.06819440005347,173.06819440005347,None,,4,001,2025-12-16_17h08.15.316,2025C_exp1_comp,2022.2.4,59.79713211104799,
29.4,315,-1,1,0,63,63,50,173.06819440005347,173.06819440005347,173.5688044000417,173.63532130001113,173.68563780002296,173.68563780002296,173.68563780002296,173.68563780002296,173.73554520029575,173.73554520029575,173.73554520029575,173.73554520029575,173.73554520029575,173.73554520029575,173.73554520029575,173.73554520029575,173.73554520029575,right,1.493587499950081,175.2536797001958,175.2536797001958,None,,4,001,2025-12-16_17h08.15.316,2025C_exp1_comp,2022.2.4,59.79713211104799,
15.7,315,-1,0,0,64,64,10,175.2536797001958,175.2536797001958,175.75425130035728,175.82087040040642,175.87100830022246,175.87100830022246,175.87100830022246,175.87100830022246,175.9210637002252,175.9210637002252,175.9210637002252,175.9210637002252,175.9210637002252,175.9210637002252,175.9210637002252,175.9210637002252,175.9210637002252,right,0.8437043000012636,176.78868630016223,176.78868630016223,None,,4,001,2025-12-16_17h08.15.316,2025C_exp1_comp,2022.2.4,59.79713211104799,
22.7,45,1,1,0,65,65,57,176.78868630016223,176.78868630016223,177.2891262001358,177.35587770026177,177.40604040026665,177.40604040026665,177.40604040026665,177.40604040026665,177.4559335000813,177.4559335000813,177.4559335000813,177.4559335000813,177.4559335000813,177.4559335000813,177.4559335000813,177.4559335000813,177.4559335000813,left,0.7895725998096168,178.2734655002132,178.2734655002132,None,,4,001,2025-12-16_17h08.15.316,2025C_exp1_comp,2022.2.4,59.79713211104799,
39.2,315,-1,0,0,66,66,16,178.2734655002132,178.2734655002132,178.77412310009822,178.84070380032063,178.89101679995656,178.89101679995656,178.89101679995656,178.89101679995656,178.94089110009372,178.94089110009372,178.94089110009372,178.94089110009372,178.94089110009372,178.94089110009372,178.94089110009372,178.94089110009372,178.94089110009372,right,0.7355971001088619,179.70818850025535,179.70818850025535,None,,4,001,2025-12-16_17h08.15.316,2025C_exp1_comp,2022.2.4,59.79713211104799,
15.7,45,-1,1,0,67,67,37,179.70818850025535,179.70818850025535,180.2087139999494,180.27543730009347,180.32577260024846,180.32577260024846,180.32577260024846,180.32577260024846,180.37546600028872,180.37546600028872,180.37546600028872,180.37546600028872,180.37546600028872,180.37546600028872,180.37546600028872,180.37546600028872,180.37546600028872,right,0.6849405001848936,181.09276860021055,181.09276860021055,None,,4,001,2025-12-16_17h08.15.316,2025C_exp1_comp,2022.2.4,59.79713211104799,
29.4,315,1,1,0,68,68,68,181.09276860021055,181.09276860021055,181.59334939997643,181.66006920021027,181.71047500008717,181.71047500008717,181.71047500008717,181.71047500008717,181.76024540001526,181.76024540001526,181.76024540001526,181.76024540001526,181.76024540001526,181.76024540001526,181.76024540001526,181.76024540001526,181.76024540001526,right,0.7330791000276804,182.5110681001097,182.5110681001097,None,,4,001,2025-12-16_17h08.15.316,2025C_exp1_comp,2022.2.4,59.79713211104799,
39.2,45,1,0,0,69,69,25,182.5110681001097,182.5110681001097,183.01151200011373,183.0781507003121,183.12851840024814,183.12851840024814,183.12851840024814,183.12851840024814,183.17830430017784,183.17830430017784,183.17830430017784,183.17830430017784,183.17830430017784,183.17830430017784,183.17830430017784,183.17830430017784,183.17830430017784,left,1.5476116999052465,184.74657880002633,184.74657880002633,None,,4,001,2025-12-16_17h08.15.316,2025C_exp1_comp,2022.2.4,59.79713211104799,
42.7,45,-1,-1,0,70,70,80,184.74657880002633,184.74657880002633,185.24712470034137,185.31379869999364,185.36398040037602,185.36398040037602,185.36398040037602,185.36398040037602,185.41388879995793,185.41388879995793,185.41388879995793,185.41388879995793,185.41388879995793,185.41388879995793,185.41388879995793,185.41388879995793,185.41388879995793,left,0.9997956999577582,186.4315298004076,186.4315298004076,None,,4,001,2025-12-16_17h08.15.316,2025C_exp1_comp,2022.2.4,59.79713211104799,
22.7,45,1,0,0,71,71,21,186.4315298004076,186.4315298004076,186.93210760038346,186.99870370002463,187.04917280003428,187.04917280003428,187.04917280003428,187.04917280003428,187.09883680008352,187.09883680008352,187.09883680008352,187.09883680008352,187.09883680008352,187.09883680008352,187.09883680008352,187.09883680008352,187.09883680008352,left,1.1389827001839876,188.2666220003739,188.2666220003739,None,,4,001,2025-12-16_17h08.15.316,2025C_exp1_comp,2022.2.4,59.79713211104799,
12.1,45,-1,0,0,72,72,0,188.2666220003739,188.2666220003739,188.76728900009766,188.83400200027972,188.88438339997083,188.88438339997083,188.88438339997083,188.88438339997083,188.93420560006052,188.93420560006052,188.93420560006052,188.93420560006052,188.93420560006052,188.93420560006052,188.93420560006052,188.93420560006052,188.93420560006052,right,0.7190597001463175,189.68480580020696,189.68480580020696,None,,4,001,2025-12-16_17h08.15.316,2025C_exp1_comp,2022.2.4,59.79713211104799,
12.1,315,1,0,0,73,73,27,189.68480580020696,189.68480580020696,190.18505550036207,190.2517489003949,190.30205069994554,190.30205069994554,190.30205069994554,190.30205069994554,190.35218639997765,190.35218639997765,190.35218639997765,190.35218639997765,190.35218639997765,190.35218639997765,190.35218639997765,190.35218639997765,190.35218639997765,left,0.6126894997432828,190.98603080026805,190.98603080026805,None,,4,001,2025-12-16_17h08.15.316,2025C_exp1_comp,2022.2.4,59.79713211104799,
39.2,315,-1,1,0,74,74,52,190.98603080026805,190.98603080026805,191.48676320025697,191.55332780024037,191.60370900016278,191.60370900016278,191.60370900016278,191.60370900016278,191.6534925000742,191.6534925000742,191.6534925000742,191.6534925000742,191.6534925000742,191.6534925000742,191.6534925000742,191.6534925000742,191.6534925000742,left,0.9753664000891149,192.65450200019404,192.65450200019404,None,,4,001,2025-12-16_17h08.15.316,2025C_exp1_comp,2022.2.4,59.79713211104799,
42.7,315,-1,0,0,75,75,17,192.65450200019404,192.65450200019404,193.15489480039105,193.22170110000297,193.27193409996107,193.27193409996107,193.27193409996107,193.27193409996107,193.32168509997427,193.32168509997427,193.32168509997427,193.32168509997427,193.32168509997427,193.32168509997427,193.32168509997427,193.32168509997427,193.32168509997427,left,0.9388851001858711,194.28914640005678,194.28914640005678,None,,4,001,2025-12-16_17h08.15.316,2025C_exp1_comp,2022.2.4,59.79713211104799,
35.3,315,-1,1,0,76,76,51,194.28914640005678,194.28914640005678,194.79008600022644,194.85678220028058,194.90695030009374,194.90695030009374,194.90695030009374,194.90695030009374,194.9568839003332,194.9568839003332,194.9568839003332,194.9568839003332,194.9568839003332,194.9568839003332,194.9568839003332,194.9568839003332,194.9568839003332,right,0.7525845002382994,195.74095709994435,195.74095709994435,None,,4,001,2025-12-16_17h08.15.316,2025C_exp1_comp,2022.2.4,59.79713211104799,
12.1,315,1,-1,0,77,77,99,195.74095709994435,195.74095709994435,196.24116070009768,196.30803519999608,196.3581738001667,196.3581738001667,196.3581738001667,196.3581738001667,196.40790190035477,196.40790190035477,196.40790190035477,196.40790190035477,196.40790190035477,196.40790190035477,196.40790190035477,196.40790190035477,196.40790190035477,left,0.613962400238961,197.04195720003918,197.04195720003918,None,,4,001,2025-12-16_17h08.15.316,2025C_exp1_comp,2022.2.4,59.79713211104799,
35.3,45,-1,-1,0,78,78,78,197.04195720003918,197.04195720003918,197.542794900015,197.60953550040722,197.6598682999611,197.6598682999611,197.6598682999611,197.6598682999611,197.7096502999775,197.7096502999775,197.7096502999775,197.7096502999775,197.7096502999775,197.7096502999775,197.7096502999775,197.7096502999775,197.7096502999775,left,0.6628763000480831,198.3935756003484,198.3935756003484,None,,4,001,2025-12-16_17h08.15.316,2025C_exp1_comp,2022.2.4,59.79713211104799,
12.1,45,1,1,0,79,79,54,198.3935756003484,198.3935756003484,198.89413280040026,198.96080360002816,199.0112355002202,199.0112355002202,199.0112355002202,199.0112355002202,199.06092550000176,199.06092550000176,199.06092550000176,199.06092550000176,199.06092550000176,199.06092550000176,199.06092550000176,199.06092550000176,199.06092550000176,left,0.5845700995996594,199.67806000029668,199.67806000029668,None,,4,001,2025-12-16_17h08.15.316,2025C_exp1_comp,2022.2.4,59.79713211104799,
15.7,45,1,1,0,80,80,55,199.67806000029668,199.67806000029668,200.17875180020928,200.2452851003036,200.29541100002825,200.29541100002825,200.29541100002825,200.29541100002825,200.34535029996186,200.34535029996186,200.34535029996186,200.34535029996186,200.34535029996186,200.34535029996186,200.34535029996186,200.34535029996186,200.34535029996186,left,0.6353854998014867,201.0128208003007,201.0128208003007,None,,4,001,2025-12-16_17h08.15.316,2025C_exp1_comp,2022.2.4,59.79713211104799,
15.7,315,1,1,0,81,81,64,201.0128208003007,201.0128208003007,201.51339140022174,201.58005420025438,201.63039650022984,201.63039650022984,201.63039650022984,201.63039650022984,201.68011509999633,201.68011509999633,201.68011509999633,201.68011509999633,201.68011509999633,201.68011509999633,201.68011509999633,201.68011509999633,201.68011509999633,left,0.5730587998405099,202.28054970037192,202.28054970037192,None,,4,001,2025-12-16_17h08.15.316,2025C_exp1_comp,2022.2.4,59.79713211104799,
12.1,45,1,0,0,82,82,18,202.28054970037192,202.28054970037192,202.78106780024245,202.84800730040297,202.89809600031003,202.89809600031003,202.89809600031003,202.89809600031003,202.948108300101,202.948108300101,202.948108300101,202.948108300101,202.948108300101,202.948108300101,202.948108300101,202.948108300101,202.948108300101,left,0.5853157001547515,203.5654708002694,203.5654708002694,None,,4,001,2025-12-16_17h08.15.316,2025C_exp1_comp,2022.2.4,59.79713211104799,
22.7,315,-1,-1,0,83,83,84,203.5654708002694,203.5654708002694,204.065787400119,204.1325122001581,204.18292170017958,204.18292170017958,204.18292170017958,204.18292170017958,204.23274810006842,204.23274810006842,204.23274810006842,204.23274810006842,204.23274810006842,204.23274810006842,204.23274810006842,204.23274810006842,204.23274810006842,right,0.8451183997094631,205.10025590006262,205.10025590006262,None,,4,001,2025-12-16_17h08.15.316,2025C_exp1_comp,2022.2.4,59.79713211104799,
19.6,45,1,1,0,84,84,56,205.10025590006262,205.10025590006262,205.60063969995826,205.66750900028273,205.71782420016825,205.71782420016825,205.71782420016825,205.71782420016825,205.76759760035202,205.76759760035202,205.76759760035202,205.76759760035202,205.76759760035202,205.76759760035202,205.76759760035202,205.76759760035202,205.76759760035202,left,0.5813973001204431,206.36798350000754,206.36798350000754,None,,4,001,2025-12-16_17h08.15.316,2025C_exp1_comp,2022.2.4,59.79713211104799,
29.4,45,-1,0,0,85,85,5,206.36798350000754,206.36798350000754,206.8685449999757,206.93541870033368,206.9857057002373,206.9857057002373,206.9857057002373,206.9857057002373,207.03537179995328,207.03537179995328,207.03537179995328,207.03537179995328,207.03537179995328,207.03537179995328,207.03537179995328,207.03537179995328,207.03537179995328,left,0.8261283999308944,207.88630160037428,207.88630160037428,None,,4,001,2025-12-16_17h08.15.316,2025C_exp1_comp,2022.2.4,59.79713211104799,
29.4,315,-1,-1,0,86,86,86,207.88630160037428,207.88630160037428,208.38687290018424,208.4533504000865,208.50382530037314,208.50382530037314,208.50382530037314,208.50382530037314,208.55367840034887,208.55367840034887,208.55367840034887,208.55367840034887,208.55367840034887,208.55367840034887,208.55367840034887,208.55367840034887,208.55367840034887,right,0.8589946003630757,209.43791160034016,209.43791160034016,None,,4,001,2025-12-16_17h08.15.316,2025C_exp1_comp,2022.2.4,59.79713211104799,
22.7,45,-1,0,0,87,87,3,209.43791160034016,209.43791160034016,209.9383177002892,210.00498570036143,210.05541740031913,210.05541740031913,210.05541740031913,210.05541740031913,210.105271700304,210.105271700304,210.105271700304,210.105271700304,210.105271700304,210.105271700304,210.105271700304,210.105271700304,210.105271700304,right,0.8592848000116646,210.98947180015966,210.98947180015966,None,,4,001,2025-12-16_17h08.15.316,2025C_exp1_comp,2022.2.4,59.79713211104799,
42.7,315,1,-1,0,88,88,107,210.98947180015966,210.98947180015966,211.48988630017266,211.55657620029524,211.60700890002772,211.60700890002772,211.60700890002772,211.60700890002772,211.65681189997122,211.65681189997122,211.65681189997122,211.65681189997122,211.65681189997122,211.65681189997122,211.65681189997122,211.65681189997122,211.65681189997122,left,0.7248551999218762,212.40757820010185,212.40757820010185,None,,4,001,2025-12-16_17h08.15.316,2025C_exp1_comp,2022.2.4,59.79713211104799,
25.5,315,1,0,0,89,89,31,212.40757820010185,212.40757820010185,212.90806460008025,212.9748045001179,213.02506040036678,213.02506040036678,213.02506040036678,213.02506040036678,213.0746202999726,213.0746202999726,213.0746202999726,213.0746202999726,213.0746202999726,213.0746202999726,213.0746202999726,213.0746202999726,213.0746202999726,left,0.7786776996217668,213.87554380018264,213.87554380018264,None,,4,001,2025-12-16_17h08.15.316,2025C_exp1_comp,2022.2.4,59.79713211104799,
39.2,315,1,-1,0,90,90,106,213.87554380018264,213.87554380018264,214.37625760026276,214.44298070017248,214.49331560032442,214.49331560032442,214.49331560032442,214.49331560032442,214.5430446001701,214.5430446001701,214.5430446001701,214.5430446001701,214.5430446001701,214.5430446001701,214.5430446001701,214.5430446001701,214.5430446001701,right,0.9014067999087274,215.47714720014483,215.47714720014483,None,,4,001,2025-12-16_17h08.15.316,2025C_exp1_comp,2022.2.4,59.79713211104799,
42.7,45,-1,1,0,91,91,44,215.47714720014483,215.47714720014483,215.97788160014898,216.04463100014254,216.0948300003074,216.0948300003074,216.0948300003074,216.0948300003074,216.14474290004,216.14474290004,216.14474290004,216.14474290004,216.14474290004,216.14474290004,216.14474290004,216.14474290004,216.14474290004,left,0.6685054004192352,216.84509750036523,216.84509750036523,None,,4,001,2025-12-16_17h08.15.316,2025C_exp1_comp,2022.2.4,59.79713211104799,
25.5,315,-1,0,0,92,92,13,216.84509750036523,216.84509750036523,217.34580330038443,217.41254630032927,217.46282170014456,217.46282170014456,217.46282170014456,217.46282170014456,217.51268499996513,217.51268499996513,217.51268499996513,217.51268499996513,217.51268499996513,217.51268499996513,217.51268499996513,217.51268499996513,217.51268499996513,right,0.636996400076896,218.17991770012304,218.17991770012304,None,,4,001,2025-12-16_17h08.15.316,2025C_exp1_comp,2022.2.4,59.79713211104799,
22.7,45,-1,-1,0,93,93,75,218.17991770012304,218.17991770012304,218.68051900016144,218.74731800006703,218.79754530033097,218.79754530033097,218.79754530033097,218.79754530033097,218.84733360027894,218.84733360027894,218.84733360027894,218.84733360027894,218.84733360027894,218.84733360027894,218.84733360027894,218.84733360027894,218.84733360027894,right,0.7019925001077354,219.58123560016975,219.58123560016975,None,,4,001,2025-12-16_17h08.15.316,2025C_exp1_comp,2022.2.4,59.79713211104799,
35.3,45,-1,1,0,94,94,42,219.58123560016975,219.58123560016975,220.0819248999469,220.1486057001166,220.19882140029222,220.19882140029222,220.19882140029222,220.19882140029222,220.2486964999698,220.2486964999698,220.2486964999698,220.2486964999698,220.2486964999698,220.2486964999698,220.2486964999698,220.2486964999698,220.2486964999698,left,1.1329407002776861,221.39962790021673,221.39962790021673,None,,4,001,2025-12-16_17h08.15.316,2025C_exp1_comp,2022.2.4,59.79713211104799,
29.4,315,1,0,0,95,95,32,221.39962790021673,221.39962790021673,221.90032869996503,221.96709670033306,222.01751739997417,222.01751739997417,222.01751739997417,222.01751739997417,222.06722840014845,222.06722840014845,222.06722840014845,222.06722840014845,222.06722840014845,222.06722840014845,222.06722840014845,222.06722840014845,222.06722840014845,left,0.6257184003479779,222.7176177003421,222.7176177003421,None,,4,001,2025-12-16_17h08.15.316,2025C_exp1_comp,2022.2.4,59.79713211104799,
39.2,315,1,1,0,96,96,70,222.7176177003421,222.7176177003421,223.21840310003608,223.28513610037044,223.33538090018556,223.33538090018556,223.33538090018556,223.33538090018556,223.38523810030892,223.38523810030892,223.38523810030892,223.38523810030892,223.38523810030892,223.38523810030892,223.38523810030892,223.38523810030892,223.38523810030892,right,0.6673436001874506,224.08596540009603,224.08596540009603,None,,4,001,2025-12-16_17h08.15.316,2025C_exp1_comp,2022.2.4,59.79713211104799,
29.4,45,1,0,0,97,97,23,224.08596540009603,224.08596540009603,224.58642380032688,224.65314870001748,224.7033864003606,224.7033864003606,224.7033864003606,224.7033864003606,224.75304900016636,224.75304900016636,224.75304900016636,224.75304900016636,224.75304900016636,224.75304900016636,224.75304900016636,224.75304900016636,224.75304900016636,left,0.5713649997487664,225.35388890001923,225.35388890001923,None,,4,001,2025-12-16_17h08.15.316,2025C_exp1_comp,2022.2.4,59.79713211104799,
35.3,315,-1,0,0,98,98,15,225.35388890001923,225.35388890001923,225.85438260016963,225.92109140008688,225.97106759995222,225.97106759995222,225.97106759995222,225.97106759995222,226.02111460035667,226.02111460035667,226.02111460035667,226.02111460035667,226.02111460035667,226.02111460035667,226.02111460035667,226.02111460035667,226.02111460035667,right,0.7525117001496255,226.80508289998397,226.80508289998397,None,,4,001,2025-12-16_17h08.15.316,2025C_exp1_comp,2022.2.4,59.79713211104799,
19.6,45,-1,0,0,99,99,2,226.80508289998397,226.80508289998397,227.30571910040453,227.37250970024616,227.42280009994283,227.42280009994283,227.42280009994283,227.42280009994283,227.472654200159,227.472654200159,227.472654200159,227.472654200159,227.472654200159,227.472654200159,227.472654200159,227.472654200159,227.472654200159,right,0.6921970997937024,228.19000039994717,228.19000039994717,None,,4,001,2025-12-16_17h08.15.316,2025C_exp1_comp,2022.2.4,59.79713211104799,
15.7,45,-1,-1,0,100,100,73,228.19000039994717,228.19000039994717,228.6904188003391,228.75714360037819,228.8074226002209,228.8074226002209,228.8074226002209,228.8074226002209,228.8570632999763,228.8570632999763,228.8570632999763,228.8570632999763,228.8570632999763,228.8570632999763,228.8570632999763,228.8570632999763,228.8570632999763,left,0.7155488999560475,229.591198600363,229.591198600363,None,,4,001,2025-12-16_17h08.15.316,2025C_exp1_comp,2022.2.4,59.79713211104799,
42.7,45,1,-1,0,101,101,98,229.591198600363,229.591198600363,230.09158440027386,230.15851070033386,230.20898990007117,230.20898990007117,230.20898990007117,230.20898990007117,230.25896990019828,230.25896990019828,230.25896990019828,230.25896990019828,230.25896990019828,230.25896990019828,230.25896990019828,230.25896990019828,230.25896990019828,left,0.6176203000359237,230.90918490011245,230.90918490011245,None,,4,001,2025-12-16_17h08.15.316,2025C_exp1_comp,2022.2.4,59.79713211104799,
22.7,315,-1,1,0,102,102,48,230.90918490011245,230.90918490011245,231.4099030001089,231.47663510031998,231.52688710018992,231.52688710018992,231.52688710018992,231.52688710018992,231.57637650007382,231.57637650007382,231.57637650007382,231.57637650007382,231.57637650007382,231.57637650007382,231.57637650007382,231.57637650007382,231.57637650007382,right,0.6214123000390828,232.22716600028798,232.22716600028798,None,,4,001,2025-12-16_17h08.15.316,2025C_exp1_comp,2022.2.4,59.79713211104799,
22.7,315,1,-1,0,103,103,102,232.22716600028798,232.22716600028798,232.72774980030954,232.794594200328,232.84479440003633,232.84479440003633,232.84479440003633,232.84479440003633,232.89467790024355,232.89467790024355,232.89467790024355,232.89467790024355,232.89467790024355,232.89467790024355,232.89467790024355,232.89467790024355,232.89467790024355,left,0.5506253000348806,233.46191290020943,233.46191290020943,None,,4,001,2025-12-16_17h08.15.316,2025C_exp1_comp,2022.2.4,59.79713211104799,
42.7,315,1,1,0,104,104,71,233.46191290020943,233.46191290020943,233.96249780012295,234.028932900168,234.07917460007593,234.07917460007593,234.07917460007593,234.07917460007593,234.1292942003347,234.1292942003347,234.1292942003347,234.1292942003347,234.1292942003347,234.1292942003347,234.1292942003347,234.1292942003347,234.1292942003347,left,1.1880352003499866,235.34776830021292,235.34776830021292,None,,4,001,2025-12-16_17h08.15.316,2025C_exp1_comp,2022.2.4,59.79713211104799,
35.3,45,1,1,0,105,105,60,235.34776830021292,235.34776830021292,235.84742570016533,235.91406470024958,235.96457740012556,235.96457740012556,235.96457740012556,235.96457740012556,236.01471110014245,236.01471110014245,236.01471110014245,236.01471110014245,236.01471110014245,236.01471110014245,236.01471110014245,236.01471110014245,236.01471110014245,left,0.7268024999648333,236.7650955002755,236.7650955002755,None,,4,001,2025-12-16_17h08.15.316,2025C_exp1_comp,2022.2.4,59.79713211104799,
39.2,45,-1,-1,0,106,106,79,236.7650955002755,236.7650955002755,237.26560740033165,237.33243310032412,237.38278160011396,237.38278160011396,237.38278160011396,237.38278160011396,237.43255330016837,237.43255330016837,237.43255330016837,237.43255330016837,237.43255330016837,237.43255330016837,237.43255330016837,237.43255330016837,237.43255330016837,left,0.6132136001251638,238.06638540001586,238.06638540001586,None,,4,001,2025-12-16_17h08.15.316,2025C_exp1_comp,2022.2.4,59.79713211104799,
35.3,315,1,0,0,107,107,33,238.06638540001586,238.06638540001586,238.5670886002481,238.63383459998295,238.6839951002039,238.6839951002039,238.6839951002039,238.6839951002039,238.7339189001359,238.7339189001359,238.7339189001359,238.7339189001359,238.7339189001359,238.7339189001359,238.7339189001359,238.7339189001359,238.7339189001359,right,0.9514867002144456,239.71826740028337,239.71826740028337,space,3.023272099904716,4,001,2025-12-16_17h08.15.316,2025C_exp1_comp,2022.2.4,59.79713211104799,
15.7,45,1,0,1,0,108,19,242.77139950031415,242.77139950031415,243.27173530030996,243.3384426003322,243.38868740014732,243.38868740014732,243.38868740014732,243.38868740014732,243.43854360003024,243.43854360003024,243.43854360003024,243.43854360003024,243.43854360003024,243.43854360003024,243.43854360003024,243.43854360003024,243.43854360003024,left,1.5499301999807358,245.00667240004987,245.00667240004987,None,,4,001,2025-12-16_17h08.15.316,2025C_exp1_comp,2022.2.4,59.79713211104799,
19.6,45,-1,-1,1,1,109,74,245.00667240004987,245.00667240004987,245.50745639996603,245.57405550032854,245.62434630002826,245.62434630002826,245.62434630002826,245.62434630002826,245.67412490025163,245.67412490025163,245.67412490025163,245.67412490025163,245.67412490025163,245.67412490025163,245.67412490025163,245.67412490025163,245.67412490025163,right,0.5716011002659798,246.27473510010168,246.27473510010168,None,,4,001,2025-12-16_17h08.15.316,2025C_exp1_comp,2022.2.4,59.79713211104799,
42.7,45,-1,-1,1,2,110,80,246.27473510010168,246.27473510010168,246.77529080025852,246.8420120002702,246.89223830029368,246.89223830029368,246.89223830029368,246.89223830029368,246.94191820034757,246.94191820034757,246.94191820034757,246.94191820034757,246.94191820034757,246.94191820034757,246.94191820034757,246.94191820034757,246.94191820034757,left,0.5195832997560501,247.49262440018356,247.49262440018356,None,,4,001,2025-12-16_17h08.15.316,2025C_exp1_comp,2022.2.4,59.79713211104799,
15.7,315,1,0,1,3,111,28,247.49262440018356,247.49262440018356,247.9931439999491,248.0597439999692,248.11013750033453,248.11013750033453,248.11013750033453,248.11013750033453,248.15993730025366,248.15993730025366,248.15993730025366,248.15993730025366,248.15993730025366,248.15993730025366,248.15993730025366,248.15993730025366,248.15993730025366,left,0.5497627998702228,248.72736130002886,248.72736130002886,None,,4,001,2025-12-16_17h08.15.316,2025C_exp1_comp,2022.2.4,59.79713211104799,
25.5,315,-1,-1,1,4,112,85,248.72736130002886,248.72736130002886,249.22771920030937,249.2943569002673,249.34466970013455,249.34466970013455,249.34466970013455,249.34466970013455,249.39440850028768,249.39440850028768,249.39440850028768,249.39440850028768,249.39440850028768,249.39440850028768,249.39440850028768,249.39440850028768,249.39440850028768,right,0.5070171998813748,249.92835110006854,249.92835110006854,None,,4,001,2025-12-16_17h08.15.316,2025C_exp1_comp,2022.2.4,59.79713211104799,
42.7,45,-1,0,1,5,113,8,249.92835110006854,249.92835110006854,250.42896770033985,250.4956352999434,250.54596370039508,250.54596370039508,250.54596370039508,250.54596370039508,250.59574390016496,250.59574390016496,250.59574390016496,250.59574390016496,250.59574390016496,250.59574390016496,250.59574390016496,250.59574390016496,250.59574390016496,left,0.5462680999189615,251.1629909002222,251.1629909002222,None,,4,001,2025-12-16_17h08.15.316,2025C_exp1_comp,2022.2.4,59.79713211104799,
35.3,45,1,0,1,6,114,24,251.1629909002222,251.1629909002222,251.66334580024704,251.7302686003968,251.7806159001775,251.7806159001775,251.7806159001775,251.7806159001775,251.83040520036593,251.83040520036593,251.83040520036593,251.83040520036593,251.83040520036593,251.83040520036593,251.83040520036593,251.83040520036593,251.83040520036593,left,0.7982576000504196,252.64782040007412,252.64782040007412,None,,4,001,2025-12-16_17h08.15.316,2025C_exp1_comp,2022.2.4,59.79713211104799,
29.4,45,-1,0,1,7,115,5,252.64782040007412,252.64782040007412,253.14835250005126,253.21498290030286,253.26538490038365,253.26538490038365,253.26538490038365,253.26538490038365,253.31494420021772,253.31494420021772,253.31494420021772,253.31494420021772,253.31494420021772,253.31494420021772,253.31494420021772,253.31494420021772,253.31494420021772,left,0.7694620997644961,254.11592310015112,254.11592310015112,None,,4,001,2025-12-16_17h08.15.316,2025C_exp1_comp,2022.2.4,59.79713211104799,
12.1,45,-1,1,1,8,116,36,254.11592310015112,254.11592310015112,254.61644840007648,254.6830282001756,254.7334660999477,254.7334660999477,254.7334660999477,254.7334660999477,254.78326070029289,254.78326070029289,254.78326070029289,254.78326070029289,254.78326070029289,254.78326070029289,254.78326070029289,254.78326070029289,254.78326070029289,right,0.5823589996434748,255.38385790027678,255.38385790027678,None,,4,001,2025-12-16_17h08.15.316,2025C_exp1_comp,2022.2.4,59.79713211104799,
29.4,45,1,0,1,9,117,23,255.38385790027678,255.38385790027678,255.88435830036178,255.9509986001067,256.0013751001097,256.0013751001097,256.0013751001097,256.0013751001097,256.0511031001806,256.0511031001806,256.0511031001806,256.0511031001806,256.0511031001806,256.0511031001806,256.0511031001806,256.0511031001806,256.0511031001806,left,0.5627238000743091,256.6350835999474,256.6350835999474,None,,4,001,2025-12-16_17h08.15.316,2025C_exp1_comp,2022.2.4,59.79713211104799,
35.3,45,1,1,1,10,118,60,256.6350835999474,256.6350835999474,257.1356216003187,257.20231790002435,257.2526662000455,257.2526662000455,257.2526662000455,257.2526662000455,257.3024639999494,257.3024639999494,257.3024639999494,257.3024639999494,257.3024639999494,257.3024639999494,257.3024639999494,257.3024639999494,257.3024639999494,left,0.6309573999606073,257.9530724999495,257.9530724999495,None,,4,001,2025-12-16_17h08.15.316,2025C_exp1_comp,2022.2.4,59.79713211104799,
19.6,45,1,1,1,11,119,56,257.9530724999495,257.9530724999495,258.4537219000049,258.52042220020667,258.5707115000114,258.5707115000114,258.5707115000114,258.5707115000114,258.62037730030715,258.62037730030715,258.62037730030715,258.62037730030715,258.62037730030715,258.62037730030715,258.62037730030715,258.62037730030715,258.62037730030715,left,0.49655509972944856,259.1375234001316,259.1375234001316,None,,4,001,2025-12-16_17h08.15.316,2025C_exp1_comp,2022.2.4,59.79713211104799,
22.7,315,-1,1,1,12,120,48,259.1375234001316,259.1375234001316,259.6380826001987,259.7047548000701,259.7550745001063,259.7550745001063,259.7550745001063,259.7550745001063,259.8049356001429,259.8049356001429,259.8049356001429,259.8049356001429,259.8049356001429,259.8049356001429,259.8049356001429,259.8049356001429,259.8049356001429,right,0.52033849991858,260.35517510026693,260.35517510026693,None,,4,001,2025-12-16_17h08.15.316,2025C_exp1_comp,2022.2.4,59.79713211104799,
12.1,45,1,0,1,13,121,18,260.35517510026693,260.35517510026693,260.85587260033935,260.9225778002292,260.97293850034475,260.97293850034475,260.97293850034475,260.97293850034475,261.0228257002309,261.0228257002309,261.0228257002309,261.0228257002309,261.0228257002309,261.0228257002309,261.0228257002309,261.0228257002309,261.0228257002309,left,0.5265567000024021,261.5733432001434,261.5733432001434,None,,4,001,2025-12-16_17h08.15.316,2025C_exp1_comp,2022.2.4,59.79713211104799,
39.2,45,1,0,1,14,122,25,261.5733432001434,261.5733432001434,262.0738580999896,262.14048669999465,262.1907950001769,262.1907950001769,262.1907950001769,262.1907950001769,262.24075090000406,262.24075090000406,262.24075090000406,262.24075090000406,262.24075090000406,262.24075090000406,262.24075090000406,262.24075090000406,262.24075090000406,left,0.6840886999852955,262.94144450034946,262.94144450034946,None,,4,001,2025-12-16_17h08.15.316,2025C_exp1_comp,2022.2.4,59.79713211104799,
39.2,45,-1,0,1,15,123,7,262.94144450034946,262.94144450034946,263.44198290025815,263.50878780009225,263.56018429994583,263.56018429994583,263.56018429994583,263.56018429994583,263.60875530028716,263.60875530028716,263.60875530028716,263.60875530028716,263.60875530028716,263.60875530028716,263.60875530028716,263.60875530028716,263.60875530028716,left,0.5409058001823723,264.17605390027165,264.17605390027165,None,,4,001,2025-12-16_17h08.15.316,2025C_exp1_comp,2022.2.4,59.79713211104799,
19.6,315,-1,0,1,16,124,11,264.17605390027165,264.17605390027165,264.6764903999865,264.74310590000823,264.79345430014655,264.79345430014655,264.79345430014655,264.79345430014655,264.8433297001757,264.8433297001757,264.8433297001757,264.8433297001757,264.8433297001757,264.8433297001757,264.8433297001757,264.8433297001757,264.8433297001757,right,0.49072719970718026,265.36061720037833,265.36061720037833,None,,4,001,2025-12-16_17h08.15.316,2025C_exp1_comp,2022.2.4,59.79713211104799,
42.7,315,-1,1,1,17,125,53,265.36061720037833,265.36061720037833,265.8610022002831,265.92771260021254,265.9780080001801,265.9780080001801,265.9780080001801,265.9780080001801,266.02779740002006,266.02779740002006,266.02779740002006,266.02779740002006,266.02779740002006,266.02779740002006,266.02779740002006,266.02779740002006,266.02779740002006,left,0.8491952000185847,266.8952239002101,266.8952239002101,None,,4,001,2025-12-16_17h08.15.316,2025C_exp1_comp,2022.2.4,59.79713211104799,
19.6,315,-1,-1,1,18,126,83,266.8952239002101,266.8952239002101,267.39556010020897,267.4625865002163,267.51286800019443,267.51286800019443,267.51286800019443,267.51286800019443,267.56270250026137,267.56270250026137,267.56270250026137,267.56270250026137,267.56270250026137,267.56270250026137,267.56270250026137,267.56270250026137,267.56270250026137,right,0.5310884998179972,268.1130864000879,268.1130864000879,None,,4,001,2025-12-16_17h08.15.316,2025C_exp1_comp,2022.2.4,59.79713211104799,
15.7,315,-1,0,1,19,127,10,268.1130864000879,268.1130864000879,268.6137625002302,268.6803250000812,268.7307914001867,268.7307914001867,268.7307914001867,268.7307914001867,268.7804891001433,268.7804891001433,268.7804891001433,268.7804891001433,268.7804891001433,268.7804891001433,268.7804891001433,268.7804891001433,268.7804891001433,right,0.608909800183028,269.4146585003473,269.4146585003473,None,,4,001,2025-12-16_17h08.15.316,2025C_exp1_comp,2022.2.4,59.79713211104799,
35.3,315,1,-1,1,20,128,105,269.4146585003473,269.4146585003473,269.9148618001491,269.98175940010697,270.03204580023885,270.03204580023885,270.03204580023885,270.03204580023885,270.0818389002234,270.0818389002234,270.0818389002234,270.0818389002234,270.0818389002234,270.0818389002234,270.0818389002234,270.0818389002234,270.0818389002234,left,0.8354246998205781,270.9494260000065,270.9494260000065,None,,4,001,2025-12-16_17h08.15.316,2025C_exp1_comp,2022.2.4,59.79713211104799,
35.3,45,-1,1,1,21,129,42,270.9494260000065,270.9494260000065,271.4502511001192,271.5165210003033,271.5671328003518,271.5671328003518,271.5671328003518,271.5671328003518,271.61641380004585,271.61641380004585,271.61641380004585,271.61641380004585,271.61641380004585,271.61641380004585,271.61641380004585,271.61641380004585,271.61641380004585,left,0.6684373002499342,272.31729670008644,272.31729670008644,None,,4,001,2025-12-16_17h08.15.316,2025C_exp1_comp,2022.2.4,59.79713211104799,
42.7,45,1,1,1,22,130,62,272.31729670008644,272.31729670008644,272.8179494002834,272.8848173003644,272.9351103003137,272.9351103003137,272.9351103003137,272.9351103003137,272.984864000231,272.984864000231,272.984864000231,272.984864000231,272.984864000231,272.984864000231,272.984864000231,272.984864000231,272.984864000231,left,0.8928918000310659,273.9023476000875,273.9023476000875,None,,4,001,2025-12-16_17h08.15.316,2025C_exp1_comp,2022.2.4,59.79713211104799,
19.6,315,-1,1,1,23,131,47,273.9023476000875,273.9023476000875,274.4028235003352,274.4694838002324,274.5197829999961,274.5197829999961,274.5197829999961,274.5197829999961,274.5697072003968,274.5697072003968,274.5697072003968,274.5697072003968,274.5697072003968,274.5697072003968,274.5697072003968,274.5697072003968,274.5697072003968,right,0.4441328998655081,275.0367151000537,275.0367151000537,None,,4,001,2025-12-16_17h08.15.316,2025C_exp1_comp,2022.2.4,59.79713211104799,
12.1,315,1,0,1,24,132,27,275.0367151000537,275.0367151000537,275.53736210009083,275.60403180029243,275.65412460034713,275.65412460034713,275.65412460034713,275.65412460034713,275.70399940013885,275.70399940013885,275.70399940013885,275.70399940013885,275.70399940013885,275.70399940013885,275.70399940013885,275.70399940013885,275.70399940013885,left,0.5659960997290909,276.2882882002741,276.2882882002741,None,,4,001,2025-12-16_17h08.15.316,2025C_exp1_comp,2022.2.4,59.79713211104799,
22.7,45,-1,1,1,25,133,39,276.2882882002741,276.2882882002741,276.78857870027423,276.85532020032406,276.9055463001132,276.9055463001132,276.9055463001132,276.9055463001132,276.9554198002443,276.9554198002443,276.9554198002443,276.9554198002443,276.9554198002443,276.9554198002443,276.9554198002443,276.9554198002443,276.9554198002443,right,0.489043400157243,277.472588500008,277.472588500008,None,,4,001,2025-12-16_17h08.15.316,2025C_exp1_comp,2022.2.4,59.79713211104799,
39.2,45,-1,1,1,26,134,43,277.472588500008,277.472588500008,277.97296839999035,278.0397892999463,278.0900309002027,278.0900309002027,278.0900309002027,278.0900309002027,278.13975780038163,278.13975780038163,278.13975780038163,278.13975780038163,278.13975780038163,278.13975780038163,278.13975780038163,278.13975780038163,278.13975780038163,left,1.2740516001358628,279.4413502002135,279.4413502002135,None,,4,001,2025-12-16_17h08.15.316,2025C_exp1_comp,2022.2.4,59.79713211104799,
22.7,315,1,-1,1,27,135,102,279.4413502002135,279.4413502002135,279.94174490030855,280.00843410007656,280.0586822000332,280.0586822000332,280.0586822000332,280.0586822000332,280.1085311002098,280.1085311002098,280.1085311002098,280.1085311002098,280.1085311002098,280.1085311002098,280.1085311002098,280.1085311002098,280.1085311002098,left,0.5847092997282743,280.72564129997045,280.72564129997045,None,,4,001,2025-12-16_17h08.15.316,2025C_exp1_comp,2022.2.4,59.79713211104799,
15.7,45,-1,1,1,28,136,37,280.72564129997045,280.72564129997045,281.2263701003976,281.29307030001655,281.3432896002196,281.3432896002196,281.3432896002196,281.3432896002196,281.39320390019566,281.39320390019566,281.39320390019566,281.39320390019566,281.39320390019566,281.39320390019566,281.39320390019566,281.39320390019566,281.39320390019566,right,0.45168960001319647,281.87673960020766,281.87673960020766,None,,4,001,2025-12-16_17h08.15.316,2025C_exp1_comp,2022.2.4,59.79713211104799,
19.6,315,1,0,1,29,137,29,281.87673960020766,281.87673960020766,282.37740620039403,282.4441595999524,282.4944458999671,282.4944458999671,282.4944458999671,282.4944458999671,282.54415710037574,282.54415710037574,282.54415710037574,282.54415710037574,282.54415710037574,282.54415710037574,282.54415710037574,282.54415710037574,282.54415710037574,left,0.516845399979502,283.0780568001792,283.0780568001792,None,,4,001,2025-12-16_17h08.15.316,2025C_exp1_comp,2022.2.4,59.79713211104799,
15.7,315,-1,1,1,30,138,46,283.0780568001792,283.0780568001792,283.5787283000536,283.64557000016794,283.6958334003575,283.6958334003575,283.6958334003575,283.6958334003575,283.74540420016274,283.74540420016274,283.74540420016274,283.74540420016274,283.74540420016274,283.74540420016274,283.74540420016274,283.74540420016274,283.74540420016274,right,0.4190102997235954,284.1958334003575,284.1958334003575,None,,4,001,2025-12-16_17h08.15.316,2025C_exp1_comp,2022.2.4,59.79713211104799,
29.4,315,-1,1,1,31,139,50,284.1958334003575,284.1958334003575,284.6964870002121,284.76318600028753,284.81342040002346,284.81342040002346,284.81342040002346,284.81342040002346,284.8632995001972,284.8632995001972,284.8632995001972,284.8632995001972,284.8632995001972,284.8632995001972,284.8632995001972,284.8632995001972,284.8632995001972,right,0.6453087995760143,285.5307368002832,285.5307368002832,None,,4,001,2025-12-16_17h08.15.316,2025C_exp1_comp,2022.2.4,59.79713211104799,
42.7,45,-1,1,1,32,140,44,285.5307368002832,285.5307368002832,286.0309696001932,286.09785720007494,286.1481633000076,286.1481633000076,286.1481633000076,286.1481633000076,286.19794650003314,286.19794650003314,286.19794650003314,286.19794650003314,286.19794650003314,286.19794650003314,286.19794650003314,286.19794650003314,286.19794650003314,left,0.4396477001719177,286.6651040003635,286.6651040003635,None,,4,001,2025-12-16_17h08.15.316,2025C_exp1_comp,2022.2.4,59.79713211104799,
42.7,315,1,0,1,33,141,35,286.6651040003635,286.6651040003635,287.16560720000416,287.2323213000782,287.2826343001798,287.2826343001798,287.2826343001798,287.2826343001798,287.3324080002494,287.3324080002494,287.3324080002494,287.3324080002494,287.3324080002494,287.3324080002494,287.3324080002494,287.3324080002494,287.3324080002494,right,0.5368339000269771,287.8995251003653,287.8995251003653,None,,4,001,2025-12-16_17h08.15.316,2025C_exp1_comp,2022.2.4,59.79713211104799,
25.5,45,-1,0,1,34,142,4,287.8995251003653,287.8995251003653,288.40045500034466,288.46707760030404,288.51729049999267,288.51729049999267,288.51729049999267,288.51729049999267,288.56703180028126,288.56703180028126,288.56703180028126,288.56703180028126,288.56703180028126,288.56703180028126,288.56703180028126,288.56703180028126,288.56703180028126,right,0.502331200055778,289.10077770007774,289.10077770007774,None,,4,001,2025-12-16_17h08.15.316,2025C_exp1_comp,2022.2.4,59.79713211104799,
29.4,45,-1,-1,1,35,143,77,289.10077770007774,289.10077770007774,289.60121270036325,289.6681078001857,289.718411100097,289.718411100097,289.718411100097,289.718411100097,289.76819900004193,289.76819900004193,289.76819900004193,289.76819900004193,289.76819900004193,289.76819900004193,289.76819900004193,289.76819900004193,289.76819900004193,left,0.7491991999559104,290.5356236002408,290.5356236002408,None,,4,001,2025-12-16_17h08.15.316,2025C_exp1_comp,2022.2.4,59.79713211104799,
12.1,315,-1,1,1,36,144,45,290.5356236002408,290.5356236002408,291.03616140037775,291.10286840004846,291.1533221001737,291.1533221001737,291.1533221001737,291.1533221001737,291.2030499000102,291.2030499000102,291.2030499000102,291.2030499000102,291.2030499000102,291.2030499000102,291.2030499000102,291.2030499000102,291.2030499000102,right,0.46615329990163445,291.686819200404,291.686819200404,None,,4,001,2025-12-16_17h08.15.316,2025C_exp1_comp,2022.2.4,59.79713211104799,
39.2,45,1,1,1,37,145,61,291.686819200404,291.686819200404,292.1873664003797,292.2537487000227,292.3042485001497,292.3042485001497,292.3042485001497,292.3042485001497,292.35410580039024,292.35410580039024,292.35410580039024,292.35410580039024,292.35410580039024,292.35410580039024,292.35410580039024,292.35410580039024,292.35410580039024,right,0.5637137000449002,292.9379728003405,292.9379728003405,None,,4,001,2025-12-16_17h08.15.316,2025C_exp1_comp,2022.2.4,59.79713211104799,
22.7,45,-1,0,1,38,146,3,292.9379728003405,292.9379728003405,293.43856850033626,293.5052973004058,293.55565020022914,293.55565020022914,293.55565020022914,293.55565020022914,293.6053577000275,293.6053577000275,293.6053577000275,293.6053577000275,293.6053577000275,293.6053577000275,293.6053577000275,293.6053577000275,293.6053577000275,right,0.5270630000159144,294.15671510016546,294.15671510016546,None,,4,001,2025-12-16_17h08.15.316,2025C_exp1_comp,2022.2.4,59.79713211104799,
12.1,315,1,-1,1,39,147,99,294.15671510016546,294.15671510016546,294.6564418999478,294.72316349996254,294.7734537003562,294.7734537003562,294.7734537003562,294.7734537003562,294.82311110012233,294.82311110012233,294.82311110012233,294.82311110012233,294.82311110012233,294.82311110012233,294.82311110012233,294.82311110012233,294.82311110012233,left,0.49365130020305514,295.3403104003519,295.3403104003519,None,,4,001,2025-12-16_17h08.15.316,2025C_exp1_comp,2022.2.4,59.79713211104799,
39.2,315,1,-1,1,40,148,106,295.3403104003519,295.3403104003519,295.8409405001439,295.90753239998594,295.95797400036827,295.95797400036827,295.95797400036827,295.95797400036827,296.0076107000932,296.0076107000932,296.0076107000932,296.0076107000932,296.0076107000932,296.0076107000932,296.0076107000932,296.0076107000932,296.0076107000932,right,0.4455932001583278,296.47488270001486,296.47488270001486,None,,4,001,2025-12-16_17h08.15.316,2025C_exp1_comp,2022.2.4,59.79713211104799,
35.3,315,1,1,1,41,149,69,296.47488270001486,296.47488270001486,296.975433900021,297.0421217000112,297.09243640024215,297.09243640024215,297.09243640024215,297.09243640024215,297.142107100226,297.142107100226,297.142107100226,297.142107100226,297.142107100226,297.142107100226,297.142107100226,297.142107100226,297.142107100226,left,0.9910081000998616,298.1599517003633,298.1599517003633,None,,4,001,2025-12-16_17h08.15.316,2025C_exp1_comp,2022.2.4,59.79713211104799,
25.5,315,-1,1,1,42,150,49,298.1599517003633,298.1599517003633,298.66042810026556,298.72699740016833,298.77745799999684,298.77745799999684,298.77745799999684,298.77745799999684,298.82712720008567,298.82712720008567,298.82712720008567,298.82712720008567,298.82712720008567,298.82712720008567,298.82712720008567,298.82712720008567,298.82712720008567,right,0.5785465999506414,299.427889900282,299.427889900282,None,,4,001,2025-12-16_17h08.15.316,2025C_exp1_comp,2022.2.4,59.79713211104799,
22.7,45,-1,-1,1,43,151,75,299.427889900282,299.427889900282,299.92843620013446,299.995216100011,300.0455424999818,300.0455424999818,300.0455424999818,300.0455424999818,300.0951994000934,300.0951994000934,300.0951994000934,300.0951994000934,300.0951994000934,300.0951994000934,300.0951994000934,300.0951994000934,300.0951994000934,right,1.1098527000285685,301.22966720024124,301.22966720024124,None,,4,001,2025-12-16_17h08.15.316,2025C_exp1_comp,2022.2.4,59.79713211104799,
19.6,315,1,-1,1,44,152,101,301.22966720024124,301.22966720024124,301.7299609002657,301.79676860012114,301.84721710020676,301.84721710020676,301.84721710020676,301.84721710020676,301.8970155999996,301.8970155999996,301.8970155999996,301.8970155999996,301.8970155999996,301.8970155999996,301.8970155999996,301.8970155999996,301.8970155999996,left,0.5087834000587463,302.4308996000327,302.4308996000327,None,,4,001,2025-12-16_17h08.15.316,2025C_exp1_comp,2022.2.4,59.79713211104799,
12.1,45,1,-1,1,45,153,90,302.4308996000327,302.4308996000327,302.9313994999975,302.99822590034455,303.0484140999615,303.0484140999615,303.0484140999615,303.0484140999615,303.0982148000039,303.0982148000039,303.0982148000039,303.0982148000039,303.0982148000039,303.0982148000039,303.0982148000039,303.0982148000039,303.0982148000039,left,0.4990250999107957,303.6153897000477,303.6153897000477,None,,4,001,2025-12-16_17h08.15.316,2025C_exp1_comp,2022.2.4,59.79713211104799,
35.3,315,1,0,1,46,154,33,303.6153897000477,303.6153897000477,304.11578200012445,304.1825651000254,304.2329386002384,304.2329386002384,304.2329386002384,304.2329386002384,304.2827274003066,304.2827274003066,304.2827274003066,304.2827274003066,304.2827274003066,304.2827274003066,304.2827274003066,304.2827274003066,304.2827274003066,right,0.8591106003150344,305.166916300077,305.166916300077,None,,4,001,2025-12-16_17h08.15.316,2025C_exp1_comp,2022.2.4,59.79713211104799,
35.3,315,-1,0,1,47,155,15,305.166916300077,305.166916300077,305.66740670008585,305.73416820028797,305.78453569998965,305.78453569998965,305.78453569998965,305.78453569998965,305.83420220017433,305.83420220017433,305.83420220017433,305.83420220017433,305.83420220017433,305.83420220017433,305.83420220017433,305.83420220017433,305.83420220017433,left,1.1556402002461255,307.0187648003921,307.0187648003921,None,,4,001,2025-12-16_17h08.15.316,2025C_exp1_comp,2022.2.4,59.79713211104799,
39.2,315,-1,0,1,48,156,16,307.0187648003921,307.0187648003921,307.5193690001033,307.5861459001899,307.63633090024814,307.63633090024814,307.63633090024814,307.63633090024814,307.6861521000974,307.6861521000974,307.6861521000974,307.6861521000974,307.6861521000974,307.6861521000974,307.6861521000974,307.6861521000974,307.6861521000974,left,0.6231539999134839,308.33676740014926,308.33676740014926,None,,4,001,2025-12-16_17h08.15.316,2025C_exp1_comp,2022.2.4,59.79713211104799,
12.1,315,-1,-1,1,49,157,81,308.33676740014926,308.33676740014926,308.83731460012496,308.9037385000847,308.954330699984,308.954330699984,308.954330699984,308.954330699984,309.00411680014804,309.00411680014804,309.00411680014804,309.00411680014804,309.00411680014804,309.00411680014804,309.00411680014804,309.00411680014804,309.00411680014804,right,0.4815265997312963,309.5046279001981,309.5046279001981,None,,4,001,2025-12-16_17h08.15.316,2025C_exp1_comp,2022.2.4,59.79713211104799,
29.4,315,1,1,1,50,158,68,309.5046279001981,309.5046279001981,310.0048822001554,310.0715187001042,310.1218139999546,310.1218139999546,310.1218139999546,310.1218139999546,310.17179500032216,310.17179500032216,310.17179500032216,310.17179500032216,310.17179500032216,310.17179500032216,310.17179500032216,310.17179500032216,310.17179500032216,left,0.5769147002138197,310.77251330018044,310.77251330018044,None,,4,001,2025-12-16_17h08.15.316,2025C_exp1_comp,2022.2.4,59.79713211104799,
19.6,315,1,1,1,51,159,65,310.77251330018044,310.77251330018044,311.2732498999685,311.3399145002477,311.3903077002615,311.3903077002615,311.3903077002615,311.3903077002615,311.43988750036806,311.43988750036806,311.43988750036806,311.43988750036806,311.43988750036806,311.43988750036806,311.43988750036806,311.43988750036806,311.43988750036806,left,0.644932399969548,312.10707300016657,312.10707300016657,None,,4,001,2025-12-16_17h08.15.316,2025C_exp1_comp,2022.2.4,59.79713211104799,
35.3,315,-1,-1,1,52,160,87,312.10707300016657,312.10707300016657,312.60770180029795,312.6744098002091,312.724840100389,312.724840100389,312.724840100389,312.724840100389,312.7746290001087,312.7746290001087,312.7746290001087,312.7746290001087,312.7746290001087,312.7746290001087,312.7746290001087,312.7746290001087,312.7746290001087,left,0.6629661000333726,313.45853039994836,313.45853039994836,None,,4,001,2025-12-16_17h08.15.316,2025C_exp1_comp,2022.2.4,59.79713211104799,
42.7,315,-1,-1,1,53,161,89,313.45853039994836,313.45853039994836,313.95925110019743,314.0259635001421,314.0763137000613,314.0763137000613,314.0763137000613,314.0763137000613,314.1260707001202,314.1260707001202,314.1260707001202,314.1260707001202,314.1260707001202,314.1260707001202,314.1260707001202,314.1260707001202,314.1260707001202,left,0.7750880001112819,314.92674520006403,314.92674520006403,None,,4,001,2025-12-16_17h08.15.316,2025C_exp1_comp,2022.2.4,59.79713211104799,
15.7,315,-1,-1,1,54,162,82,314.92674520006403,314.92674520006403,315.42735370015725,315.49402870004997,315.5442384001799,315.5442384001799,315.5442384001799,315.5442384001799,315.5940376003273,315.5940376003273,315.5940376003273,315.5940376003273,315.5940376003273,315.5940376003273,315.5940376003273,315.5940376003273,315.5940376003273,right,0.6104596997611225,316.2279942003079,316.2279942003079,None,,4,001,2025-12-16_17h08.15.316,2025C_exp1_comp,2022.2.4,59.79713211104799,
29.4,315,-1,0,1,55,163,14,316.2279942003079,316.2279942003079,316.72850259998813,316.7951279003173,316.8455325001851,316.8455325001851,316.8455325001851,316.8455325001851,316.8953176001087,316.8953176001087,316.8953176001087,316.8953176001087,316.8953176001087,316.8953176001087,316.8953176001087,316.8953176001087,316.8953176001087,right,0.5497630001045763,317.46256280038506,317.46256280038506,None,,4,001,2025-12-16_17h08.15.316,2025C_exp1_comp,2022.2.4,59.79713211104799,
19.6,45,1,-1,1,56,164,92,317.46256280038506,317.46256280038506,317.96317260013893,318.02985780034214,318.0802225000225,318.0802225000225,318.0802225000225,318.0802225000225,318.13001300022006,318.13001300022006,318.13001300022006,318.13001300022006,318.13001300022006,318.13001300022006,318.13001300022006,318.13001300022006,318.13001300022006,left,0.659778299741447,318.813903900329,318.813903900329,None,,4,001,2025-12-16_17h08.15.316,2025C_exp1_comp,2022.2.4,59.79713211104799,
39.2,45,-1,-1,1,57,165,79,318.813903900329,318.813903900329,319.3142043002881,319.38118600007147,319.43158590001985,319.43158590001985,319.43158590001985,319.43158590001985,319.4813127000816,319.4813127000816,319.4813127000816,319.4813127000816,319.4813127000816,319.4813127000816,319.4813127000816,319.4813127000816,319.4813127000816,left,0.8759885001927614,320.38213880034164,320.38213880034164,None,,4,001,2025-12-16_17h08.15.316,2025C_exp1_comp,2022.2.4,59.79713211104799,
12.1,45,-1,-1,1,58,166,72,320.38213880034164,320.38213880034164,320.8827895000577,320.94938560016453,320.9996893000789,320.9996893000789,320.9996893000789,320.9996893000789,321.0495612001978,321.0495612001978,321.0495612001978,321.0495612001978,321.0495612001978,321.0495612001978,321.0495612001978,321.0495612001978,321.0495612001978,right,0.5482141003012657,321.61657240008935,321.61657240008935,None,,4,001,2025-12-16_17h08.15.316,2025C_exp1_comp,2022.2.4,59.79713211104799,
39.2,315,-1,-1,1,59,167,88,321.61657240008935,321.61657240008935,322.1170783000998,322.18396810023114,322.2342119002715,322.2342119002715,322.2342119002715,322.2342119002715,322.28402250027284,322.28402250027284,322.28402250027284,322.28402250027284,322.28402250027284,322.28402250027284,322.28402250027284,322.28402250027284,322.28402250027284,left,1.3209309997037053,323.6352393999696,323.6352393999696,None,,4,001,2025-12-16_17h08.15.316,2025C_exp1_comp,2022.2.4,59.79713211104799,
42.7,45,1,0,1,60,168,26,323.6352393999696,323.6352393999696,324.1358626000583,324.20255229994655,324.25297640031204,324.25297640031204,324.25297640031204,324.25297640031204,324.30250480026007,324.30250480026007,324.30250480026007,324.30250480026007,324.30250480026007,324.30250480026007,324.30250480026007,324.30250480026007,324.30250480026007,left,0.8700410001911223,325.2036320003681,325.2036320003681,None,,4,001,2025-12-16_17h08.15.316,2025C_exp1_comp,2022.2.4,59.79713211104799,
25.5,315,1,0,1,61,169,31,325.2036320003681,325.2036320003681,325.7041934002191,325.77075470006093,325.8211614000611,325.8211614000611,325.8211614000611,325.8211614000611,325.8709722002968,325.8709722002968,325.8709722002968,325.8709722002968,325.8709722002968,325.8709722002968,325.8709722002968,325.8709722002968,325.8709722002968,left,0.8786304998211563,326.77172720013186,326.77172720013186,None,,4,001,2025-12-16_17h08.15.316,2025C_exp1_comp,2022.2.4,59.79713211104799,
42.7,315,-1,0,1,62,170,17,326.77172720013186,326.77172720013186,327.2724216002971,327.3391339001246,327.3894016002305,327.3894016002305,327.3894016002305,327.3894016002305,327.43921900028363,327.43921900028363,327.43921900028363,327.43921900028363,327.43921900028363,327.43921900028363,327.43921900028363,327.43921900028363,327.43921900028363,right,0.7424141000956297,328.206489500124,328.206489500124,None,,4,001,2025-12-16_17h08.15.316,2025C_exp1_comp,2022.2.4,59.79713211104799,
35.3,45,-1,0,1,63,171,6,328.206489500124,328.206489500124,328.70703659998253,328.77365510025993,328.8239515000023,328.8239515000023,328.8239515000023,328.8239515000023,328.8739447002299,328.8739447002299,328.8739447002299,328.8739447002299,328.8739447002299,328.8739447002299,328.8739447002299,328.8739447002299,328.8739447002299,left,0.5798585000447929,329.47448510024697,329.47448510024697,None,,4,001,2025-12-16_17h08.15.316,2025C_exp1_comp,2022.2.4,59.79713211104799,
25.5,315,1,1,1,64,172,67,329.47448510024697,329.47448510024697,329.97509400034323,330.04179100040346,330.0920577002689,330.0920577002689,330.0920577002689,330.0920577002689,330.14182850020006,330.14182850020006,330.14182850020006,330.14182850020006,330.14182850020006,330.14182850020006,330.14182850020006,330.14182850020006,330.14182850020006,right,0.8313584998250008,330.9927239003591,330.9927239003591,None,,4,001,2025-12-16_17h08.15.316,2025C_exp1_comp,2022.2.4,59.79713211104799,
12.1,315,1,1,1,65,173,63,330.9927239003591,330.9927239003591,331.4933780003339,331.5601097000763,331.6101788999513,331.6101788999513,331.6101788999513,331.6101788999513,331.6600684002042,331.6600684002042,331.6600684002042,331.6600684002042,331.6600684002042,331.6600684002042,331.6600684002042,331.6600684002042,331.6600684002042,left,0.5846788003109396,332.2774235000834,332.2774235000834,None,,4,001,2025-12-16_17h08.15.316,2025C_exp1_comp,2022.2.4,59.79713211104799,
22.7,315,1,0,1,66,174,30,332.2774235000834,332.2774235000834,332.7779251001775,332.84463790012524,332.89485360030085,332.89485360030085,332.89485360030085,332.89485360030085,332.94458620017394,332.94458620017394,332.94458620017394,332.94458620017394,332.94458620017394,332.94458620017394,332.94458620017394,332.94458620017394,332.94458620017394,left,0.6366054997779429,333.61185920005664,333.61185920005664,None,,4,001,2025-12-16_17h08.15.316,2025C_exp1_comp,2022.2.4,59.79713211104799,
35.3,45,1,-1,1,67,175,96,333.61185920005664,333.61185920005664,334.1125795003027,334.17919100029394,334.2294650999829,334.2294650999829,334.2294650999829,334.2294650999829,334.279397000093,334.279397000093,334.279397000093,334.279397000093,334.279397000093,334.279397000093,334.279397000093,334.279397000093,334.279397000093,left,1.7169169001281261,336.0144372000359,336.0144372000359,None,,4,001,2025-12-16_17h08.15.316,2025C_exp1_comp,2022.2.4,59.79713211104799,
22.7,315,1,1,1,68,176,66,336.0144372000359,336.0144372000359,336.5149755002931,336.5816838000901,336.6319973003119,336.6319973003119,336.6319973003119,336.6319973003119,336.68178960029036,336.68178960029036,336.68178960029036,336.68178960029036,336.68178960029036,336.68178960029036,336.68178960029036,336.68178960029036,336.68178960029036,left,0.8194598001427948,337.53261899994686,337.53261899994686,None,,4,001,2025-12-16_17h08.15.316,2025C_exp1_comp,2022.2.4,59.79713211104799,
19.6,45,-1,1,1,69,177,38,337.53261899994686,337.53261899994686,338.0328312003985,338.0998480003327,338.1500678001903,338.1500678001903,338.1500678001903,338.1500678001903,338.20004840008914,338.20004840008914,338.20004840008914,338.20004840008914,338.20004840008914,338.20004840008914,338.20004840008914,338.20004840008914,338.20004840008914,right,0.7250804002396762,338.95082100015134,338.95082100015134,None,,4,001,2025-12-16_17h08.15.316,2025C_exp1_comp,2022.2.4,59.79713211104799,
19.6,45,-1,0,1,70,178,2,338.95082100015134,338.95082100015134,339.4514366001822,339.5181626002304,339.56847320031375,339.56847320031375,339.56847320031375,339.56847320031375,339.6182408002205,339.6182408002205,339.6182408002205,339.6182408002205,339.6182408002205,339.6182408002205,339.6182408002205,339.6182408002205,339.6182408002205,right,0.6186672998592257,340.26853530015796,340.26853530015796,None,,4,001,2025-12-16_17h08.15.316,2025C_exp1_comp,2022.2.4,59.79713211104799,
12.1,45,-1,0,1,71,179,0,340.26853530015796,340.26853530015796,340.7690749000758,340.8357963003218,340.8862461000681,340.8862461000681,340.8862461000681,340.8862461000681,340.93589800037444,340.93589800037444,340.93589800037444,340.93589800037444,340.93589800037444,340.93589800037444,340.93589800037444,340.93589800037444,340.93589800037444,right,0.5568234999664128,341.51992650004104,341.51992650004104,None,,4,001,2025-12-16_17h08.15.316,2025C_exp1_comp,2022.2.4,59.79713211104799,
25.5,45,-1,-1,1,72,180,76,341.51992650004104,341.51992650004104,342.0204524002038,342.0870458004065,342.1373499999754,342.1373499999754,342.1373499999754,342.1373499999754,342.1869912003167,342.1869912003167,342.1869912003167,342.1869912003167,342.1869912003167,342.1869912003167,342.1869912003167,342.1869912003167,342.1869912003167,left,1.2020049998536706,343.4052821001969,343.4052821001969,None,,4,001,2025-12-16_17h08.15.316,2025C_exp1_comp,2022.2.4,59.79713211104799,
25.5,45,1,0,1,73,181,22,343.4052821001969,343.4052821001969,343.90557479998097,343.9722742000595,344.0227106004022,344.0227106004022,344.0227106004022,344.0227106004022,344.0725426999852,344.0725426999852,344.0725426999852,344.0725426999852,344.0725426999852,344.0725426999852,344.0725426999852,344.0725426999852,344.0725426999852,left,0.9003805001266301,344.99005539994687,344.99005539994687,None,,4,001,2025-12-16_17h08.15.316,2025C_exp1_comp,2022.2.4,59.79713211104799,
12.1,45,1,1,1,74,182,54,344.99005539994687,344.99005539994687,345.4903975003399,345.55732000013813,345.6075931000523,345.6075931000523,345.6075931000523,345.6075931000523,345.65738180000335,345.65738180000335,345.65738180000335,345.65738180000335,345.65738180000335,345.65738180000335,345.65738180000335,345.65738180000335,345.65738180000335,left,0.5714528001844883,346.25804940005764,346.25804940005764,None,,4,001,2025-12-16_17h08.15.316,2025C_exp1_comp,2022.2.4,59.79713211104799,
12.1,315,-1,0,1,75,183,9,346.25804940005764,346.25804940005764,346.7586257001385,346.8252525003627,346.8756842999719,346.8756842999719,346.8756842999719,346.8756842999719,346.92543489998206,346.92543489998206,346.92543489998206,346.92543489998206,346.92543489998206,346.92543489998206,346.92543489998206,346.92543489998206,346.92543489998206,right,0.4635624997317791,347.40917740017176,347.40917740017176,None,,4,001,2025-12-16_17h08.15.316,2025C_exp1_comp,2022.2.4,59.79713211104799,
29.4,315,1,0,1,76,184,32,347.40917740017176,347.40917740017176,347.9096777001396,347.97630630014464,348.026742500253,348.026742500253,348.026742500253,348.026742500253,348.0765360002406,348.0765360002406,348.0765360002406,348.0765360002406,348.0765360002406,348.0765360002406,348.0765360002406,348.0765360002406,348.0765360002406,left,0.696682299952954,348.7938589002006,348.7938589002006,None,,4,001,2025-12-16_17h08.15.316,2025C_exp1_comp,2022.2.4,59.79713211104799,
29.4,45,-1,1,1,77,185,41,348.7938589002006,348.7938589002006,349.2942433003336,349.3610841999762,349.4114013002254,349.4114013002254,349.4114013002254,349.4114013002254,349.46120470017195,349.46120470017195,349.46120470017195,349.46120470017195,349.46120470017195,349.46120470017195,349.46120470017195,349.46120470017195,349.46120470017195,right,0.5198941002599895,350.0117108002305,350.0117108002305,None,,4,001,2025-12-16_17h08.15.316,2025C_exp1_comp,2022.2.4,59.79713211104799,
15.7,45,-1,-1,1,78,186,73,350.0117108002305,350.0117108002305,350.5122870001942,350.5789509001188,350.6293150000274,350.6293150000274,350.6293150000274,350.6293150000274,350.6791847003624,350.6791847003624,350.6791847003624,350.6791847003624,350.6791847003624,350.6791847003624,350.6791847003624,350.6791847003624,350.6791847003624,right,0.661412600427866,351.3631140002981,351.3631140002981,None,,4,001,2025-12-16_17h08.15.316,2025C_exp1_comp,2022.2.4,59.79713211104799,
25.5,315,-1,0,1,79,187,13,351.3631140002981,351.3631140002981,351.8636040003039,351.9303496000357,351.9806202002801,351.9806202002801,351.9806202002801,351.9806202002801,352.03044190024957,352.03044190024957,352.03044190024957,352.03044190024957,352.03044190024957,352.03044190024957,352.03044190024957,352.03044190024957,352.03044190024957,right,0.5344096999615431,352.59739490039647,352.59739490039647,None,,4,001,2025-12-16_17h08.15.316,2025C_exp1_comp,2022.2.4,59.79713211104799,
29.4,315,-1,-1,1,80,188,86,352.59739490039647,352.59739490039647,353.09820050001144,353.1647200002335,353.2152239000425,353.2152239000425,353.2152239000425,353.2152239000425,353.2649999000132,353.2649999000132,353.2649999000132,353.2649999000132,353.2649999000132,353.2649999000132,353.2649999000132,353.2649999000132,353.2649999000132,right,0.7888173996470869,354.0824659001082,354.0824659001082,None,,4,001,2025-12-16_17h08.15.316,2025C_exp1_comp,2022.2.4,59.79713211104799,
35.3,315,-1,1,1,81,189,51,354.0824659001082,354.0824659001082,354.58300040010363,354.6496757999994,354.69972190028057,354.69972190028057,354.69972190028057,354.69972190028057,354.74977490026504,354.74977490026504,354.74977490026504,354.74977490026504,354.74977490026504,354.74977490026504,354.74977490026504,354.74977490026504,354.74977490026504,right,0.47878170013427734,355.25032790005207,355.25032790005207,None,,4,001,2025-12-16_17h08.15.316,2025C_exp1_comp,2022.2.4,59.79713211104799,
29.4,45,1,1,1,82,190,59,355.25032790005207,355.25032790005207,355.7508392003365,355.81770430039614,355.8679770003073,355.8679770003073,355.8679770003073,355.8679770003073,355.9176850002259,355.9176850002259,355.9176850002259,355.9176850002259,355.9176850002259,355.9176850002259,355.9176850002259,355.9176850002259,355.9176850002259,left,0.6069705998525023,356.5516207003966,356.5516207003966,None,,4,001,2025-12-16_17h08.15.316,2025C_exp1_comp,2022.2.4,59.79713211104799,
25.5,45,1,-1,1,83,191,94,356.5516207003966,356.5516207003966,357.05219059996307,357.1188584002666,357.16926850005984,357.16926850005984,357.16926850005984,357.16926850005984,357.21905060019344,357.21905060019344,357.21905060019344,357.21905060019344,357.21905060019344,357.21905060019344,357.21905060019344,357.21905060019344,357.21905060019344,left,0.6896600998006761,357.93634810019284,357.93634810019284,None,,4,001,2025-12-16_17h08.15.316,2025C_exp1_comp,2022.2.4,59.79713211104799,
39.2,315,-1,1,1,84,192,52,357.93634810019284,357.93634810019284,358.43692580005154,358.503605700098,358.553826500196,358.553826500196,358.553826500196,358.553826500196,358.60368610033765,358.60368610033765,358.60368610033765,358.60368610033765,358.60368610033765,358.60368610033765,358.60368610033765,358.60368610033765,358.60368610033765,right,0.8175340997986495,359.4375253999606,359.4375253999606,None,,4,001,2025-12-16_17h08.15.316,2025C_exp1_comp,2022.2.4,59.79713211104799,
15.7,45,1,1,1,85,193,55,359.4375253999606,359.4375253999606,359.9383601001464,360.00520669994876,360.05554480012506,360.05554480012506,360.05554480012506,360.05554480012506,360.105061000213,360.105061000213,360.105061000213,360.105061000213,360.105061000213,360.105061000213,360.105061000213,360.105061000213,360.105061000213,left,0.7074806001037359,360.8392020999454,360.8392020999454,None,,4,001,2025-12-16_17h08.15.316,2025C_exp1_comp,2022.2.4,59.79713211104799,
42.7,315,1,-1,1,86,194,107,360.8392020999454,360.8392020999454,361.3397633000277,361.40639710007235,361.45665210019797,361.45665210019797,361.45665210019797,361.45665210019797,361.5067337001674,361.5067337001674,361.5067337001674,361.5067337001674,361.5067337001674,361.5067337001674,361.5067337001674,361.5067337001674,361.5067337001674,left,1.2262961002998054,362.7578033003956,362.7578033003956,None,,4,001,2025-12-16_17h08.15.316,2025C_exp1_comp,2022.2.4,59.79713211104799,
29.4,45,1,-1,1,87,195,95,362.7578033003956,362.7578033003956,363.2584335003048,363.3250494003296,363.3754973001778,363.3754973001778,363.3754973001778,363.3754973001778,363.42518480028957,363.42518480028957,363.42518480028957,363.42518480028957,363.42518480028957,363.42518480028957,363.42518480028957,363.42518480028957,363.42518480028957,left,0.6195418001152575,364.0758805000223,364.0758805000223,None,,4,001,2025-12-16_17h08.15.316,2025C_exp1_comp,2022.2.4,59.79713211104799,
42.7,315,1,1,1,88,196,71,364.0758805000223,364.0758805000223,364.57640000013635,364.64310330012813,364.69323690002784,364.69323690002784,364.69323690002784,364.69323690002784,364.7432039002888,364.7432039002888,364.7432039002888,364.7432039002888,364.7432039002888,364.7432039002888,364.7432039002888,364.7432039002888,364.7432039002888,right,0.5176652004010975,365.2937046000734,365.2937046000734,None,,4,001,2025-12-16_17h08.15.316,2025C_exp1_comp,2022.2.4,59.79713211104799,
39.2,315,1,0,1,89,197,34,365.2937046000734,365.2937046000734,365.79420850006863,365.8609192003496,365.9111100002192,365.9111100002192,365.9111100002192,365.9111100002192,365.96101310011,365.96101310011,365.96101310011,365.96101310011,365.96101310011,365.96101310011,365.96101310011,365.96101310011,365.96101310011,left,0.9795754002407193,366.9619184001349,366.9619184001349,None,,4,001,2025-12-16_17h08.15.316,2025C_exp1_comp,2022.2.4,59.79713211104799,
29.4,315,1,-1,1,90,198,104,366.9619184001349,366.9619184001349,367.46247650031,367.52928260015324,367.579403700307,367.579403700307,367.579403700307,367.579403700307,367.6292201001197,367.6292201001197,367.6292201001197,367.6292201001197,367.6292201001197,367.6292201001197,367.6292201001197,367.6292201001197,367.6292201001197,left,0.6163337002508342,368.263339899946,368.263339899946,None,,4,001,2025-12-16_17h08.15.316,2025C_exp1_comp,2022.2.4,59.79713211104799,
39.2,45,1,-1,1,91,199,97,368.263339899946,368.263339899946,368.7638535001315,368.83047420019284,368.8808511001989,368.8808511001989,368.8808511001989,368.8808511001989,368.9306904003024,368.9306904003024,368.9306904003024,368.9306904003024,368.9306904003024,368.9306904003024,368.9306904003024,368.9306904003024,368.9306904003024,left,0.810879800003022,369.76481870003045,369.76481870003045,None,,4,001,2025-12-16_17h08.15.316,2025C_exp1_comp,2022.2.4,59.79713211104799,
25.5,315,1,-1,1,92,200,103,369.76481870003045,369.76481870003045,370.2651979001239,370.33174630021676,370.3821696001105,370.3821696001105,370.3821696001105,370.3821696001105,370.43214920023456,370.43214920023456,370.43214920023456,370.43214920023456,370.43214920023456,370.43214920023456,370.43214920023456,370.43214920023456,370.43214920023456,left,0.7965654004365206,371.2495506000705,371.2495506000705,None,,4,001,2025-12-16_17h08.15.316,2025C_exp1_comp,2022.2.4,59.79713211104799,
25.5,45,1,1,1,93,201,58,371.2495506000705,371.2495506000705,371.7501680003479,371.8168840999715,371.8673535003327,371.8673535003327,371.8673535003327,371.8673535003327,371.9170932001434,371.9170932001434,371.9170932001434,371.9170932001434,371.9170932001434,371.9170932001434,371.9170932001434,371.9170932001434,371.9170932001434,left,0.743661499582231,372.68446270003915,372.68446270003915,None,,4,001,2025-12-16_17h08.15.316,2025C_exp1_comp,2022.2.4,59.79713211104799,
15.7,45,-1,0,1,94,202,1,372.68446270003915,372.68446270003915,373.18482580035925,373.25168630015105,373.3018750003539,373.3018750003539,373.3018750003539,373.3018750003539,373.3517761002295,373.3517761002295,373.3517761002295,373.3517761002295,373.3517761002295,373.3517761002295,373.3517761002295,373.3517761002295,373.3517761002295,right,0.5727377999573946,373.9522494999692,373.9522494999692,None,,4,001,2025-12-16_17h08.15.316,2025C_exp1_comp,2022.2.4,59.79713211104799,
22.7,45,1,-1,1,95,203,93,373.9522494999692,373.9522494999692,374.452874599956,374.5195863000117,374.5698611000553,374.5698611000553,374.5698611000553,374.5698611000553,374.6196956001222,374.6196956001222,374.6196956001222,374.6196956001222,374.6196956001222,374.6196956001222,374.6196956001222,374.6196956001222,374.6196956001222,left,0.7130385003983974,375.3537718001753,375.3537718001753,None,,4,001,2025-12-16_17h08.15.316,2025C_exp1_comp,2022.2.4,59.79713211104799,
19.6,45,1,0,1,96,204,20,375.3537718001753,375.3537718001753,375.8542568003759,375.9209547000937,375.9713058001362,375.9713058001362,375.9713058001362,375.9713058001362,376.02106590010226,376.02106590010226,376.02106590010226,376.02106590010226,376.02106590010226,376.02106590010226,376.02106590010226,376.02106590010226,376.02106590010226,left,0.5435142000205815,376.5883419001475,376.5883419001475,None,,4,001,2025-12-16_17h08.15.316,2025C_exp1_comp,2022.2.4,59.79713211104799,
15.7,315,1,-1,1,97,205,100,376.5883419001475,376.5883419001475,377.08882270008326,377.15554740000516,377.2058534002863,377.2058534002863,377.2058534002863,377.2058534002863,377.25573890004307,377.25573890004307,377.25573890004307,377.25573890004307,377.25573890004307,377.25573890004307,377.25573890004307,377.25573890004307,377.25573890004307,left,0.5494308001361787,377.82305460004136,377.82305460004136,None,,4,001,2025-12-16_17h08.15.316,2025C_exp1_comp,2022.2.4,59.79713211104799,
22.7,315,-1,0,1,98,206,12,377.82305460004136,377.82305460004136,378.3233856000006,378.3902030000463,378.4404627000913,378.4404627000913,378.4404627000913,378.4404627000913,378.4902330003679,378.4902330003679,378.4902330003679,378.4902330003679,378.4902330003679,378.4902330003679,378.4902330003679,378.4902330003679,378.4902330003679,right,0.5071254000067711,379.0241216002032,379.0241216002032,None,,4,001,2025-12-16_17h08.15.316,2025C_exp1_comp,2022.2.4,59.79713211104799,
