contrast,ori,lefttarget,righttarget,postcue,precue,trials.thisRepN,trials.thisTrialN,trials.thisN,trials.thisIndex,fix1.started,fix2.started,precue_2.started,precue_2.stopped,left_grating.started,right_grating.started,noise_left.started,noise_right.started,fix1.stopped,fix2.stopped,left_grating.stopped,right_grating.stopped,noise_left.stopped,noise_right.stopped,key_resp.started,postcue_2.started,fix1_2.started,fix2_2.started,key_resp.keys,key_resp.rt,key_resp_2.started,break_text_2.started,key_resp_2.keys,key_resp_2.rt,participant,session,date,expName,psychopyVersion,frameRate,
42.7,315,0,1,-1,-1,0,0,0,197,194.91611919971183,194.91611919971183,195.39623759966344,195.4629913996905,195.5366921997629,195.5366921997629,195.5366921997629,195.5366921997629,195.5627047996968,195.5627047996968,195.5627047996968,195.5627047996968,195.5627047996968,195.5627047996968,195.57939359964803,195.57939359964803,195.57939359964803,195.57939359964803,num_3,3.0026124003343284,198.59941659960896,198.59941659960896,None,,4,001,2025-12-16_17h54.10.764,2025C_exp1_detect,2022.2.4,59.94312597561844,
25.5,45,1,0,-1,-1,0,1,1,166,198.59941659960896,198.59941659960896,199.0998335997574,199.16656709974632,199.2168541997671,199.2168541997671,199.2168541997671,199.2168541997671,199.26672729989514,199.26672729989514,199.26672729989514,199.26672729989514,199.26672729989514,199.26672729989514,199.26672729989514,199.26672729989514,199.26672729989514,199.26672729989514,num_3,1.6281893006525934,200.91844539996237,200.91844539996237,None,,4,001,2025-12-16_17h54.10.764,2025C_exp1_detect,2022.2.4,59.94312597561844,
15.7,315,0,0,-1,0,0,2,2,10,200.91844539996237,200.91844539996237,201.4187144995667,201.48526009963825,201.5358455996029,201.5358455996029,201.5358455996029,201.5358455996029,201.58569529978558,201.58569529978558,201.58569529978558,201.58569529978558,201.58569529978558,201.58569529978558,201.58569529978558,201.58569529978558,201.58569529978558,201.58569529978558,num_3,1.6213147002272308,203.23732329998165,203.23732329998165,None,,4,001,2025-12-16_17h54.10.764,2025C_exp1_detect,2022.2.4,59.94312597561844,
22.7,45,0,1,-1,1,0,3,3,327,203.23732329998165,203.23732329998165,203.73790670000017,203.80452259955928,203.85488949995488,203.85488949995488,203.85488949995488,203.85488949995488,203.90467179985717,203.90467179985717,203.90467179985717,203.90467179985717,203.90467179985717,203.90467179985717,203.90467179985717,203.90467179985717,203.90467179985717,203.90467179985717,num_3,1.9504055003635585,205.87314369995147,205.87314369995147,None,,4,001,2025-12-16_17h54.10.764,2025C_exp1_detect,2022.2.4,59.94312597561844,
12.1,45,1,0,-1,0,0,4,4,18,205.87314369995147,205.87314369995147,206.37377509986982,206.44036379968747,206.49079799978063,206.49079799978063,206.49079799978063,206.49079799978063,206.54066889965907,206.54066889965907,206.54066889965907,206.54066889965907,206.54066889965907,206.54066889965907,206.54066889965907,206.54066889965907,206.54066889965907,206.54066889965907,num_1,1.2740112002938986,207.84191479999572,207.84191479999572,None,,4,001,2025-12-16_17h54.10.764,2025C_exp1_detect,2022.2.4,59.94312597561844,
12.1,45,1,1,1,1,0,5,5,414,207.84191479999572,207.84191479999572,208.34231489989907,208.40900449967012,208.45946539985016,208.45946539985016,208.45946539985016,208.45946539985016,208.50932039972395,208.50932039972395,208.50932039972395,208.50932039972395,208.50932039972395,208.50932039972395,208.50932039972395,208.50932039972395,208.50932039972395,208.50932039972395,num_3,5.680753500200808,214.21512279985473,214.21512279985473,None,,4,001,2025-12-16_17h54.10.764,2025C_exp1_detect,2022.2.4,59.94312597561844,
19.6,315,1,1,-1,-1,0,6,6,209,214.21512279985473,214.21512279985473,214.71546659991145,214.78230779990554,214.83258689986542,214.83258689986542,214.83258689986542,214.83258689986542,214.88236199971288,214.88236199971288,214.88236199971288,214.88236199971288,214.88236199971288,214.88236199971288,214.88236199971288,214.88236199971288,214.88236199971288,214.88236199971288,num_3,2.1795273004099727,217.0842716996558,217.0842716996558,None,,4,001,2025-12-16_17h54.10.764,2025C_exp1_detect,2022.2.4,59.94312597561844,
42.7,45,0,0,1,1,0,7,7,368,217.0842716996558,217.0842716996558,217.58498219959438,217.6517058997415,217.70203059958294,217.70203059958294,217.70203059958294,217.70203059958294,217.75176119990647,217.75176119990647,217.75176119990647,217.75176119990647,217.75176119990647,217.75176119990647,217.75176119990647,217.75176119990647,217.75176119990647,217.75176119990647,num_3,2.2868862003087997,220.07082619983703,220.07082619983703,None,,4,001,2025-12-16_17h54.10.764,2025C_exp1_detect,2022.2.4,59.94312597561844,
35.3,45,1,0,-1,0,0,8,8,24,220.07082619983703,220.07082619983703,220.5713226995431,220.63803479960188,220.68818029994145,220.68818029994145,220.68818029994145,220.68818029994145,220.73820779984817,220.73820779984817,220.73820779984817,220.73820779984817,220.73820779984817,220.73820779984817,220.73820779984817,220.73820779984817,220.73820779984817,220.73820779984817,num_1,2.1489438004791737,222.906964099966,222.906964099966,None,,4,001,2025-12-16_17h54.10.764,2025C_exp1_detect,2022.2.4,59.94312597561844,
22.7,315,1,1,-1,1,0,9,9,354,222.906964099966,222.906964099966,223.40759389987215,223.47425049962476,223.52439789986238,223.52439789986238,223.52439789986238,223.52439789986238,223.5743288998492,223.5743288998492,223.5743288998492,223.5743288998492,223.5743288998492,223.5743288998492,223.5743288998492,223.5743288998492,223.5743288998492,223.5743288998492,num_3,3.256552700418979,226.86071989964694,226.86071989964694,None,,4,001,2025-12-16_17h54.10.764,2025C_exp1_detect,2022.2.4,59.94312597561844,
39.2,45,1,0,1,0,0,10,10,97,226.86071989964694,226.86071989964694,227.36141909984872,227.42817809991539,227.47841649968177,227.47841649968177,227.47841649968177,227.47841649968177,227.52830749982968,227.52830749982968,227.52830749982968,227.52830749982968,227.52830749982968,227.52830749982968,227.52830749982968,227.52830749982968,227.52830749982968,227.52830749982968,num_3,1.454215300269425,229.01286869961768,229.01286869961768,None,,4,001,2025-12-16_17h54.10.764,2025C_exp1_detect,2022.2.4,59.94312597561844,
25.5,315,1,0,-1,0,0,11,11,31,229.01286869961768,229.01286869961768,229.5135654998012,229.58026589965448,229.63058509957045,229.63058509957045,229.63058509957045,229.63058509957045,229.6803125999868,229.6803125999868,229.6803125999868,229.6803125999868,229.6803125999868,229.6803125999868,229.6803125999868,229.6803125999868,229.6803125999868,229.6803125999868,num_1,1.094074800144881,230.79794159997255,230.79794159997255,None,,4,001,2025-12-16_17h54.10.764,2025C_exp1_detect,2022.2.4,59.94312597561844,
19.6,45,0,1,-1,1,0,12,12,326,230.79794159997255,230.79794159997255,231.29848819971085,231.36538679990917,231.41583019960672,231.41583019960672,231.41583019960672,231.41583019960672,231.4656383995898,231.4656383995898,231.4656383995898,231.4656383995898,231.4656383995898,231.4656383995898,231.4656383995898,231.4656383995898,231.4656383995898,231.4656383995898,num_3,1.3169623999856412,232.80011649988592,232.80011649988592,None,,4,001,2025-12-16_17h54.10.764,2025C_exp1_detect,2022.2.4,59.94312597561844,
35.3,315,0,0,-1,0,0,13,13,15,232.80011649988592,232.80011649988592,233.3006778997369,233.3674158998765,233.41749209957197,233.41749209957197,233.41749209957197,233.41749209957197,233.46740339975804,233.46740339975804,233.46740339975804,233.46740339975804,233.46740339975804,233.46740339975804,233.46740339975804,233.46740339975804,233.46740339975804,233.46740339975804,num_3,1.8035181006416678,235.3028785996139,235.3028785996139,None,,4,001,2025-12-16_17h54.10.764,2025C_exp1_detect,2022.2.4,59.94312597561844,
39.2,45,0,0,-1,-1,0,14,14,151,235.3028785996139,235.3028785996139,235.80325479991734,235.8699027998373,235.92019109986722,235.92019109986722,235.92019109986722,235.92019109986722,235.96996629983187,235.96996629983187,235.96996629983187,235.96996629983187,235.96996629983187,235.96996629983187,235.96996629983187,235.96996629983187,235.96996629983187,235.96996629983187,num_1,1.7245655003935099,237.72151829954237,237.72151829954237,None,,4,001,2025-12-16_17h54.10.764,2025C_exp1_detect,2022.2.4,59.94312597561844,
39.2,45,0,1,1,0,0,15,15,115,237.72151829954237,237.72151829954237,238.22232199972495,238.28897799970582,238.33956059999764,238.33956059999764,238.33956059999764,238.33956059999764,238.3893884997815,238.3893884997815,238.3893884997815,238.3893884997815,238.3893884997815,238.3893884997815,238.3893884997815,238.3893884997815,238.3893884997815,238.3893884997815,num_1,1.1455956003628671,239.55673639988527,239.55673639988527,None,,4,001,2025-12-16_17h54.10.764,2025C_exp1_detect,2022.2.4,59.94312597561844,
25.5,45,1,1,-1,-1,0,16,16,202,239.55673639988527,239.55673639988527,240.0576146999374,240.12425829982385,240.17453929968178,240.17453929968178,240.17453929968178,240.17453929968178,240.2244977997616,240.2244977997616,240.2244977997616,240.2244977997616,240.2244977997616,240.2244977997616,240.2244977997616,240.2244977997616,240.2244977997616,240.2244977997616,num_1,0.9426104002632201,241.1916981996037,241.1916981996037,None,,4,001,2025-12-16_17h54.10.764,2025C_exp1_detect,2022.2.4,59.94312597561844,
19.6,45,1,0,1,0,0,17,17,92,241.1916981996037,241.1916981996037,241.69246759964153,241.7591962995939,241.80949829984456,241.80949829984456,241.80949829984456,241.80949829984456,241.85913459956646,241.85913459956646,241.85913459956646,241.85913459956646,241.85913459956646,241.85913459956646,241.85913459956646,241.85913459956646,241.85913459956646,241.85913459956646,num_3,1.1231069006025791,243.01013069972396,243.01013069972396,None,,4,001,2025-12-16_17h54.10.764,2025C_exp1_detect,2022.2.4,59.94312597561844,
35.3,315,1,0,-1,1,0,18,18,321,243.01013069972396,243.01013069972396,243.5110777998343,243.57789279986173,243.62805199995637,243.62805199995637,243.62805199995637,243.62805199995637,243.67795799998567,243.67795799998567,243.67795799998567,243.67795799998567,243.67795799998567,243.67795799998567,243.67795799998567,243.67795799998567,243.67795799998567,243.67795799998567,num_3,5.6723395003937185,249.38349599996582,249.38349599996582,None,,4,001,2025-12-16_17h54.10.764,2025C_exp1_detect,2022.2.4,59.94312597561844,
39.2,45,0,1,1,-1,0,19,19,259,249.38349599996582,249.38349599996582,249.88380259973928,249.95065889973193,250.00097689963877,250.00097689963877,250.00097689963877,250.00097689963877,250.05086449999362,250.05086449999362,250.05086449999362,250.05086449999362,250.05086449999362,250.05086449999362,250.05086449999362,250.05086449999362,250.05086449999362,250.05086449999362,num_1,2.5470376005396247,252.61979719996452,252.61979719996452,None,,4,001,2025-12-16_17h54.10.764,2025C_exp1_detect,2022.2.4,59.94312597561844,
29.4,315,0,0,-1,-1,0,20,20,158,252.61979719996452,252.61979719996452,253.12017529970035,253.18692619958892,253.23724459996447,253.23724459996447,253.23724459996447,253.23724459996447,253.2874906999059,253.2874906999059,253.2874906999059,253.2874906999059,253.2874906999059,253.2874906999059,253.2874906999059,253.2874906999059,253.2874906999059,253.2874906999059,num_3,1.438289100304246,254.75527279963717,254.75527279963717,None,,4,001,2025-12-16_17h54.10.764,2025C_exp1_detect,2022.2.4,59.94312597561844,
22.7,315,0,0,1,1,0,21,21,372,254.75527279963717,254.75527279963717,255.25693959975615,255.32236989960074,255.37269389955327,255.37269389955327,255.37269389955327,255.37269389955327,255.42273929994553,255.42273929994553,255.42273929994553,255.42273929994553,255.42273929994553,255.42273929994553,255.42273929994553,255.42273929994553,255.42273929994553,255.42273929994553,num_1,1.1352353002876043,256.5903602996841,256.5903602996841,None,,4,001,2025-12-16_17h54.10.764,2025C_exp1_detect,2022.2.4,59.94312597561844,
39.2,315,1,0,1,0,0,22,22,106,256.5903602996841,256.5903602996841,257.0909221996553,257.157623199746,257.2078457996249,257.2078457996249,257.2078457996249,257.2078457996249,257.2578027998097,257.2578027998097,257.2578027998097,257.2578027998097,257.2578027998097,257.2578027998097,257.2578027998097,257.2578027998097,257.2578027998097,257.2578027998097,num_3,3.509292700327933,260.7947078999132,260.7947078999132,None,,4,001,2025-12-16_17h54.10.764,2025C_exp1_detect,2022.2.4,59.94312597561844,
19.6,45,0,0,-1,-1,0,23,23,146,260.7947078999132,260.7947078999132,261.29539189999923,261.36210689973086,261.41234049992636,261.41234049992636,261.41234049992636,261.41234049992636,261.462244999595,261.462244999595,261.462244999595,261.462244999595,261.462244999595,261.462244999595,261.462244999595,261.462244999595,261.462244999595,261.462244999595,num_3,2.328895800281316,263.8143182997592,263.8143182997592,None,,4,001,2025-12-16_17h54.10.764,2025C_exp1_detect,2022.2.4,59.94312597561844,
39.2,315,1,0,1,1,0,24,24,394,263.8143182997592,263.8143182997592,264.31508359964937,264.38181869965047,264.4321028999984,264.4321028999984,264.4321028999984,264.4321028999984,264.4818483996205,264.4818483996205,264.4818483996205,264.4818483996205,264.4818483996205,264.4818483996205,264.4818483996205,264.4818483996205,264.4818483996205,264.4818483996205,num_3,2.276921800337732,266.7839460996911,266.7839460996911,None,,4,001,2025-12-16_17h54.10.764,2025C_exp1_detect,2022.2.4,59.94312597561844,
22.7,315,1,0,1,0,0,25,25,102,266.7839460996911,266.7839460996911,267.2846756996587,267.3515180996619,267.4017866998911,267.4017866998911,267.4017866998911,267.4017866998911,267.45163599960506,267.45163599960506,267.45163599960506,267.45163599960506,267.45163599960506,267.45163599960506,267.45163599960506,267.45163599960506,267.45163599960506,267.45163599960506,num_3,1.6988981002941728,269.1697693997994,269.1697693997994,None,,4,001,2025-12-16_17h54.10.764,2025C_exp1_detect,2022.2.4,59.94312597561844,
12.1,45,0,1,-1,-1,0,26,26,180,269.1697693997994,269.1697693997994,269.6704733995721,269.73726169997826,269.7876122999005,269.7876122999005,269.7876122999005,269.7876122999005,269.83736529992893,269.83736529992893,269.83736529992893,269.83736529992893,269.83736529992893,269.83736529992893,269.83736529992893,269.83736529992893,269.83736529992893,269.83736529992893,num_3,1.3375644003972411,271.2050512996502,271.2050512996502,None,,4,001,2025-12-16_17h54.10.764,2025C_exp1_detect,2022.2.4,59.94312597561844,
19.6,315,0,1,-1,0,0,27,27,47,271.2050512996502,271.2050512996502,271.7057491997257,271.77246309956536,271.8226205999963,271.8226205999963,271.8226205999963,271.8226205999963,271.8726314995438,271.8726314995438,271.8726314995438,271.8726314995438,271.8726314995438,271.8726314995438,271.8726314995438,271.8726314995438,271.8726314995438,271.8726314995438,num_3,1.5980935003608465,273.49059069994837,273.49059069994837,None,,4,001,2025-12-16_17h54.10.764,2025C_exp1_detect,2022.2.4,59.94312597561844,
15.7,315,0,1,1,1,0,28,28,406,273.49059069994837,273.49059069994837,273.9911265997216,274.05793549958616,274.1084052999504,274.1084052999504,274.1084052999504,274.1084052999504,274.1582847996615,274.1582847996615,274.1582847996615,274.1582847996615,274.1582847996615,274.1582847996615,274.1582847996615,274.1582847996615,274.1582847996615,274.1582847996615,num_1,1.0722963004373014,275.2591228997335,275.2591228997335,None,,4,001,2025-12-16_17h54.10.764,2025C_exp1_detect,2022.2.4,59.94312597561844,
35.3,45,0,0,-1,0,0,29,29,6,275.2591228997335,275.2591228997335,275.75981559976935,275.8264221996069,275.87683339975774,275.87683339975774,275.87683339975774,275.87683339975774,275.926717299968,275.926717299968,275.926717299968,275.926717299968,275.926717299968,275.926717299968,275.926717299968,275.926717299968,275.926717299968,275.926717299968,num_3,1.302980300039053,277.2610790999606,277.2610790999606,None,,4,001,2025-12-16_17h54.10.764,2025C_exp1_detect,2022.2.4,59.94312597561844,
35.3,315,1,0,-1,-1,0,30,30,177,277.2610790999606,277.2610790999606,277.7618016996421,277.8286432996392,277.87883279984817,277.87883279984817,277.87883279984817,277.87883279984817,277.9287073998712,277.9287073998712,277.9287073998712,277.9287073998712,277.9287073998712,277.9287073998712,277.9287073998712,277.9287073998712,277.9287073998712,277.9287073998712,num_1,1.3663207003846765,279.31310329958797,279.31310329958797,None,,4,001,2025-12-16_17h54.10.764,2025C_exp1_detect,2022.2.4,59.94312597561844,
15.7,315,1,1,-1,0,0,31,31,64,279.31310329958797,279.31310329958797,279.8139422996901,279.8806103998795,279.9308479996398,279.9308479996398,279.9308479996398,279.9308479996398,279.980706599541,279.980706599541,279.980706599541,279.980706599541,279.980706599541,279.980706599541,279.980706599541,279.980706599541,279.980706599541,279.980706599541,num_1,1.026071600150317,281.03169479966164,281.03169479966164,None,,4,001,2025-12-16_17h54.10.764,2025C_exp1_detect,2022.2.4,59.94312597561844,
42.7,315,0,0,-1,1,0,32,32,305,281.03169479966164,281.03169479966164,281.53237059991807,281.5990180997178,281.64948259992525,281.64948259992525,281.64948259992525,281.64948259992525,281.6992510999553,281.6992510999553,281.6992510999553,281.6992510999553,281.6992510999553,281.6992510999553,281.6992510999553,281.6992510999553,281.6992510999553,281.6992510999553,num_3,1.1231006002053618,282.8500834996812,282.8500834996812,None,,4,001,2025-12-16_17h54.10.764,2025C_exp1_detect,2022.2.4,59.94312597561844,
25.5,45,1,0,-1,1,0,33,33,310,282.8500834996812,282.8500834996812,283.35072809970006,283.4174227998592,283.46773479972035,283.46773479972035,283.46773479972035,283.46773479972035,283.5176039999351,283.5176039999351,283.5176039999351,283.5176039999351,283.5176039999351,283.5176039999351,283.5176039999351,283.5176039999351,283.5176039999351,283.5176039999351,num_1,2.224762400612235,285.7695114999078,285.7695114999078,None,,4,001,2025-12-16_17h54.10.764,2025C_exp1_detect,2022.2.4,59.94312597561844,
39.2,45,0,1,-1,-1,0,34,34,187,285.7695114999078,285.7695114999078,286.2702775998041,286.3370141997002,286.38723209965974,286.38723209965974,286.38723209965974,286.38723209965974,286.4371901997365,286.4371901997365,286.4371901997365,286.4371901997365,286.4371901997365,286.4371901997365,286.4371901997365,286.4371901997365,286.4371901997365,286.4371901997365,num_3,1.2258843006566167,287.68824799964204,287.68824799964204,None,,4,001,2025-12-16_17h54.10.764,2025C_exp1_detect,2022.2.4,59.94312597561844,
12.1,45,0,0,1,1,0,35,35,360,287.68824799964204,287.68824799964204,288.18880539992824,288.25553989969194,288.30584249971434,288.30584249971434,288.30584249971434,288.30584249971434,288.35583369992673,288.35583369992673,288.35583369992673,288.35583369992673,288.35583369992673,288.35583369992673,288.35583369992673,288.35583369992673,288.35583369992673,288.35583369992673,num_3,1.4433212005533278,289.8236379995942,289.8236379995942,None,,4,001,2025-12-16_17h54.10.764,2025C_exp1_detect,2022.2.4,59.94312597561844,
29.4,45,1,0,-1,1,0,36,36,311,289.8236379995942,289.8236379995942,290.32434429973364,290.39106459962204,290.4412475996651,290.4412475996651,290.4412475996651,290.4412475996651,290.4911103998311,290.4911103998311,290.4911103998311,290.4911103998311,290.4911103998311,290.4911103998311,290.4911103998311,290.4911103998311,290.4911103998311,290.4911103998311,num_1,1.8506696005351841,292.3594861999154,292.3594861999154,None,,4,001,2025-12-16_17h54.10.764,2025C_exp1_detect,2022.2.4,59.94312597561844,
39.2,315,0,0,-1,0,0,37,37,16,292.3594861999154,292.3594861999154,292.86023489991203,292.92687959969044,292.9769553998485,292.9769553998485,292.9769553998485,292.9769553998485,293.0268406998366,293.0268406998366,293.0268406998366,293.0268406998366,293.0268406998366,293.0268406998366,293.0268406998366,293.0268406998366,293.0268406998366,293.0268406998366,num_3,1.75551290018484,294.8120165998116,294.8120165998116,None,,4,001,2025-12-16_17h54.10.764,2025C_exp1_detect,2022.2.4,59.94312597561844,
42.7,45,0,1,1,1,0,38,38,404,294.8120165998116,294.8120165998116,295.3126847995445,295.379391099792,295.4296829998493,295.4296829998493,295.4296829998493,295.4296829998493,295.47962379967794,295.47962379967794,295.47962379967794,295.47962379967794,295.47962379967794,295.47962379967794,295.47962379967794,295.47962379967794,295.47962379967794,295.47962379967794,num_1,1.0707461000420153,296.58040179964155,296.58040179964155,None,,4,001,2025-12-16_17h54.10.764,2025C_exp1_detect,2022.2.4,59.94312597561844,
39.2,45,0,0,-1,1,0,39,39,295,296.58040179964155,296.58040179964155,297.0809690998867,297.1475486997515,297.1981753995642,297.1981753995642,297.1981753995642,297.1981753995642,297.2479996997863,297.2479996997863,297.2479996997863,297.2479996997863,297.2479996997863,297.2479996997863,297.2479996997863,297.2479996997863,297.2479996997863,297.2479996997863,num_3,1.19833580031991,298.46559149958193,298.46559149958193,None,,4,001,2025-12-16_17h54.10.764,2025C_exp1_detect,2022.2.4,59.94312597561844,
25.5,315,1,0,1,0,0,40,40,103,298.46559149958193,298.46559149958193,298.966335399542,299.0330493999645,299.0833188998513,299.0833188998513,299.0833188998513,299.0833188998513,299.1333125997335,299.1333125997335,299.1333125997335,299.1333125997335,299.1333125997335,299.1333125997335,299.1333125997335,299.1333125997335,299.1333125997335,299.1333125997335,num_3,0.9850328001193702,300.1506367996335,300.1506367996335,None,,4,001,2025-12-16_17h54.10.764,2025C_exp1_detect,2022.2.4,59.94312597561844,
25.5,315,1,0,1,-1,0,41,41,247,300.1506367996335,300.1506367996335,300.6513040997088,300.7180748996325,300.76837269961834,300.76837269961834,300.76837269961834,300.76837269961834,300.8182453997433,300.8182453997433,300.8182453997433,300.8182453997433,300.8182453997433,300.8182453997433,300.8182453997433,300.8182453997433,300.8182453997433,300.8182453997433,num_3,1.4047407004982233,302.25274819973856,302.25274819973856,None,,4,001,2025-12-16_17h54.10.764,2025C_exp1_detect,2022.2.4,59.94312597561844,
25.5,315,0,0,1,1,0,42,42,373,302.25274819973856,302.25274819973856,302.7534494996071,302.82020929967985,302.8701583999209,302.8701583999209,302.8701583999209,302.8701583999209,302.9201060999185,302.9201060999185,302.9201060999185,302.9201060999185,302.9201060999185,302.9201060999185,302.9201060999185,302.9201060999185,302.9201060999185,302.9201060999185,num_3,0.9101078002713621,303.8544748998247,303.8544748998247,None,,4,001,2025-12-16_17h54.10.764,2025C_exp1_detect,2022.2.4,59.94312597561844,
12.1,315,1,0,-1,0,0,43,43,27,303.8544748998247,303.8544748998247,304.35505079990253,304.4218629999086,304.47211199998856,304.47211199998856,304.47211199998856,304.47211199998856,304.5221232995391,304.5221232995391,304.5221232995391,304.5221232995391,304.5221232995391,304.5221232995391,304.5221232995391,304.5221232995391,304.5221232995391,304.5221232995391,num_1,1.7810152005404234,306.32341509964317,306.32341509964317,None,,4,001,2025-12-16_17h54.10.764,2025C_exp1_detect,2022.2.4,59.94312597561844,
39.2,315,1,1,-1,0,0,44,44,70,306.32341509964317,306.32341509964317,306.82421140000224,306.8909291997552,306.9412245997228,306.9412245997228,306.9412245997228,306.9412245997228,306.99087829981,306.99087829981,306.99087829981,306.99087829981,306.99087829981,306.99087829981,306.99087829981,306.99087829981,306.99087829981,306.99087829981,num_1,1.9029157003387809,308.92631509993225,308.92631509993225,None,,4,001,2025-12-16_17h54.10.764,2025C_exp1_detect,2022.2.4,59.94312597561844,
29.4,315,1,0,1,-1,0,45,45,248,308.92631509993225,308.92631509993225,309.4266817998141,309.4935214999132,309.5438269996084,309.5438269996084,309.5438269996084,309.5438269996084,309.5937115997076,309.5937115997076,309.5937115997076,309.5937115997076,309.5937115997076,309.5937115997076,309.5937115997076,309.5937115997076,309.5937115997076,309.5937115997076,num_3,1.132992200087756,310.7444802997634,310.7444802997634,None,,4,001,2025-12-16_17h54.10.764,2025C_exp1_detect,2022.2.4,59.94312597561844,
29.4,315,0,1,1,1,0,46,46,410,310.7444802997634,310.7444802997634,311.24528139969334,311.31199699966237,311.3622874999419,311.3622874999419,311.3622874999419,311.3622874999419,311.41215459955856,311.41215459955856,311.41215459955856,311.41215459955856,311.41215459955856,311.41215459955856,311.41215459955856,311.41215459955856,311.41215459955856,311.41215459955856,num_1,1.0495720002800226,312.4796239999123,312.4796239999123,None,,4,001,2025-12-16_17h54.10.764,2025C_exp1_detect,2022.2.4,59.94312597561844,
39.2,315,0,0,1,-1,0,47,47,232,312.4796239999123,312.4796239999123,312.9800622998737,313.04706669971347,313.0973588996567,313.0973588996567,313.0973588996567,313.0973588996567,313.14741609990597,313.14741609990597,313.14741609990597,313.14741609990597,313.14741609990597,313.14741609990597,313.14741609990597,313.14741609990597,313.14741609990597,313.14741609990597,num_3,1.0989199001342058,314.26478239987046,314.26478239987046,None,,4,001,2025-12-16_17h54.10.764,2025C_exp1_detect,2022.2.4,59.94312597561844,
35.3,315,0,1,1,0,0,48,48,123,314.26478239987046,314.26478239987046,314.7654799995944,314.83207529969513,314.88238949980587,314.88238949980587,314.88238949980587,314.88238949980587,314.9323851997033,314.9323851997033,314.9323851997033,314.9323851997033,314.9323851997033,314.9323851997033,314.9323851997033,314.9323851997033,314.9323851997033,314.9323851997033,num_1,0.9132936000823975,315.86623159982264,315.86623159982264,None,,4,001,2025-12-16_17h54.10.764,2025C_exp1_detect,2022.2.4,59.94312597561844,
19.6,315,0,0,-1,0,0,49,49,11,315.86623159982264,315.86623159982264,316.3670904999599,316.43373549962416,316.48411510000005,316.48411510000005,316.48411510000005,316.48411510000005,316.5339466999285,316.5339466999285,316.5339466999285,316.5339466999285,316.5339466999285,316.5339466999285,316.5339466999285,316.5339466999285,316.5339466999285,316.5339466999285,num_3,0.9440137003548443,317.50120529998094,317.50120529998094,None,,4,001,2025-12-16_17h54.10.764,2025C_exp1_detect,2022.2.4,59.94312597561844,
15.7,315,1,0,1,-1,0,50,50,244,317.50120529998094,317.50120529998094,318.0017699999735,318.06861089961603,318.11904009990394,318.11904009990394,318.11904009990394,318.11904009990394,318.16893499996513,318.16893499996513,318.16893499996513,318.16893499996513,318.16893499996513,318.16893499996513,318.16893499996513,318.16893499996513,318.16893499996513,318.16893499996513,num_1,2.2699147006496787,320.4711899999529,320.4711899999529,None,,4,001,2025-12-16_17h54.10.764,2025C_exp1_detect,2022.2.4,59.94312597561844,
15.7,45,0,1,1,1,0,51,51,397,320.4711899999529,320.4711899999529,320.9716691998765,321.03826069971547,321.08868349995464,321.08868349995464,321.08868349995464,321.08868349995464,321.1386024998501,321.1386024998501,321.1386024998501,321.1386024998501,321.1386024998501,321.1386024998501,321.1386024998501,321.1386024998501,321.1386024998501,321.1386024998501,num_1,1.2516493001021445,322.40645879972726,322.40645879972726,None,,4,001,2025-12-16_17h54.10.764,2025C_exp1_detect,2022.2.4,59.94312597561844,
35.3,45,0,0,-1,1,0,52,52,294,322.40645879972726,322.40645879972726,322.90731059992686,322.9738164995797,323.02378889964893,323.02378889964893,323.02378889964893,323.02378889964893,323.07355229975656,323.07355229975656,323.07355229975656,323.07355229975656,323.07355229975656,323.07355229975656,323.07355229975656,323.07355229975656,323.07355229975656,323.07355229975656,num_3,1.2449674000963569,324.34168639965355,324.34168639965355,None,,4,001,2025-12-16_17h54.10.764,2025C_exp1_detect,2022.2.4,59.94312597561844,
22.7,315,1,1,1,0,0,53,53,138,324.34168639965355,324.34168639965355,324.8422072995454,324.90905389981344,324.959234399721,324.959234399721,324.959234399721,324.959234399721,325.00910899974406,325.00910899974406,325.00910899974406,325.00910899974406,325.00910899974406,325.00910899974406,325.00910899974406,325.00910899974406,325.00910899974406,325.00910899974406,num_1,0.7886510002426803,325.8262975998223,325.8262975998223,None,,4,001,2025-12-16_17h54.10.764,2025C_exp1_detect,2022.2.4,59.94312597561844,
15.7,45,1,0,1,0,0,54,54,91,325.8262975998223,325.8262975998223,326.327019599732,326.3934276998043,326.44421419966966,326.44421419966966,326.44421419966966,326.44421419966966,326.49417659966275,326.49417659966275,326.49417659966275,326.49417659966275,326.49417659966275,326.49417659966275,326.49417659966275,326.49417659966275,326.49417659966275,326.49417659966275,num_3,1.032101800199598,327.5446805995889,327.5446805995889,None,,4,001,2025-12-16_17h54.10.764,2025C_exp1_detect,2022.2.4,59.94312597561844,
35.3,315,1,1,1,-1,0,55,55,285,327.5446805995889,327.5446805995889,328.0455694999546,328.1122377999127,328.16260669985786,328.16260669985786,328.16260669985786,328.16260669985786,328.21242609992623,328.21242609992623,328.21242609992623,328.21242609992623,328.21242609992623,328.21242609992623,328.21242609992623,328.21242609992623,328.21242609992623,328.21242609992623,num_1,0.9220120003446937,329.16297009959817,329.16297009959817,None,,4,001,2025-12-16_17h54.10.764,2025C_exp1_detect,2022.2.4,59.94312597561844,
12.1,45,0,1,-1,0,0,56,56,36,329.16297009959817,329.16297009959817,329.66369459964335,329.73044509999454,329.7807398997247,329.7807398997247,329.7807398997247,329.7807398997247,329.83058839989826,329.83058839989826,329.83058839989826,329.83058839989826,329.83058839989826,329.83058839989826,329.83058839989826,329.83058839989826,329.83058839989826,329.83058839989826,num_3,1.09605300007388,330.9480202998966,330.9480202998966,None,,4,001,2025-12-16_17h54.10.764,2025C_exp1_detect,2022.2.4,59.94312597561844,
42.7,315,1,1,1,-1,0,57,57,287,330.9480202998966,330.9480202998966,331.4487936999649,331.51541879959404,331.5657588997856,331.5657588997856,331.5657588997856,331.5657588997856,331.615725599695,331.615725599695,331.615725599695,331.615725599695,331.615725599695,331.615725599695,331.615725599695,331.615725599695,331.615725599695,331.615725599695,num_1,0.8469525002874434,332.48288349993527,332.48288349993527,None,,4,001,2025-12-16_17h54.10.764,2025C_exp1_detect,2022.2.4,59.94312597561844,
19.6,45,1,1,1,0,0,58,58,128,332.48288349993527,332.48288349993527,332.98384749982506,333.0506067997776,333.100941399578,333.100941399578,333.100941399578,333.100941399578,333.15042349975556,333.15042349975556,333.15042349975556,333.15042349975556,333.15042349975556,333.15042349975556,333.15042349975556,333.15042349975556,333.15042349975556,333.15042349975556,num_1,0.871494899969548,334.05118719954044,334.05118719954044,None,,4,001,2025-12-16_17h54.10.764,2025C_exp1_detect,2022.2.4,59.94312597561844,
42.7,45,1,1,1,0,0,59,59,134,334.05118719954044,334.05118719954044,334.5517256995663,334.61865219986066,334.6689202999696,334.6689202999696,334.6689202999696,334.6689202999696,334.71851259982213,334.71851259982213,334.71851259982213,334.71851259982213,334.71851259982213,334.71851259982213,334.71851259982213,334.71851259982213,334.71851259982213,334.71851259982213,num_1,1.0404249005950987,335.786259399727,335.786259399727,None,,4,001,2025-12-16_17h54.10.764,2025C_exp1_detect,2022.2.4,59.94312597561844,
29.4,45,1,0,-1,0,0,60,60,23,335.786259399727,335.786259399727,336.28699149983004,336.3536161999218,336.40405809972435,336.40405809972435,336.40405809972435,336.40405809972435,336.45389879960567,336.45389879960567,336.45389879960567,336.45389879960567,336.45389879960567,336.45389879960567,336.45389879960567,336.45389879960567,336.45389879960567,336.45389879960567,num_1,0.8812627005390823,337.35449229972437,337.35449229972437,None,,4,001,2025-12-16_17h54.10.764,2025C_exp1_detect,2022.2.4,59.94312597561844,
15.7,315,1,0,-1,1,0,61,61,316,337.35449229972437,337.35449229972437,337.85519769974053,337.92191919963807,337.9722139998339,337.9722139998339,337.9722139998339,337.9722139998339,338.0220676995814,338.0220676995814,338.0220676995814,338.0220676995814,338.0220676995814,338.0220676995814,338.0220676995814,338.0220676995814,338.0220676995814,338.0220676995814,num_1,0.9361201003193855,338.9893788998015,338.9893788998015,None,,4,001,2025-12-16_17h54.10.764,2025C_exp1_detect,2022.2.4,59.94312597561844,
15.7,45,0,1,-1,-1,0,62,62,181,338.9893788998015,338.9893788998015,339.49005709961057,339.5569059997797,339.607226499822,339.607226499822,339.607226499822,339.607226499822,339.657217099797,339.657217099797,339.657217099797,339.657217099797,339.657217099797,339.657217099797,339.657217099797,339.657217099797,339.657217099797,339.657217099797,num_3,0.9572193003259599,340.6410678997636,340.6410678997636,None,,4,001,2025-12-16_17h54.10.764,2025C_exp1_detect,2022.2.4,59.94312597561844,
29.4,315,1,0,-1,0,0,63,63,32,340.6410678997636,340.6410678997636,341.141807699576,341.2085940996185,341.2587841995992,341.2587841995992,341.2587841995992,341.2587841995992,341.30872219987214,341.30872219987214,341.30872219987214,341.30872219987214,341.30872219987214,341.30872219987214,341.30872219987214,341.30872219987214,341.30872219987214,341.30872219987214,num_1,0.8262439002282917,342.159385799896,342.159385799896,None,,4,001,2025-12-16_17h54.10.764,2025C_exp1_detect,2022.2.4,59.94312597561844,
35.3,45,0,1,1,0,0,64,64,114,342.159385799896,342.159385799896,342.6599966995418,342.72674979967996,342.77687229961157,342.77687229961157,342.77687229961157,342.77687229961157,342.8266117000021,342.8266117000021,342.8266117000021,342.8266117000021,342.8266117000021,342.8266117000021,342.8266117000021,342.8266117000021,342.8266117000021,342.8266117000021,num_1,0.9557334003038704,343.8108954997733,343.8108954997733,None,,4,001,2025-12-16_17h54.10.764,2025C_exp1_detect,2022.2.4,59.94312597561844,
29.4,45,1,1,-1,0,0,65,65,59,343.8108954997733,343.8108954997733,344.3116875998676,344.3781873998232,344.42865669960156,344.42865669960156,344.42865669960156,344.42865669960156,344.47854099981487,344.47854099981487,344.47854099981487,344.47854099981487,344.47854099981487,344.47854099981487,344.47854099981487,344.47854099981487,344.47854099981487,344.47854099981487,num_1,0.8719618003815413,345.3791982997209,345.3791982997209,None,,4,001,2025-12-16_17h54.10.764,2025C_exp1_detect,2022.2.4,59.94312597561844,
39.2,315,0,0,-1,-1,0,66,66,160,345.3791982997209,345.3791982997209,345.8798952996731,345.94666229980066,345.9968840996735,345.9968840996735,345.9968840996735,345.9968840996735,346.0468518999405,346.0468518999405,346.0468518999405,346.0468518999405,346.0468518999405,346.0468518999405,346.0468518999405,346.0468518999405,346.0468518999405,346.0468518999405,num_3,1.0160875003784895,347.08096669986844,347.08096669986844,None,,4,001,2025-12-16_17h54.10.764,2025C_exp1_detect,2022.2.4,59.94312597561844,
42.7,315,1,1,1,0,0,67,67,143,347.08096669986844,347.08096669986844,347.5816869996488,347.64841009955853,347.6985368998721,347.6985368998721,347.6985368998721,347.6985368998721,347.74828559998423,347.74828559998423,347.74828559998423,347.74828559998423,347.74828559998423,347.74828559998423,347.74828559998423,347.74828559998423,347.74828559998423,347.74828559998423,num_1,0.8184485002420843,348.59931189985946,348.59931189985946,None,,4,001,2025-12-16_17h54.10.764,2025C_exp1_detect,2022.2.4,59.94312597561844,
29.4,45,0,0,1,1,0,68,68,365,348.59931189985946,348.59931189985946,349.09978589974344,349.1665010997094,349.2167837996967,349.2167837996967,349.2167837996967,349.2167837996967,349.26654279977083,349.26654279977083,349.26654279977083,349.26654279977083,349.26654279977083,349.26654279977083,349.26654279977083,349.26654279977083,349.26654279977083,349.26654279977083,num_3,0.8122744006104767,350.10056169983,350.10056169983,None,,4,001,2025-12-16_17h54.10.764,2025C_exp1_detect,2022.2.4,59.94312597561844,
12.1,45,0,0,1,-1,0,69,69,216,350.10056169983,350.10056169983,350.60127459978685,350.66785859968513,350.71830419963226,350.71830419963226,350.71830419963226,350.71830419963226,350.7681668996811,350.7681668996811,350.7681668996811,350.7681668996811,350.7681668996811,350.7681668996811,350.7681668996811,350.7681668996811,350.7681668996811,350.7681668996811,num_3,0.8384437002241611,351.63566379994154,351.63566379994154,None,,4,001,2025-12-16_17h54.10.764,2025C_exp1_detect,2022.2.4,59.94312597561844,
39.2,315,1,1,1,0,0,70,70,142,351.63566379994154,351.63566379994154,352.1361232995987,352.2028938997537,352.2530331998132,352.2530331998132,352.2530331998132,352.2530331998132,352.30302129965276,352.30302129965276,352.30302129965276,352.30302129965276,352.30302129965276,352.30302129965276,352.30302129965276,352.30302129965276,352.30302129965276,352.30302129965276,num_1,0.7670934004709125,353.08686039969325,353.08686039969325,None,,4,001,2025-12-16_17h54.10.764,2025C_exp1_detect,2022.2.4,59.94312597561844,
39.2,315,0,1,1,-1,0,71,71,268,353.08686039969325,353.08686039969325,353.58730019954965,353.65455769980326,353.704634799622,353.704634799622,353.704634799622,353.704634799622,353.75470139971003,353.75470139971003,353.75470139971003,353.75470139971003,353.75470139971003,353.75470139971003,353.75470139971003,353.75470139971003,353.75470139971003,353.75470139971003,num_1,0.6991221001371741,354.4716165997088,354.4716165997088,None,,4,001,2025-12-16_17h54.10.764,2025C_exp1_detect,2022.2.4,59.94312597561844,
39.2,315,0,0,1,1,0,72,72,376,354.4716165997088,354.4716165997088,354.97233759984374,355.03898809989914,355.0893243998289,355.0893243998289,355.0893243998289,355.0893243998289,355.13917539967224,355.13917539967224,355.13917539967224,355.13917539967224,355.13917539967224,355.13917539967224,355.13917539967224,355.13917539967224,355.13917539967224,355.13917539967224,num_3,0.8433767007663846,356.00640739966184,356.00640739966184,None,,4,001,2025-12-16_17h54.10.764,2025C_exp1_detect,2022.2.4,59.94312597561844,
25.5,45,0,0,-1,1,0,73,73,292,356.00640739966184,356.00640739966184,356.5072061996907,356.5738197998144,356.6240726998076,356.6240726998076,356.6240726998076,356.6240726998076,356.6740882997401,356.6740882997401,356.6740882997401,356.6740882997401,356.6740882997401,356.6740882997401,356.6740882997401,356.6740882997401,356.6740882997401,356.6740882997401,num_3,0.900141800288111,357.5914664999582,357.5914664999582,None,,4,001,2025-12-16_17h54.10.764,2025C_exp1_detect,2022.2.4,59.94312597561844,
25.5,45,0,0,1,-1,0,74,74,220,357.5914664999582,357.5914664999582,358.0920821996406,358.1587976999581,358.20911249984056,358.20911249984056,358.20911249984056,358.20911249984056,358.2590250996873,358.2590250996873,358.2590250996873,358.2590250996873,358.2590250996873,358.2590250996873,358.2590250996873,358.2590250996873,358.2590250996873,358.2590250996873,num_3,0.9400304001756012,359.22634809976444,359.22634809976444,None,,4,001,2025-12-16_17h54.10.764,2025C_exp1_detect,2022.2.4,59.94312597561844,
39.2,315,1,0,-1,-1,0,75,75,178,359.22634809976444,359.22634809976444,359.7270728996955,359.7934740995988,359.8441376998089,359.8441376998089,359.8441376998089,359.8441376998089,359.89396939985454,359.89396939985454,359.89396939985454,359.89396939985454,359.89396939985454,359.89396939985454,359.89396939985454,359.89396939985454,359.89396939985454,359.89396939985454,num_1,0.8084693001583219,360.72778809955344,360.72778809955344,None,,4,001,2025-12-16_17h54.10.764,2025C_exp1_detect,2022.2.4,59.94312597561844,
15.7,45,0,1,-1,0,0,76,76,37,360.72778809955344,360.72778809955344,361.22855899995193,361.2952767997049,361.34567579999566,361.34567579999566,361.34567579999566,361.34567579999566,361.3955393997021,361.3955393997021,361.3955393997021,361.3955393997021,361.3955393997021,361.3955393997021,361.3955393997021,361.3955393997021,361.3955393997021,361.3955393997021,num_3,0.9874034002423286,362.41313329990953,362.41313329990953,None,,4,001,2025-12-16_17h54.10.764,2025C_exp1_detect,2022.2.4,59.94312597561844,
39.2,45,1,1,-1,-1,0,77,77,205,362.41313329990953,362.41313329990953,362.9135740995407,362.9802862997167,363.03060679975897,363.03060679975897,363.03060679975897,363.03060679975897,363.08034329954535,363.08034329954535,363.08034329954535,363.08034329954535,363.08034329954535,363.08034329954535,363.08034329954535,363.08034329954535,363.08034329954535,363.08034329954535,num_1,1.2056011003442109,364.314721299801,364.314721299801,None,,4,001,2025-12-16_17h54.10.764,2025C_exp1_detect,2022.2.4,59.94312597561844,
35.3,315,0,1,-1,-1,0,78,78,195,364.314721299801,364.314721299801,364.81558429962024,364.8823063997552,364.9323308998719,364.9323308998719,364.9323308998719,364.9323308998719,364.982398299966,364.982398299966,364.982398299966,364.982398299966,364.982398299966,364.982398299966,364.982398299966,364.982398299966,364.982398299966,364.982398299966,num_3,1.0234049004502594,366.03308799955994,366.03308799955994,None,,4,001,2025-12-16_17h54.10.764,2025C_exp1_detect,2022.2.4,59.94312597561844,
25.5,315,0,0,-1,0,0,79,79,13,366.03308799955994,366.03308799955994,366.5337739996612,366.600496399682,366.6509153996594,366.6509153996594,366.6509153996594,366.6509153996594,366.7007430996746,366.7007430996746,366.7007430996746,366.7007430996746,366.7007430996746,366.7007430996746,366.7007430996746,366.7007430996746,366.7007430996746,366.7007430996746,num_3,0.8337852004915476,367.55130469985306,367.55130469985306,None,,4,001,2025-12-16_17h54.10.764,2025C_exp1_detect,2022.2.4,59.94312597561844,
29.4,45,0,1,-1,1,0,80,80,329,367.55130469985306,367.55130469985306,368.05219519976526,368.1185309998691,368.1690058996901,368.1690058996901,368.1690058996901,368.1690058996901,368.2189293997362,368.2189293997362,368.2189293997362,368.2189293997362,368.2189293997362,368.2189293997362,368.2189293997362,368.2189293997362,368.2189293997362,368.2189293997362,num_3,0.8193511003628373,369.0695111998357,369.0695111998357,None,,4,001,2025-12-16_17h54.10.764,2025C_exp1_detect,2022.2.4,59.94312597561844,
25.5,315,0,0,-1,1,0,81,81,301,369.0695111998357,369.0695111998357,369.5701746996492,369.6369490996003,369.6872539999895,369.6872539999895,369.6872539999895,369.6872539999895,369.7369981999509,369.7369981999509,369.7369981999509,369.7369981999509,369.7369981999509,369.7369981999509,369.7369981999509,369.7369981999509,369.7369981999509,369.7369981999509,num_3,0.8449116004630923,370.60438999999315,370.60438999999315,None,,4,001,2025-12-16_17h54.10.764,2025C_exp1_detect,2022.2.4,59.94312597561844,
35.3,315,0,1,1,-1,0,82,82,267,370.60438999999315,370.60438999999315,371.1051563997753,371.17180829960853,371.2220821999945,371.2220821999945,371.2220821999945,371.2220821999945,371.2720036995597,371.2720036995597,371.2720036995597,371.2720036995597,371.2720036995597,371.2720036995597,371.2720036995597,371.2720036995597,371.2720036995597,371.2720036995597,num_1,0.7266835002228618,372.02256539976224,372.02256539976224,None,,4,001,2025-12-16_17h54.10.764,2025C_exp1_detect,2022.2.4,59.94312597561844,
12.1,315,0,1,1,-1,0,83,83,261,372.02256539976224,372.02256539976224,372.52335999999195,372.59005069965497,372.64023979986086,372.64023979986086,372.64023979986086,372.64023979986086,372.69015979999676,372.69015979999676,372.69015979999676,372.69015979999676,372.69015979999676,372.69015979999676,372.69015979999676,372.69015979999676,372.69015979999676,372.69015979999676,num_1,0.8050298001617193,373.5239774999209,373.5239774999209,None,,4,001,2025-12-16_17h54.10.764,2025C_exp1_detect,2022.2.4,59.94312597561844,
15.7,45,1,1,1,0,0,84,84,127,373.5239774999209,373.5239774999209,374.024744999595,374.09156309999526,374.141730199568,374.141730199568,374.141730199568,374.141730199568,374.1914239996113,374.1914239996113,374.1914239996113,374.1914239996113,374.1914239996113,374.1914239996113,374.1914239996113,374.1914239996113,374.1914239996113,374.1914239996113,num_1,0.6873199003748596,374.9086945997551,374.9086945997551,None,,4,001,2025-12-16_17h54.10.764,2025C_exp1_detect,2022.2.4,59.94312597561844,
29.4,315,1,1,-1,0,0,85,85,68,374.9086945997551,374.9086945997551,375.40939269959927,375.47613589977846,375.5263824998401,375.5263824998401,375.5263824998401,375.5263824998401,375.57628609985113,375.57628609985113,375.57628609985113,375.57628609985113,375.57628609985113,375.57628609985113,375.57628609985113,375.57628609985113,375.57628609985113,375.57628609985113,num_1,0.7586943004280329,376.3601200999692,376.3601200999692,None,,4,001,2025-12-16_17h54.10.764,2025C_exp1_detect,2022.2.4,59.94312597561844,
29.4,315,0,0,1,1,0,86,86,374,376.3601200999692,376.3601200999692,376.8608571998775,376.92756899958476,376.97800389956683,376.97800389956683,376.97800389956683,376.97800389956683,377.02764049964026,377.02764049964026,377.02764049964026,377.02764049964026,377.02764049964026,377.02764049964026,377.02764049964026,377.02764049964026,377.02764049964026,377.02764049964026,num_3,0.7633163006976247,377.81153969978914,377.81153969978914,None,,4,001,2025-12-16_17h54.10.764,2025C_exp1_detect,2022.2.4,59.94312597561844,
15.7,45,1,0,-1,1,0,87,87,307,377.81153969978914,377.81153969978914,378.3120907996781,378.37901009991765,378.4292745999992,378.4292745999992,378.4292745999992,378.4292745999992,378.47890219977126,378.47890219977126,378.47890219977126,378.47890219977126,378.47890219977126,378.47890219977126,378.47890219977126,378.47890219977126,378.47890219977126,378.47890219977126,num_1,1.119806400500238,379.6302761998959,379.6302761998959,None,,4,001,2025-12-16_17h54.10.764,2025C_exp1_detect,2022.2.4,59.94312597561844,
19.6,45,1,1,-1,-1,0,88,88,200,379.6302761998959,379.6302761998959,380.13069039955735,380.1975094997324,380.24770179996267,380.24770179996267,380.24770179996267,380.24770179996267,380.2976907999255,380.2976907999255,380.2976907999255,380.2976907999255,380.2976907999255,380.2976907999255,380.2976907999255,380.2976907999255,380.2976907999255,380.2976907999255,num_1,0.6452435003593564,380.9647752000019,380.9647752000019,None,,4,001,2025-12-16_17h54.10.764,2025C_exp1_detect,2022.2.4,59.94312597561844,
29.4,45,0,0,1,-1,0,89,89,221,380.9647752000019,380.9647752000019,381.4654863998294,381.5321175996214,381.5826316997409,381.5826316997409,381.5826316997409,381.5826316997409,381.63251009956,381.63251009956,381.63251009956,381.63251009956,381.63251009956,381.63251009956,381.63251009956,381.63251009956,381.63251009956,381.63251009956,num_3,0.6055710003711283,382.2660445999354,382.2660445999354,None,,4,001,2025-12-16_17h54.10.764,2025C_exp1_detect,2022.2.4,59.94312597561844,
29.4,45,0,1,-1,0,0,90,90,41,382.2660445999354,382.2660445999354,382.76677119964734,382.83348249970004,382.88391330000013,382.88391330000013,382.88391330000013,382.88391330000013,382.93367109959945,382.93367109959945,382.93367109959945,382.93367109959945,382.93367109959945,382.93367109959945,382.93367109959945,382.93367109959945,382.93367109959945,382.93367109959945,num_3,1.0012364005669951,383.95108289970085,383.95108289970085,None,,4,001,2025-12-16_17h54.10.764,2025C_exp1_detect,2022.2.4,59.94312597561844,
12.1,45,0,0,-1,1,0,91,91,288,383.95108289970085,383.95108289970085,384.4515152997337,384.5184781998396,384.56858239974827,384.56858239974827,384.56858239974827,384.56858239974827,384.6186866997741,384.6186866997741,384.6186866997741,384.6186866997741,384.6186866997741,384.6186866997741,384.6186866997741,384.6186866997741,384.6186866997741,384.6186866997741,num_3,0.7072705002501607,385.3523849998601,385.3523849998601,None,,4,001,2025-12-16_17h54.10.764,2025C_exp1_detect,2022.2.4,59.94312597561844,
35.3,45,0,1,-1,1,0,92,92,330,385.3523849998601,385.3523849998601,385.8531900998205,385.91994269983843,385.97019409993663,385.97019409993663,385.97019409993663,385.97019409993663,386.02006809972227,386.02006809972227,386.02006809972227,386.02006809972227,386.02006809972227,386.02006809972227,386.02006809972227,386.02006809972227,386.02006809972227,386.02006809972227,num_3,0.6744041005149484,386.7205011998303,386.7205011998303,None,,4,001,2025-12-16_17h54.10.764,2025C_exp1_detect,2022.2.4,59.94312597561844,
19.6,315,0,0,-1,1,0,93,93,299,386.7205011998303,386.7205011998303,387.2211872995831,387.28795029968023,387.3382559996098,387.3382559996098,387.3382559996098,387.3382559996098,387.38795469980687,387.38795469980687,387.38795469980687,387.38795469980687,387.38795469980687,387.38795469980687,387.38795469980687,387.38795469980687,387.38795469980687,387.38795469980687,num_3,0.6256993007846177,388.03869739966467,388.03869739966467,None,,4,001,2025-12-16_17h54.10.764,2025C_exp1_detect,2022.2.4,59.94312597561844,
12.1,315,0,1,-1,-1,0,94,94,189,388.03869739966467,388.03869739966467,388.5392069998197,388.60581369977444,388.65620549954474,388.65620549954474,388.65620549954474,388.65620549954474,388.7060065995902,388.7060065995902,388.7060065995902,388.7060065995902,388.7060065995902,388.7060065995902,388.7060065995902,388.7060065995902,388.7060065995902,388.7060065995902,num_3,0.6199671006761491,389.3564086998813,389.3564086998813,None,,4,001,2025-12-16_17h54.10.764,2025C_exp1_detect,2022.2.4,59.94312597561844,
42.7,45,1,1,-1,1,0,95,95,350,389.3564086998813,389.3564086998813,389.8571816999465,389.92390549974516,389.9742107996717,389.9742107996717,389.9742107996717,389.9742107996717,390.0240670996718,390.0240670996718,390.0240670996718,390.0240670996718,390.0240670996718,390.0240670996718,390.0240670996718,390.0240670996718,390.0240670996718,390.0240670996718,num_1,0.7020068005658686,390.75792569993064,390.75792569993064,None,,4,001,2025-12-16_17h54.10.764,2025C_exp1_detect,2022.2.4,59.94312597561844,
35.3,45,1,1,-1,1,0,96,96,348,390.75792569993064,390.75792569993064,391.25869679963216,391.3252921998501,391.375584599562,391.375584599562,391.375584599562,391.375584599562,391.4254761999473,391.4254761999473,391.4254761999473,391.4254761999473,391.4254761999473,391.4254761999473,391.4254761999473,391.4254761999473,391.4254761999473,391.4254761999473,num_1,0.7002492006868124,392.14264599978924,392.14264599978924,None,,4,001,2025-12-16_17h54.10.764,2025C_exp1_detect,2022.2.4,59.94312597561844,
19.6,45,0,0,-1,1,0,97,97,290,392.14264599978924,392.14264599978924,392.6433052998036,392.7100101998076,392.7603018996306,392.7603018996306,392.7603018996306,392.7603018996306,392.8100221999921,392.8100221999921,392.8100221999921,392.8100221999921,392.8100221999921,392.8100221999921,392.8100221999921,392.8100221999921,392.8100221999921,392.8100221999921,num_3,0.6130579002201557,393.44412739994004,393.44412739994004,None,,4,001,2025-12-16_17h54.10.764,2025C_exp1_detect,2022.2.4,59.94312597561844,
22.7,315,0,0,-1,1,0,98,98,300,393.44412739994004,393.44412739994004,393.9445979995653,394.01130889961496,394.0618171999231,394.0618171999231,394.0618171999231,394.0618171999231,394.111526099965,394.111526099965,394.111526099965,394.111526099965,394.111526099965,394.111526099965,394.111526099965,394.111526099965,394.111526099965,394.111526099965,num_3,0.5744694001041353,394.71208929969,394.71208929969,None,,4,001,2025-12-16_17h54.10.764,2025C_exp1_detect,2022.2.4,59.94312597561844,
42.7,315,1,1,-1,1,0,99,99,359,394.71208929969,394.71208929969,395.21252639964223,395.2792342999019,395.32954179961234,395.32954179961234,395.32954179961234,395.32954179961234,395.37941729975864,395.37941729975864,395.37941729975864,395.37941729975864,395.37941729975864,395.37941729975864,395.37941729975864,395.37941729975864,395.37941729975864,395.37941729975864,num_1,0.6672982005402446,396.0632237996906,396.0632237996906,None,,4,001,2025-12-16_17h54.10.764,2025C_exp1_detect,2022.2.4,59.94312597561844,
35.3,45,0,0,1,1,0,100,100,366,396.0632237996906,396.0632237996906,396.56405659997836,396.630684199743,396.6807721997611,396.6807721997611,396.6807721997611,396.6807721997611,396.7307901997119,396.7307901997119,396.7307901997119,396.7307901997119,396.7307901997119,396.7307901997119,396.7307901997119,396.7307901997119,396.7307901997119,396.7307901997119,num_3,0.6272230003960431,397.3813534998335,397.3813534998335,None,,4,001,2025-12-16_17h54.10.764,2025C_exp1_detect,2022.2.4,59.94312597561844,
19.6,315,0,0,-1,-1,0,101,101,155,397.3813534998335,397.3813534998335,397.88186789955944,397.94850049959496,397.9988182997331,397.9988182997331,397.9988182997331,397.9988182997331,398.0487686996348,398.0487686996348,398.0487686996348,398.0487686996348,398.0487686996348,398.0487686996348,398.0487686996348,398.0487686996348,398.0487686996348,398.0487686996348,num_3,0.5742492000572383,398.64939719997346,398.64939719997346,None,,4,001,2025-12-16_17h54.10.764,2025C_exp1_detect,2022.2.4,59.94312597561844,
15.7,45,1,0,1,-1,0,102,102,235,398.64939719997346,398.64939719997346,399.1498113996349,399.21652619959787,399.2669487996027,399.2669487996027,399.2669487996027,399.2669487996027,399.316580099985,399.316580099985,399.316580099985,399.316580099985,399.316580099985,399.316580099985,399.316580099985,399.316580099985,399.316580099985,399.316580099985,num_3,1.2746073002927005,400.6179341999814,400.6179341999814,None,,4,001,2025-12-16_17h54.10.764,2025C_exp1_detect,2022.2.4,59.94312597561844,
22.7,315,0,1,-1,1,0,103,103,336,400.6179341999814,400.6179341999814,401.11842679977417,401.18515179958194,401.2352998997085,401.2352998997085,401.2352998997085,401.2352998997085,401.2853072998114,401.2853072998114,401.2853072998114,401.2853072998114,401.2853072998114,401.2853072998114,401.2853072998114,401.2853072998114,401.2853072998114,401.2853072998114,num_3,0.768346100114286,402.08588919974864,402.08588919974864,None,,4,001,2025-12-16_17h54.10.764,2025C_exp1_detect,2022.2.4,59.94312597561844,
15.7,45,1,1,1,-1,0,104,104,271,402.08588919974864,402.08588919974864,402.5867368998006,402.6533978995867,402.7037139995955,402.7037139995955,402.7037139995955,402.7037139995955,402.75349409971386,402.75349409971386,402.75349409971386,402.75349409971386,402.75349409971386,402.75349409971386,402.75349409971386,402.75349409971386,402.75349409971386,402.75349409971386,num_1,0.7168597006238997,403.48731809994206,403.48731809994206,None,,4,001,2025-12-16_17h54.10.764,2025C_exp1_detect,2022.2.4,59.94312597561844,
29.4,315,1,1,-1,1,0,105,105,356,403.48731809994206,403.48731809994206,403.98808779986575,404.0546972998418,404.1050198995508,404.1050198995508,404.1050198995508,404.1050198995508,404.1547272996977,404.1547272996977,404.1547272996977,404.1547272996977,404.1547272996977,404.1547272996977,404.1547272996977,404.1547272996977,404.1547272996977,404.1547272996977,num_1,0.6600742004811764,404.8388578998856,404.8388578998856,None,,4,001,2025-12-16_17h54.10.764,2025C_exp1_detect,2022.2.4,59.94312597561844,
39.2,315,1,1,-1,1,0,106,106,358,404.8388578998856,404.8388578998856,405.3393415999599,405.4060581997037,405.4562384998426,405.4562384998426,405.4562384998426,405.4562384998426,405.5062401997857,405.5062401997857,405.5062401997857,405.5062401997857,405.5062401997857,405.5062401997857,405.5062401997857,405.5062401997857,405.5062401997857,405.5062401997857,num_1,0.532325700391084,406.05656149983406,406.05656149983406,None,,4,001,2025-12-16_17h54.10.764,2025C_exp1_detect,2022.2.4,59.94312597561844,
29.4,315,0,0,1,-1,0,107,107,230,406.05656149983406,406.05656149983406,406.5572443995625,406.6240385998972,406.6743226996623,406.6743226996623,406.6743226996623,406.6743226996623,406.7241001999937,406.7241001999937,406.7241001999937,406.7241001999937,406.7241001999937,406.7241001999937,406.7241001999937,406.7241001999937,406.7241001999937,406.7241001999937,num_3,0.6266846000216901,407.37463059974834,407.37463059974834,space,148.83183530019596,4,001,2025-12-16_17h54.10.764,2025C_exp1_detect,2022.2.4,59.94312597561844,
19.6,315,1,0,1,-1,0,108,108,245,556.2236175998114,556.2236175998114,556.7240502997302,556.7907181996852,556.8410354997031,556.8410354997031,556.8410354997031,556.8410354997031,556.8907741997391,556.8907741997391,556.8907741997391,556.8907741997391,556.8907741997391,556.8907741997391,556.8907741997391,556.8907741997391,556.8907741997391,556.8907741997391,num_3,1.4198674005456269,558.3424000996165,558.3424000996165,None,,4,001,2025-12-16_17h54.10.764,2025C_exp1_detect,2022.2.4,59.94312597561844,
19.6,315,1,1,-1,1,0,109,109,353,558.3424000996165,558.3424000996165,558.84290339984,558.9096000995487,558.9599225996062,558.9599225996062,558.9599225996062,558.9599225996062,559.0096389995888,559.0096389995888,559.0096389995888,559.0096389995888,559.0096389995888,559.0096389995888,559.0096389995888,559.0096389995888,559.0096389995888,559.0096389995888,num_1,0.7574315001256764,559.7936869999394,559.7936869999394,None,,4,001,2025-12-16_17h54.10.764,2025C_exp1_detect,2022.2.4,59.94312597561844,
39.2,45,0,0,-1,0,0,110,110,7,559.7936869999394,559.7936869999394,560.2941980999894,560.3609342998825,560.4112340998836,560.4112340998836,560.4112340998836,560.4112340998836,560.461084799841,560.461084799841,560.461084799841,560.461084799841,560.461084799841,560.461084799841,560.461084799841,560.461084799841,560.461084799841,560.461084799841,num_3,0.849160700570792,561.3285971996374,561.3285971996374,None,,4,001,2025-12-16_17h54.10.764,2025C_exp1_detect,2022.2.4,59.94312597561844,
19.6,45,1,1,1,1,0,111,111,416,561.3285971996374,561.3285971996374,561.8290334995836,561.8957358999178,561.9461586996913,561.9461586996913,561.9461586996913,561.9461586996913,561.9958983999677,561.9958983999677,561.9958983999677,561.9958983999677,561.9958983999677,561.9958983999677,561.9958983999677,561.9958983999677,561.9958983999677,561.9958983999677,num_1,0.6979269003495574,562.7132221995853,562.7132221995853,None,,4,001,2025-12-16_17h54.10.764,2025C_exp1_detect,2022.2.4,59.94312597561844,
35.3,45,1,1,-1,-1,0,112,112,204,562.7132221995853,562.7132221995853,563.213725999929,563.2805081997067,563.3307968997397,563.3307968997397,563.3307968997397,563.3307968997397,563.3806900996715,563.3806900996715,563.3806900996715,563.3806900996715,563.3806900996715,563.3806900996715,563.3806900996715,563.3806900996715,563.3806900996715,563.3806900996715,num_1,0.6905507002957165,564.0979716996662,564.0979716996662,None,,4,001,2025-12-16_17h54.10.764,2025C_exp1_detect,2022.2.4,59.94312597561844,
12.1,45,1,1,1,0,0,113,113,126,564.0979716996662,564.0979716996662,564.5986215998419,564.6653533997014,564.7155576995574,564.7155576995574,564.7155576995574,564.7155576995574,564.7655548998155,564.7655548998155,564.7655548998155,564.7655548998155,564.7655548998155,564.7655548998155,564.7655548998155,564.7655548998155,564.7655548998155,564.7655548998155,num_1,0.6562725002877414,565.4495377996936,565.4495377996936,None,,4,001,2025-12-16_17h54.10.764,2025C_exp1_detect,2022.2.4,59.94312597561844,
19.6,315,0,1,-1,-1,0,114,114,191,565.4495377996936,565.4495377996936,565.9498838996515,566.0165773998015,566.0668380996212,566.0668380996212,566.0668380996212,566.0668380996212,566.1167344995774,566.1167344995774,566.1167344995774,566.1167344995774,566.1167344995774,566.1167344995774,566.1167344995774,566.1167344995774,566.1167344995774,566.1167344995774,num_3,0.7615128005854785,566.9008153998293,566.9008153998293,None,,4,001,2025-12-16_17h54.10.764,2025C_exp1_detect,2022.2.4,59.94312597561844,
25.5,45,1,1,1,-1,0,115,115,274,566.9008153998293,566.9008153998293,567.4010987998918,567.4680635998957,567.5182872996666,567.5182872996666,567.5182872996666,567.5182872996666,567.568240699824,567.568240699824,567.568240699824,567.568240699824,567.568240699824,567.568240699824,567.568240699824,567.568240699824,567.568240699824,567.568240699824,num_1,0.5908253001980484,568.1853097998537,568.1853097998537,None,,4,001,2025-12-16_17h54.10.764,2025C_exp1_detect,2022.2.4,59.94312597561844,
35.3,315,1,1,-1,0,0,116,116,69,568.1853097998537,568.1853097998537,568.6858282997273,568.7527400995605,568.8029494998045,568.8029494998045,568.8029494998045,568.8029494998045,568.8528354996815,568.8528354996815,568.8528354996815,568.8528354996815,568.8528354996815,568.8528354996815,568.8528354996815,568.8528354996815,568.8528354996815,568.8528354996815,num_1,0.7454285002313554,569.6201955997385,569.6201955997385,None,,4,001,2025-12-16_17h54.10.764,2025C_exp1_detect,2022.2.4,59.94312597561844,
22.7,315,1,1,1,1,0,117,117,426,569.6201955997385,569.6201955997385,570.1206788998097,570.1876811999828,570.2378352996893,570.2378352996893,570.2378352996893,570.2378352996893,570.2876814999618,570.2876814999618,570.2876814999618,570.2876814999618,570.2876814999618,570.2876814999618,570.2876814999618,570.2876814999618,570.2876814999618,570.2876814999618,num_1,0.6542438007891178,570.9716867995448,570.9716867995448,None,,4,001,2025-12-16_17h54.10.764,2025C_exp1_detect,2022.2.4,59.94312597561844,
39.2,315,1,0,-1,0,0,118,118,34,570.9716867995448,570.9716867995448,571.4720420995727,571.538764399942,571.5890323999338,571.5890323999338,571.5890323999338,571.5890323999338,571.6389399999753,571.6389399999753,571.6389399999753,571.6389399999753,571.6389399999753,571.6389399999753,571.6389399999753,571.6389399999753,571.6389399999753,571.6389399999753,num_1,0.654933400452137,572.3227541996166,572.3227541996166,None,,4,001,2025-12-16_17h54.10.764,2025C_exp1_detect,2022.2.4,59.94312597561844,
12.1,315,0,1,-1,1,0,119,119,333,572.3227541996166,572.3227541996166,572.8233922999352,572.8901151996106,572.9403606997803,572.9403606997803,572.9403606997803,572.9403606997803,572.99026449956,572.99026449956,572.99026449956,572.99026449956,572.99026449956,572.99026449956,572.99026449956,572.99026449956,572.99026449956,572.99026449956,num_3,0.7438896005041897,573.7577979997732,573.7577979997732,None,,4,001,2025-12-16_17h54.10.764,2025C_exp1_detect,2022.2.4,59.94312597561844,
15.7,315,1,1,1,-1,0,120,120,280,573.7577979997732,573.7577979997732,574.2581689995714,574.3248821999878,574.3750802995637,574.3750802995637,574.3750802995637,574.3750802995637,574.4249094999395,574.4249094999395,574.4249094999395,574.4249094999395,574.4249094999395,574.4249094999395,574.4249094999395,574.4249094999395,574.4249094999395,574.4249094999395,num_1,0.6211881004273891,575.0757471998222,575.0757471998222,None,,4,001,2025-12-16_17h54.10.764,2025C_exp1_detect,2022.2.4,59.94312597561844,
39.2,315,0,1,1,0,0,121,121,124,575.0757471998222,575.0757471998222,575.5759847997688,575.6426206999458,575.693143799901,575.693143799901,575.693143799901,575.693143799901,575.7428980995901,575.7428980995901,575.7428980995901,575.7428980995901,575.7428980995901,575.7428980995901,575.7428980995901,575.7428980995901,575.7428980995901,575.7428980995901,num_1,0.6794329006224871,576.4435426997952,576.4435426997952,None,,4,001,2025-12-16_17h54.10.764,2025C_exp1_detect,2022.2.4,59.94312597561844,
12.1,315,1,1,1,0,0,122,122,135,576.4435426997952,576.4435426997952,576.944280799944,577.0109431999736,577.0613311999477,577.0613311999477,577.0613311999477,577.0613311999477,577.1110728997737,577.1110728997737,577.1110728997737,577.1110728997737,577.1110728997737,577.1110728997737,577.1110728997737,577.1110728997737,577.1110728997737,577.1110728997737,num_1,0.5673675001598895,577.6948699997738,577.6948699997738,None,,4,001,2025-12-16_17h54.10.764,2025C_exp1_detect,2022.2.4,59.94312597561844,
42.7,45,0,1,-1,0,0,123,123,44,577.6948699997738,577.6948699997738,578.1951422998682,578.2620250997134,578.3123580999672,578.3123580999672,578.3123580999672,578.3123580999672,578.3623564997688,578.3623564997688,578.3623564997688,578.3623564997688,578.3623564997688,578.3623564997688,578.3623564997688,578.3623564997688,578.3623564997688,578.3623564997688,num_3,1.0524315005168319,579.4465454998426,579.4465454998426,None,,4,001,2025-12-16_17h54.10.764,2025C_exp1_detect,2022.2.4,59.94312597561844,
42.7,45,0,1,-1,-1,0,124,124,188,579.4465454998426,579.4465454998426,579.9470603996888,580.0139004997909,580.06415069988,580.06415069988,580.06415069988,580.06415069988,580.1141094998457,580.1141094998457,580.1141094998457,580.1141094998457,580.1141094998457,580.1141094998457,580.1141094998457,580.1141094998457,580.1141094998457,580.1141094998457,num_3,0.8200380001217127,580.964892799966,580.964892799966,None,,4,001,2025-12-16_17h54.10.764,2025C_exp1_detect,2022.2.4,59.94312597561844,
15.7,45,1,0,-1,0,0,125,125,19,580.964892799966,580.964892799966,581.4652937999927,581.5321516999975,581.5824313997291,581.5824313997291,581.5824313997291,581.5824313997291,581.6321976999752,581.6321976999752,581.6321976999752,581.6321976999752,581.6321976999752,581.6321976999752,581.6321976999752,581.6321976999752,581.6321976999752,581.6321976999752,num_1,0.6462201005779207,582.2992584998719,582.2992584998719,None,,4,001,2025-12-16_17h54.10.764,2025C_exp1_detect,2022.2.4,59.94312597561844,
22.7,45,0,1,1,1,0,126,126,399,582.2992584998719,582.2992584998719,582.80003139982,582.866743999999,582.9170501995832,582.9170501995832,582.9170501995832,582.9170501995832,582.9669451997615,582.9669451997615,582.9669451997615,582.9669451997615,582.9669451997615,582.9669451997615,582.9669451997615,582.9669451997615,582.9669451997615,582.9669451997615,num_1,0.6310601001605392,583.617537799757,583.617537799757,None,,4,001,2025-12-16_17h54.10.764,2025C_exp1_detect,2022.2.4,59.94312597561844,
25.5,315,0,0,-1,-1,0,127,127,157,583.617537799757,583.617537799757,584.1181409996934,584.1848912998103,584.2350839995779,584.2350839995779,584.2350839995779,584.2350839995779,584.2849550996907,584.2849550996907,584.2849550996907,584.2849550996907,584.2849550996907,584.2849550996907,584.2849550996907,584.2849550996907,584.2849550996907,584.2849550996907,num_3,0.633557100314647,584.9355142996646,584.9355142996646,None,,4,001,2025-12-16_17h54.10.764,2025C_exp1_detect,2022.2.4,59.94312597561844,
19.6,315,0,0,1,1,0,128,128,371,584.9355142996646,584.9355142996646,585.4359958996065,585.5027589998208,585.5528661999851,585.5528661999851,585.5528661999851,585.5528661999851,585.6029250998981,585.6029250998981,585.6029250998981,585.6029250998981,585.6029250998981,585.6029250998981,585.6029250998981,585.6029250998981,585.6029250998981,585.6029250998981,num_3,0.8917522002011538,586.5202384996228,586.5202384996228,None,,4,001,2025-12-16_17h54.10.764,2025C_exp1_detect,2022.2.4,59.94312597561844,
42.7,315,1,0,1,-1,0,129,129,251,586.5202384996228,586.5202384996228,587.020924099721,587.0876515996642,587.1379170999862,587.1379170999862,587.1379170999862,587.1379170999862,587.1878078998998,587.1878078998998,587.1878078998998,587.1878078998998,587.1878078998998,587.1878078998998,587.1878078998998,587.1878078998998,587.1878078998998,587.1878078998998,num_3,0.7781046004965901,587.9887154996395,587.9887154996395,None,,4,001,2025-12-16_17h54.10.764,2025C_exp1_detect,2022.2.4,59.94312597561844,
25.5,45,0,0,1,0,0,130,130,76,587.9887154996395,587.9887154996395,588.488853499759,588.5555153996684,588.6061445996165,588.6061445996165,588.6061445996165,588.6061445996165,588.6559363999404,588.6559363999404,588.6559363999404,588.6559363999404,588.6559363999404,588.6559363999404,588.6559363999404,588.6559363999404,588.6559363999404,588.6559363999404,num_3,0.6147998003289104,589.2897079996765,589.2897079996765,None,,4,001,2025-12-16_17h54.10.764,2025C_exp1_detect,2022.2.4,59.94312597561844,
42.7,315,0,0,-1,-1,0,131,131,161,589.2897079996765,589.2897079996765,589.7903120997362,589.8570778998546,589.9074190999381,589.9074190999381,589.9074190999381,589.9074190999381,589.9573415997438,589.9573415997438,589.9573415997438,589.9573415997438,589.9573415997438,589.9573415997438,589.9573415997438,589.9573415997438,589.9573415997438,589.9573415997438,num_3,0.8324641003273427,590.8080422999337,590.8080422999337,None,,4,001,2025-12-16_17h54.10.764,2025C_exp1_detect,2022.2.4,59.94312597561844,
12.1,45,1,0,1,1,0,132,132,378,590.8080422999337,590.8080422999337,591.3084332998842,591.3752872999758,591.4255573996343,591.4255573996343,591.4255573996343,591.4255573996343,591.475434999913,591.475434999913,591.475434999913,591.475434999913,591.475434999913,591.475434999913,591.475434999913,591.475434999913,591.475434999913,591.475434999913,num_3,0.8433232000097632,592.3429358997382,592.3429358997382,None,,4,001,2025-12-16_17h54.10.764,2025C_exp1_detect,2022.2.4,59.94312597561844,
42.7,315,0,1,-1,1,0,133,133,341,592.3429358997382,592.3429358997382,592.8434202997014,592.9101180997677,592.9604203999043,592.9604203999043,592.9604203999043,592.9604203999043,593.0101368995383,593.0101368995383,593.0101368995383,593.0101368995383,593.0101368995383,593.0101368995383,593.0101368995383,593.0101368995383,593.0101368995383,593.0101368995383,num_3,0.6205128002911806,593.6607438996434,593.6607438996434,None,,4,001,2025-12-16_17h54.10.764,2025C_exp1_detect,2022.2.4,59.94312597561844,
35.3,45,1,1,1,1,0,134,134,420,593.6607438996434,593.6607438996434,594.1610869998112,594.2280836999416,594.2783249998465,594.2783249998465,594.2783249998465,594.2783249998465,594.328146699816,594.328146699816,594.328146699816,594.328146699816,594.328146699816,594.328146699816,594.328146699816,594.328146699816,594.328146699816,594.328146699816,num_1,0.6707060001790524,595.0288138999604,595.0288138999604,None,,4,001,2025-12-16_17h54.10.764,2025C_exp1_detect,2022.2.4,59.94312597561844,
22.7,45,0,1,-1,0,0,135,135,39,595.0288138999604,595.0288138999604,595.5294532999396,595.5961356996559,595.6465899995528,595.6465899995528,595.6465899995528,595.6465899995528,595.6962236999534,595.6962236999534,595.6962236999534,595.6962236999534,595.6962236999534,595.6962236999534,595.6962236999534,595.6962236999534,595.6962236999534,595.6962236999534,num_3,0.7256407006643713,596.4470001999289,596.4470001999289,None,,4,001,2025-12-16_17h54.10.764,2025C_exp1_detect,2022.2.4,59.94312597561844,
29.4,45,0,0,-1,0,0,136,136,5,596.4470001999289,596.4470001999289,596.9475594996475,597.0142158996314,597.0644833999686,597.0644833999686,597.0644833999686,597.0644833999686,597.1142645999789,597.1142645999789,597.1142645999789,597.1142645999789,597.1142645999789,597.1142645999789,597.1142645999789,597.1142645999789,597.1142645999789,597.1142645999789,num_3,0.6450613001361489,597.7816914999858,597.7816914999858,None,,4,001,2025-12-16_17h54.10.764,2025C_exp1_detect,2022.2.4,59.94312597561844,
42.7,45,0,0,-1,0,0,137,137,8,597.7816914999858,597.7816914999858,598.2822027998045,598.3487384999171,598.399175899569,598.399175899569,598.399175899569,598.399175899569,598.4489957997575,598.4489957997575,598.4489957997575,598.4489957997575,598.4489957997575,598.4489957997575,598.4489957997575,598.4489957997575,598.4489957997575,598.4489957997575,num_3,0.5648174001835287,599.0326131996699,599.0326131996699,None,,4,001,2025-12-16_17h54.10.764,2025C_exp1_detect,2022.2.4,59.94312597561844,
12.1,45,1,1,1,-1,0,138,138,270,599.0326131996699,599.0326131996699,599.5333542996086,599.6000604997389,599.6504485998303,599.6504485998303,599.6504485998303,599.6504485998303,599.7002629996277,599.7002629996277,599.7002629996277,599.7002629996277,599.7002629996277,599.7002629996277,599.7002629996277,599.7002629996277,599.7002629996277,599.7002629996277,num_1,0.593250900041312,600.3175615998916,600.3175615998916,None,,4,001,2025-12-16_17h54.10.764,2025C_exp1_detect,2022.2.4,59.94312597561844,
22.7,315,1,0,-1,0,0,139,139,30,600.3175615998916,600.3175615998916,600.8180456999689,600.8849042998627,600.9351860997267,600.9351860997267,600.9351860997267,600.9351860997267,600.9849857999943,600.9849857999943,600.9849857999943,600.9849857999943,600.9849857999943,600.9849857999943,600.9849857999943,600.9849857999943,600.9849857999943,600.9849857999943,num_1,0.7975810002535582,601.8023172998801,601.8023172998801,None,,4,001,2025-12-16_17h54.10.764,2025C_exp1_detect,2022.2.4,59.94312597561844,
25.5,45,1,1,-1,1,0,140,140,346,601.8023172998801,601.8023172998801,602.3030216996558,602.369473699946,602.4198433998972,602.4198433998972,602.4198433998972,602.4198433998972,602.4696525996551,602.4696525996551,602.4696525996551,602.4696525996551,602.4696525996551,602.4696525996551,602.4696525996551,602.4696525996551,602.4696525996551,602.4696525996551,num_1,0.9052430004812777,603.403993499931,603.403993499931,None,,4,001,2025-12-16_17h54.10.764,2025C_exp1_detect,2022.2.4,59.94312597561844,
15.7,45,0,0,1,-1,0,141,141,217,603.403993499931,603.403993499931,603.9043372999877,603.9711551996879,604.021435499657,604.021435499657,604.021435499657,604.021435499657,604.0712254997343,604.0712254997343,604.0712254997343,604.0712254997343,604.0712254997343,604.0712254997343,604.0712254997343,604.0712254997343,604.0712254997343,604.0712254997343,num_3,0.9988044006749988,605.0889951996505,605.0889951996505,None,,4,001,2025-12-16_17h54.10.764,2025C_exp1_detect,2022.2.4,59.94312597561844,
22.7,45,1,1,1,-1,0,142,142,273,605.0889951996505,605.0889951996505,605.5895607997663,605.6562356995419,605.7065386995673,605.7065386995673,605.7065386995673,605.7065386995673,605.7563059995882,605.7563059995882,605.7563059995882,605.7563059995882,605.7563059995882,605.7563059995882,605.7563059995882,605.7563059995882,605.7563059995882,605.7563059995882,num_1,1.1543374005705118,606.9406734998338,606.9406734998338,None,,4,001,2025-12-16_17h54.10.764,2025C_exp1_detect,2022.2.4,59.94312597561844,
25.5,315,0,1,-1,0,0,143,143,49,606.9406734998338,606.9406734998338,607.4413367998786,607.5081492997706,607.5583886997774,607.5583886997774,607.5583886997774,607.5583886997774,607.6082409997471,607.6082409997471,607.6082409997471,607.6082409997471,607.6082409997471,607.6082409997471,607.6082409997471,607.6082409997471,607.6082409997471,607.6082409997471,num_3,0.709801200311631,608.3422214998864,608.3422214998864,None,,4,001,2025-12-16_17h54.10.764,2025C_exp1_detect,2022.2.4,59.94312597561844,
42.7,315,1,0,1,0,0,144,144,107,608.3422214998864,608.3422214998864,608.8427859996445,608.9094846998341,608.9597488995641,608.9597488995641,608.9597488995641,608.9597488995641,609.0096503999084,609.0096503999084,609.0096503999084,609.0096503999084,609.0096503999084,609.0096503999084,609.0096503999084,609.0096503999084,609.0096503999084,609.0096503999084,num_3,1.0053987000137568,610.0437280996703,610.0437280996703,None,,4,001,2025-12-16_17h54.10.764,2025C_exp1_detect,2022.2.4,59.94312597561844,
39.2,315,1,1,1,1,0,145,145,430,610.0437280996703,610.0437280996703,610.5444193999283,610.6111460998654,610.6614710995927,610.6614710995927,610.6614710995927,610.6614710995927,610.7113284999505,610.7113284999505,610.7113284999505,610.7113284999505,610.7113284999505,610.7113284999505,610.7113284999505,610.7113284999505,610.7113284999505,610.7113284999505,num_1,1.7106582005508244,612.4462655996904,612.4462655996904,None,,4,001,2025-12-16_17h54.10.764,2025C_exp1_detect,2022.2.4,59.94312597561844,
12.1,315,0,0,1,-1,0,146,146,225,612.4462655996904,612.4462655996904,612.9468647995964,613.0135811995715,613.0638591996394,613.0638591996394,613.0638591996394,613.0638591996394,613.113658499904,613.113658499904,613.113658499904,613.113658499904,613.113658499904,613.113658499904,613.113658499904,613.113658499904,613.113658499904,613.113658499904,num_3,0.7894582003355026,613.9310398995876,613.9310398995876,None,,4,001,2025-12-16_17h54.10.764,2025C_exp1_detect,2022.2.4,59.94312597561844,
29.4,45,1,0,1,-1,0,147,147,239,613.9310398995876,613.9310398995876,614.4316476997919,614.498381999787,614.548575299792,614.548575299792,614.548575299792,614.548575299792,614.5985680995509,614.5985680995509,614.5985680995509,614.5985680995509,614.5985680995509,614.5985680995509,614.5985680995509,614.5985680995509,614.5985680995509,614.5985680995509,num_3,0.7752473000437021,615.3992977999151,615.3992977999151,None,,4,001,2025-12-16_17h54.10.764,2025C_exp1_detect,2022.2.4,59.94312597561844,
19.6,315,0,1,1,1,0,148,148,407,615.3992977999151,615.3992977999151,615.8994797999039,615.9661973998882,616.0168941998854,616.0168941998854,616.0168941998854,616.0168941998854,616.0669155996293,616.0669155996293,616.0669155996293,616.0669155996293,616.0669155996293,616.0669155996293,616.0669155996293,616.0669155996293,616.0669155996293,616.0669155996293,num_1,1.212106500286609,617.3011572998948,617.3011572998948,None,,4,001,2025-12-16_17h54.10.764,2025C_exp1_detect,2022.2.4,59.94312597561844,
39.2,45,1,0,1,1,0,149,149,385,617.3011572998948,617.3011572998948,617.8017046996392,617.8684346997179,617.9186842995696,617.9186842995696,617.9186842995696,617.9186842995696,617.9684816999361,617.9684816999361,617.9684816999361,617.9684816999361,617.9684816999361,617.9684816999361,617.9684816999361,617.9684816999361,617.9684816999361,617.9684816999361,num_3,0.8621123004704714,618.85271429969,618.85271429969,None,,4,001,2025-12-16_17h54.10.764,2025C_exp1_detect,2022.2.4,59.94312597561844,
39.2,45,0,1,1,1,0,150,150,403,618.85271429969,618.85271429969,619.3533287998289,619.4198900996707,619.470217899885,619.470217899885,619.470217899885,619.470217899885,619.5200528996065,619.5200528996065,619.5200528996065,619.5200528996065,619.5200528996065,619.5200528996065,619.5200528996065,619.5200528996065,619.5200528996065,619.5200528996065,num_1,1.3737192004919052,620.9213225999847,620.9213225999847,None,,4,001,2025-12-16_17h54.10.764,2025C_exp1_detect,2022.2.4,59.94312597561844,
35.3,315,0,0,1,1,0,151,151,375,620.9213225999847,620.9213225999847,621.4219715995714,621.4886965998448,621.5389385996386,621.5389385996386,621.5389385996386,621.5389385996386,621.5888712997548,621.5888712997548,621.5888712997548,621.5888712997548,621.5888712997548,621.5888712997548,621.5888712997548,621.5888712997548,621.5888712997548,621.5888712997548,num_3,0.769286300521344,622.3895555995405,622.3895555995405,None,,4,001,2025-12-16_17h54.10.764,2025C_exp1_detect,2022.2.4,59.94312597561844,
19.6,45,0,1,1,-1,0,152,152,254,622.3895555995405,622.3895555995405,622.890108499676,622.95663209958,623.0070593999699,623.0070593999699,623.0070593999699,623.0070593999699,623.0570013998076,623.0570013998076,623.0570013998076,623.0570013998076,623.0570013998076,623.0570013998076,623.0570013998076,623.0570013998076,623.0570013998076,623.0570013998076,num_1,1.1889315000735223,624.2747942996211,624.2747942996211,None,,4,001,2025-12-16_17h54.10.764,2025C_exp1_detect,2022.2.4,59.94312597561844,
22.7,315,0,0,-1,0,0,153,153,12,624.2747942996211,624.2747942996211,624.7752791997045,624.8420458999462,624.8923378996551,624.8923378996551,624.8923378996551,624.8923378996551,624.9422225998715,624.9422225998715,624.9422225998715,624.9422225998715,624.9422225998715,624.9422225998715,624.9422225998715,624.9422225998715,624.9422225998715,624.9422225998715,num_3,1.0395739004015923,626.0097447996959,626.0097447996959,None,,4,001,2025-12-16_17h54.10.764,2025C_exp1_detect,2022.2.4,59.94312597561844,
35.3,315,1,0,1,0,0,154,154,105,626.0097447996959,626.0097447996959,626.5104407998733,626.5771530997008,626.6273366999812,626.6273366999812,626.6273366999812,626.6273366999812,626.6774366996251,626.6774366996251,626.6774366996251,626.6774366996251,626.6774366996251,626.6774366996251,626.6774366996251,626.6774366996251,626.6774366996251,626.6774366996251,num_3,0.9443626003339887,627.6447754995897,627.6447754995897,None,,4,001,2025-12-16_17h54.10.764,2025C_exp1_detect,2022.2.4,59.94312597561844,
35.3,315,0,1,-1,1,0,155,155,339,627.6447754995897,627.6447754995897,628.1452495995909,628.2120879995637,628.2623848998919,628.2623848998919,628.2623848998919,628.2623848998919,628.3122481997125,628.3122481997125,628.3122481997125,628.3122481997125,628.3122481997125,628.3122481997125,628.3122481997125,628.3122481997125,628.3122481997125,628.3122481997125,num_3,1.0775100006721914,629.4131382997148,629.4131382997148,None,,4,001,2025-12-16_17h54.10.764,2025C_exp1_detect,2022.2.4,59.94312597561844,
25.5,45,1,0,1,0,0,156,156,94,629.4131382997148,629.4131382997148,629.9137366996147,629.980667699594,630.0309107997455,630.0309107997455,630.0309107997455,630.0309107997455,630.0807571997866,630.0807571997866,630.0807571997866,630.0807571997866,630.0807571997866,630.0807571997866,630.0807571997866,630.0807571997866,630.0807571997866,630.0807571997866,num_3,0.7809960003942251,630.88132199971,630.88132199971,None,,4,001,2025-12-16_17h54.10.764,2025C_exp1_detect,2022.2.4,59.94312597561844,
42.7,45,0,0,-1,1,0,157,157,296,630.88132199971,630.88132199971,631.3819191996008,631.4487243997864,631.4989629997872,631.4989629997872,631.4989629997872,631.4989629997872,631.5488154999912,631.5488154999912,631.5488154999912,631.5488154999912,631.5488154999912,631.5488154999912,631.5488154999912,631.5488154999912,631.5488154999912,631.5488154999912,num_3,0.6498608002439141,632.2161002997309,632.2161002997309,None,,4,001,2025-12-16_17h54.10.764,2025C_exp1_detect,2022.2.4,59.94312597561844,
25.5,315,1,0,1,1,0,158,158,391,632.2161002997309,632.2161002997309,632.7167198997922,632.7834719996899,632.8337208000012,632.8337208000012,632.8337208000012,632.8337208000012,632.883384599816,632.883384599816,632.883384599816,632.883384599816,632.883384599816,632.883384599816,632.883384599816,632.883384599816,632.883384599816,632.883384599816,num_3,0.8262622002512217,633.7341228998266,633.7341228998266,None,,4,001,2025-12-16_17h54.10.764,2025C_exp1_detect,2022.2.4,59.94312597561844,
25.5,45,0,1,-1,-1,0,159,159,184,633.7341228998266,633.7341228998266,634.2348041995429,634.3012611996382,634.3516396996565,634.3516396996565,634.3516396996565,634.3516396996565,634.401643499732,634.401643499732,634.401643499732,634.401643499732,634.401643499732,634.401643499732,634.401643499732,634.401643499732,634.401643499732,634.401643499732,num_3,0.8372288001701236,635.2690615998581,635.2690615998581,None,,4,001,2025-12-16_17h54.10.764,2025C_exp1_detect,2022.2.4,59.94312597561844,
39.2,315,1,0,-1,1,0,160,160,322,635.2690615998581,635.2690615998581,635.7696166997775,635.8363523995504,635.8866557995789,635.8866557995789,635.8866557995789,635.8866557995789,635.9364451998845,635.9364451998845,635.9364451998845,635.9364451998845,635.9364451998845,635.9364451998845,635.9364451998845,635.9364451998845,635.9364451998845,635.9364451998845,num_1,0.9662738004699349,636.9206606997177,636.9206606997177,None,,4,001,2025-12-16_17h54.10.764,2025C_exp1_detect,2022.2.4,59.94312597561844,
22.7,45,0,1,1,-1,0,161,161,255,636.9206606997177,636.9206606997177,637.4213028997183,637.4879868999124,637.5382511997595,637.5382511997595,637.5382511997595,637.5382511997595,637.5881802998483,637.5881802998483,637.5881802998483,637.5881802998483,637.5881802998483,637.5881802998483,637.5881802998483,637.5881802998483,637.5881802998483,637.5881802998483,num_1,0.7856638003140688,638.4056710996665,638.4056710996665,None,,4,001,2025-12-16_17h54.10.764,2025C_exp1_detect,2022.2.4,59.94312597561844,
42.7,315,1,0,-1,1,0,162,162,323,638.4056710996665,638.4056710996665,638.9060196997598,638.9728744998574,639.0231639998965,639.0231639998965,639.0231639998965,639.0231639998965,639.0730084995739,639.0730084995739,639.0730084995739,639.0730084995739,639.0730084995739,639.0730084995739,639.0730084995739,639.0730084995739,639.0730084995739,639.0730084995739,num_1,0.7406427003443241,639.8402786999941,639.8402786999941,None,,4,001,2025-12-16_17h54.10.764,2025C_exp1_detect,2022.2.4,59.94312597561844,
22.7,45,1,0,-1,0,0,163,163,21,639.8402786999941,639.8402786999941,640.3409118996933,640.4076331998222,640.4578050998971,640.4578050998971,640.4578050998971,640.4578050998971,640.5077277999371,640.5077277999371,640.5077277999371,640.5077277999371,640.5077277999371,640.5077277999371,640.5077277999371,640.5077277999371,640.5077277999371,640.5077277999371,num_1,0.6351545001380146,641.1750557995401,641.1750557995401,None,,4,001,2025-12-16_17h54.10.764,2025C_exp1_detect,2022.2.4,59.94312597561844,
19.6,45,0,1,-1,-1,0,164,164,182,641.1750557995401,641.1750557995401,641.675570699852,641.7422750997357,641.7925855997019,641.7925855997019,641.7925855997019,641.7925855997019,641.8424324998632,641.8424324998632,641.8424324998632,641.8424324998632,641.8424324998632,641.8424324998632,641.8424324998632,641.8424324998632,641.8424324998632,641.8424324998632,num_3,0.7159369001165032,642.5763495997526,642.5763495997526,None,,4,001,2025-12-16_17h54.10.764,2025C_exp1_detect,2022.2.4,59.94312597561844,
22.7,45,0,0,1,1,0,165,165,363,642.5763495997526,642.5763495997526,643.076799699571,643.1436219997704,643.1939492998645,643.1939492998645,643.1939492998645,643.1939492998645,643.2438731999137,643.2438731999137,643.2438731999137,643.2438731999137,643.2438731999137,643.2438731999137,643.2438731999137,643.2438731999137,643.2438731999137,643.2438731999137,num_3,0.7148041003383696,643.97759639984,643.97759639984,None,,4,001,2025-12-16_17h54.10.764,2025C_exp1_detect,2022.2.4,59.94312597561844,
42.7,45,0,0,1,-1,0,166,166,224,643.97759639984,643.97759639984,644.4782594996504,644.5449675996788,644.5954163996503,644.5954163996503,644.5954163996503,644.5954163996503,644.6451381999068,644.6451381999068,644.6451381999068,644.6451381999068,644.6451381999068,644.6451381999068,644.6451381999068,644.6451381999068,644.6451381999068,644.6451381999068,num_3,0.6092150001786649,645.2790084998123,645.2790084998123,None,,4,001,2025-12-16_17h54.10.764,2025C_exp1_detect,2022.2.4,59.94312597561844,
15.7,315,1,1,1,1,0,167,167,424,645.2790084998123,645.2790084998123,645.7796504995786,645.8463839995675,645.8965944997035,645.8965944997035,645.8965944997035,645.8965944997035,645.9462835998274,645.9462835998274,645.9462835998274,645.9462835998274,645.9462835998274,645.9462835998274,645.9462835998274,645.9462835998274,645.9462835998274,645.9462835998274,num_1,0.651791900396347,646.630557899829,646.630557899829,None,,4,001,2025-12-16_17h54.10.764,2025C_exp1_detect,2022.2.4,59.94312597561844,
12.1,45,1,0,1,0,0,168,168,90,646.630557899829,646.630557899829,647.1310022999533,647.1975877997465,647.2479996997863,647.2479996997863,647.2479996997863,647.2479996997863,647.2978297998197,647.2978297998197,647.2978297998197,647.2978297998197,647.2978297998197,647.2978297998197,647.2978297998197,647.2978297998197,647.2978297998197,647.2978297998197,num_3,0.6452109003439546,647.9650792996399,647.9650792996399,None,,4,001,2025-12-16_17h54.10.764,2025C_exp1_detect,2022.2.4,59.94312597561844,
22.7,315,0,1,1,0,0,169,169,120,647.9650792996399,647.9650792996399,648.4656470995396,648.5323255998082,648.5826121997088,648.5826121997088,648.5826121997088,648.5826121997088,648.6325887995772,648.6325887995772,648.6325887995772,648.6325887995772,648.6325887995772,648.6325887995772,648.6325887995772,648.6325887995772,648.6325887995772,648.6325887995772,num_1,0.5821247003041208,649.2330997996032,649.2330997996032,None,,4,001,2025-12-16_17h54.10.764,2025C_exp1_detect,2022.2.4,59.94312597561844,
22.7,315,0,1,1,1,0,170,170,408,649.2330997996032,649.2330997996032,649.733595199883,649.8003217997029,649.8505518999882,649.8505518999882,649.8505518999882,649.8505518999882,649.9003801997751,649.9003801997751,649.9003801997751,649.9003801997751,649.9003801997751,649.9003801997751,649.9003801997751,649.9003801997751,649.9003801997751,649.9003801997751,num_1,0.610646600369364,650.5344160995446,650.5344160995446,None,,4,001,2025-12-16_17h54.10.764,2025C_exp1_detect,2022.2.4,59.94312597561844,
22.7,315,1,0,1,-1,0,171,171,246,650.5344160995446,650.5344160995446,651.0347936996259,651.101626499556,651.1520404997282,651.1520404997282,651.1520404997282,651.1520404997282,651.2015922996216,651.2015922996216,651.2015922996216,651.2015922996216,651.2015922996216,651.2015922996216,651.2015922996216,651.2015922996216,651.2015922996216,651.2015922996216,num_3,0.67762800026685,651.9024789999239,651.9024789999239,None,,4,001,2025-12-16_17h54.10.764,2025C_exp1_detect,2022.2.4,59.94312597561844,
22.7,45,1,1,1,1,0,172,172,417,651.9024789999239,651.9024789999239,652.4029523995705,652.4696451998316,652.5197422998026,652.5197422998026,652.5197422998026,652.5197422998026,652.5698335999623,652.5698335999623,652.5698335999623,652.5698335999623,652.5698335999623,652.5698335999623,652.5698335999623,652.5698335999623,652.5698335999623,652.5698335999623,num_1,0.6131520001217723,653.2037363997661,653.2037363997661,None,,4,001,2025-12-16_17h54.10.764,2025C_exp1_detect,2022.2.4,59.94312597561844,
15.7,45,1,1,1,1,0,173,173,415,653.2037363997661,653.2037363997661,653.7042523999698,653.7709553996101,653.8211892996915,653.8211892996915,653.8211892996915,653.8211892996915,653.8710000999272,653.8710000999272,653.8710000999272,653.8710000999272,653.8710000999272,653.8710000999272,653.8710000999272,653.8710000999272,653.8710000999272,653.8710000999272,num_1,0.5992991006933153,654.4884886997752,654.4884886997752,None,,4,001,2025-12-16_17h54.10.764,2025C_exp1_detect,2022.2.4,59.94312597561844,
15.7,315,0,1,-1,0,0,174,174,46,654.4884886997752,654.4884886997752,654.9888486997224,655.0555817997083,655.105860799551,655.105860799551,655.105860799551,655.105860799551,655.1554721998982,655.1554721998982,655.1554721998982,655.1554721998982,655.1554721998982,655.1554721998982,655.1554721998982,655.1554721998982,655.1554721998982,655.1554721998982,num_3,0.7952762003988028,655.9729192997329,655.9729192997329,None,,4,001,2025-12-16_17h54.10.764,2025C_exp1_detect,2022.2.4,59.94312597561844,
12.1,315,0,0,1,1,0,175,175,369,655.9729192997329,655.9729192997329,656.4736645999365,656.540368899703,656.5906591997482,656.5906591997482,656.5906591997482,656.5906591997482,656.6405745996162,656.6405745996162,656.6405745996162,656.6405745996162,656.6405745996162,656.6405745996162,656.6405745996162,656.6405745996162,656.6405745996162,656.6405745996162,num_3,0.8220663000829518,657.4912910996936,657.4912910996936,None,,4,001,2025-12-16_17h54.10.764,2025C_exp1_detect,2022.2.4,59.94312597561844,
15.7,315,0,0,-1,-1,0,176,176,154,657.4912910996936,657.4912910996936,657.9918549996801,658.0586066995747,658.108907699585,658.108907699585,658.108907699585,658.108907699585,658.1586557999253,658.1586557999253,658.1586557999253,658.1586557999253,658.1586557999253,658.1586557999253,658.1586557999253,658.1586557999253,658.1586557999253,658.1586557999253,num_3,0.9520673002116382,659.1431738999672,659.1431738999672,None,,4,001,2025-12-16_17h54.10.764,2025C_exp1_detect,2022.2.4,59.94312597561844,
12.1,45,1,0,-1,1,0,177,177,306,659.1431738999672,659.1431738999672,659.64352149982,659.7103359997272,659.7605596999638,659.7605596999638,659.7605596999638,659.7605596999638,659.8104160996154,659.8104160996154,659.8104160996154,659.8104160996154,659.8104160996154,659.8104160996154,659.8104160996154,659.8104160996154,659.8104160996154,659.8104160996154,num_1,1.412024300545454,661.2450688998215,661.2450688998215,None,,4,001,2025-12-16_17h54.10.764,2025C_exp1_detect,2022.2.4,59.94312597561844,
25.5,45,1,1,1,0,0,178,178,130,661.2450688998215,661.2450688998215,661.7458594995551,661.8126230998896,661.8629097999074,661.8629097999074,661.8629097999074,661.8629097999074,661.9127490995452,661.9127490995452,661.9127490995452,661.9127490995452,661.9127490995452,661.9127490995452,661.9127490995452,661.9127490995452,661.9127490995452,661.9127490995452,num_1,1.189482300542295,663.1305733998306,663.1305733998306,None,,4,001,2025-12-16_17h54.10.764,2025C_exp1_detect,2022.2.4,59.94312597561844,
25.5,45,1,0,1,1,0,179,179,382,663.1305733998306,663.1305733998306,663.6308416998945,663.6973341996782,663.7478501996957,663.7478501996957,663.7478501996957,663.7478501996957,663.7977040996775,663.7977040996775,663.7977040996775,663.7977040996775,663.7977040996775,663.7977040996775,663.7977040996775,663.7977040996775,663.7977040996775,663.7977040996775,num_3,0.8888666001148522,664.7150948997587,664.7150948997587,None,,4,001,2025-12-16_17h54.10.764,2025C_exp1_detect,2022.2.4,59.94312597561844,
29.4,45,0,1,1,-1,0,180,180,257,664.7150948997587,664.7150948997587,665.2157835997641,665.2824636995792,665.3327536997385,665.3327536997385,665.3327536997385,665.3327536997385,665.3825263995677,665.3825263995677,665.3825263995677,665.3825263995677,665.3825263995677,665.3825263995677,665.3825263995677,665.3825263995677,665.3825263995677,665.3825263995677,num_1,0.847860200330615,666.2500166995451,666.2500166995451,None,,4,001,2025-12-16_17h54.10.764,2025C_exp1_detect,2022.2.4,59.94312597561844,
35.3,315,0,1,-1,0,0,181,181,51,666.2500166995451,666.2500166995451,666.7506695999764,666.8174780998379,666.867798499763,666.867798499763,666.867798499763,666.867798499763,666.9175056996755,666.9175056996755,666.9175056996755,666.9175056996755,666.9175056996755,666.9175056996755,666.9175056996755,666.9175056996755,666.9175056996755,666.9175056996755,num_3,0.8163391007110476,667.7515515997075,667.7515515997075,None,,4,001,2025-12-16_17h54.10.764,2025C_exp1_detect,2022.2.4,59.94312597561844,
12.1,315,0,1,1,1,0,182,182,405,667.7515515997075,667.7515515997075,668.2521870997734,668.3187746996991,668.369175599888,668.369175599888,668.369175599888,668.369175599888,668.41906309966,668.41906309966,668.41906309966,668.41906309966,668.41906309966,668.41906309966,668.41906309966,668.41906309966,668.41906309966,668.41906309966,num_1,1.2910991003736854,669.7366107995622,669.7366107995622,None,,4,001,2025-12-16_17h54.10.764,2025C_exp1_detect,2022.2.4,59.94312597561844,
19.6,45,1,1,1,-1,0,183,183,272,669.7366107995622,669.7366107995622,670.2375472998247,670.3042807998136,670.3546073995531,670.3546073995531,670.3546073995531,670.3546073995531,670.4044062998146,670.4044062998146,670.4044062998146,670.4044062998146,670.4044062998146,670.4044062998146,670.4044062998146,670.4044062998146,670.4044062998146,670.4044062998146,num_1,0.857907900121063,671.2883096998557,671.2883096998557,None,,4,001,2025-12-16_17h54.10.764,2025C_exp1_detect,2022.2.4,59.94312597561844,
12.1,45,1,1,-1,0,0,184,184,54,671.2883096998557,671.2883096998557,671.7888632998802,671.8557152999565,671.9061076999642,671.9061076999642,671.9061076999642,671.9061076999642,671.9560288996436,671.9560288996436,671.9560288996436,671.9560288996436,671.9560288996436,671.9560288996436,671.9560288996436,671.9560288996436,671.9560288996436,671.9560288996436,num_1,1.2023071004077792,673.1902167997323,673.1902167997323,None,,4,001,2025-12-16_17h54.10.764,2025C_exp1_detect,2022.2.4,59.94312597561844,
22.7,315,1,1,1,-1,0,185,185,282,673.1902167997323,673.1902167997323,673.6908733998425,673.757611299865,673.8078941996209,673.8078941996209,673.8078941996209,673.8078941996209,673.8574712998234,673.8574712998234,673.8574712998234,673.8574712998234,673.8574712998234,673.8574712998234,673.8574712998234,673.8574712998234,673.8574712998234,673.8574712998234,num_1,0.6135318004526198,674.4915385995992,674.4915385995992,None,,4,001,2025-12-16_17h54.10.764,2025C_exp1_detect,2022.2.4,59.94312597561844,
42.7,45,1,1,-1,-1,0,186,186,206,674.4915385995992,674.4915385995992,674.9922085995786,675.0589381000027,675.1092116995715,675.1092116995715,675.1092116995715,675.1092116995715,675.1590760997497,675.1590760997497,675.1590760997497,675.1590760997497,675.1590760997497,675.1590760997497,675.1590760997497,675.1590760997497,675.1590760997497,675.1590760997497,num_1,0.9595436002127826,676.1431856998242,676.1431856998242,None,,4,001,2025-12-16_17h54.10.764,2025C_exp1_detect,2022.2.4,59.94312597561844,
19.6,315,1,0,1,1,0,187,187,389,676.1431856998242,676.1431856998242,676.6437547998503,676.710582899861,676.7608862998895,676.7608862998895,676.7608862998895,676.7608862998895,676.8107698997483,676.8107698997483,676.8107698997483,676.8107698997483,676.8107698997483,676.8107698997483,676.8107698997483,676.8107698997483,676.8107698997483,676.8107698997483,num_3,0.8593716002069414,677.6946762995794,677.6946762995794,None,,4,001,2025-12-16_17h54.10.764,2025C_exp1_detect,2022.2.4,59.94312597561844,
35.3,45,0,0,1,-1,0,188,188,222,677.6946762995794,677.6946762995794,678.1954424995929,678.2620396995917,678.3124394998886,678.3124394998886,678.3124394998886,678.3124394998886,678.3623100998811,678.3623100998811,678.3623100998811,678.3623100998811,678.3623100998811,678.3623100998811,678.3623100998811,678.3623100998811,678.3623100998811,678.3623100998811,num_3,0.723591800313443,679.1130075999536,679.1130075999536,None,,4,001,2025-12-16_17h54.10.764,2025C_exp1_detect,2022.2.4,59.94312597561844,
29.4,45,1,0,1,1,0,189,189,383,679.1130075999536,679.1130075999536,679.6134728998877,679.6801679995842,679.7303683999926,679.7303683999926,679.7303683999926,679.7303683999926,679.7802263996564,679.7802263996564,679.7802263996564,679.7802263996564,679.7802263996564,679.7802263996564,679.7802263996564,679.7802263996564,679.7802263996564,679.7802263996564,num_3,0.7304265005514026,680.5311523997225,680.5311523997225,None,,4,001,2025-12-16_17h54.10.764,2025C_exp1_detect,2022.2.4,59.94312597561844,
35.3,45,1,0,-1,-1,0,190,190,168,680.5311523997225,680.5311523997225,681.0315838996321,681.0984152997844,681.1487243999727,681.1487243999727,681.1487243999727,681.1487243999727,681.1985113997944,681.1985113997944,681.1985113997944,681.1985113997944,681.1985113997944,681.1985113997944,681.1985113997944,681.1985113997944,681.1985113997944,681.1985113997944,num_1,0.6797709004022181,681.8991362997331,681.8991362997331,None,,4,001,2025-12-16_17h54.10.764,2025C_exp1_detect,2022.2.4,59.94312597561844,
22.7,315,0,1,-1,-1,0,191,191,192,681.8991362997331,681.8991362997331,682.3997853999026,682.4664623998106,682.5166745996103,682.5166745996103,682.5166745996103,682.5166745996103,682.5666141998954,682.5666141998954,682.5666141998954,682.5666141998954,682.5666141998954,682.5666141998954,682.5666141998954,682.5666141998954,682.5666141998954,682.5666141998954,num_3,0.6879708003252745,683.2837584996596,683.2837584996596,None,,4,001,2025-12-16_17h54.10.764,2025C_exp1_detect,2022.2.4,59.94312597561844,
42.7,45,1,0,-1,0,0,192,192,26,683.2837584996596,683.2837584996596,683.7843124996871,683.8510292996652,683.9013125998899,683.9013125998899,683.9013125998899,683.9013125998899,683.9511803998612,683.9511803998612,683.9511803998612,683.9511803998612,683.9511803998612,683.9511803998612,683.9511803998612,683.9511803998612,683.9511803998612,683.9511803998612,num_1,0.70360860042274,684.6850500996225,684.6850500996225,None,,4,001,2025-12-16_17h54.10.764,2025C_exp1_detect,2022.2.4,59.94312597561844,
35.3,315,1,0,-1,0,0,193,193,33,684.6850500996225,684.6850500996225,685.1857460997999,685.2522592996247,685.3026921995915,685.3026921995915,685.3026921995915,685.3026921995915,685.3527635997161,685.3527635997161,685.3527635997161,685.3527635997161,685.3527635997161,685.3527635997161,685.3527635997161,685.3527635997161,685.3527635997161,685.3527635997161,num_1,0.644964000210166,686.0197305995971,686.0197305995971,None,,4,001,2025-12-16_17h54.10.764,2025C_exp1_detect,2022.2.4,59.94312597561844,
29.4,315,0,1,1,0,0,194,194,122,686.0197305995971,686.0197305995971,686.5204643998295,686.5872952998616,686.6375709995627,686.6375709995627,686.6375709995627,686.6375709995627,686.6873577996157,686.6873577996157,686.6873577996157,686.6873577996157,686.6873577996157,686.6873577996157,686.6873577996157,686.6873577996157,686.6873577996157,686.6873577996157,num_1,1.2153708999976516,687.9216564996168,687.9216564996168,None,,4,001,2025-12-16_17h54.10.764,2025C_exp1_detect,2022.2.4,59.94312597561844,
12.1,45,0,0,1,0,0,195,195,72,687.9216564996168,687.9216564996168,688.4222824997269,688.4887366998009,688.5392063995823,688.5392063995823,688.5392063995823,688.5392063995823,688.5892998999916,688.5892998999916,688.5892998999916,688.5892998999916,688.5892998999916,688.5892998999916,688.5892998999916,688.5892998999916,688.5892998999916,688.5892998999916,num_3,0.8729209005832672,689.4902508999221,689.4902508999221,None,,4,001,2025-12-16_17h54.10.764,2025C_exp1_detect,2022.2.4,59.94312597561844,
35.3,45,1,0,1,0,0,196,196,96,689.4902508999221,689.4902508999221,689.9903270998038,690.0571692995727,690.1075463998131,690.1075463998131,690.1075463998131,690.1075463998131,690.1572678997181,690.1572678997181,690.1572678997181,690.1572678997181,690.1572678997181,690.1572678997181,690.1572678997181,690.1572678997181,690.1572678997181,690.1572678997181,num_3,0.7694391002878547,690.9584041996859,690.9584041996859,None,,4,001,2025-12-16_17h54.10.764,2025C_exp1_detect,2022.2.4,59.94312597561844,
29.4,315,0,0,-1,0,0,197,197,14,690.9584041996859,690.9584041996859,691.4588527996093,691.5256518996321,691.5759159997106,691.5759159997106,691.5759159997106,691.5759159997106,691.6256886995398,691.6256886995398,691.6256886995398,691.6256886995398,691.6256886995398,691.6256886995398,691.6256886995398,691.6256886995398,691.6256886995398,691.6256886995398,num_3,0.6678650001995265,692.3260434996337,692.3260434996337,None,,4,001,2025-12-16_17h54.10.764,2025C_exp1_detect,2022.2.4,59.94312597561844,
