contrast,ori,side,precue,trials.thisRepN,trials.thisTrialN,trials.thisN,trials.thisIndex,fix1.started,fix2.started,precue_2.started,precue_2.stopped,left_grating.started,right_grating.started,noise_left2.started,noise_right2.started,fix1.stopped,fix2.stopped,left_grating.stopped,right_grating.stopped,noise_left2.stopped,noise_right2.stopped,key_resp.started,fix1_2.started,fix2_2.started,key_resp.keys,key_resp.rt,key_resp_2.started,break_text_2.started,key_resp_2.keys,key_resp_2.rt,participant,session,date,expName,psychopyVersion,frameRate,
39.2,315,1,-1,0,0,0,106,13.5379365,13.5379365,14.020016299999952,14.086648200000013,14.147222499999998,14.147222499999998,14.147222499999998,14.147222499999998,14.186735200000044,14.186735200000044,14.186735200000044,14.186735200000044,14.186735200000044,14.186735200000044,14.205155099999956,14.205155099999956,14.205155099999956,right,7.347592700000064,21.577473499999996,21.577473499999996,None,,5,001,2025-12-17_11h50.08.464,2025C_exp1_comp,2022.2.4,59.93698225689292,
29.4,315,1,1,0,1,1,68,21.577473499999996,21.577473499999996,22.07798170000001,22.144694699999945,22.195001400000024,22.195001400000024,22.195001400000024,22.195001400000024,22.244794299999967,22.244794299999967,22.244794299999967,22.244794299999967,22.244794299999967,22.244794299999967,22.244794299999967,22.244794299999967,22.244794299999967,right,1.228517399999987,23.496353399999975,23.496353399999975,None,,5,001,2025-12-17_11h50.08.464,2025C_exp1_comp,2022.2.4,59.93698225689292,
42.7,315,1,0,0,2,2,35,23.496353399999975,23.496353399999975,23.996965499999988,24.063645299999962,24.11381270000004,24.11381270000004,24.11381270000004,24.11381270000004,24.163581399999998,24.163581399999998,24.163581399999998,24.163581399999998,24.163581399999998,24.163581399999998,24.163581399999998,24.163581399999998,24.163581399999998,right,0.8619927000000871,25.047913300000005,25.047913300000005,None,,5,001,2025-12-17_11h50.08.464,2025C_exp1_comp,2022.2.4,59.93698225689292,
22.7,45,1,1,0,3,3,57,25.047913300000005,25.047913300000005,25.548282299999983,25.614864300000022,25.66554659999997,25.66554659999997,25.66554659999997,25.66554659999997,25.715268899999955,25.715268899999955,25.715268899999955,25.715268899999955,25.715268899999955,25.715268899999955,25.715268899999955,25.715268899999955,25.715268899999955,right,1.4855281000000105,27.233290199999942,27.233290199999942,None,,5,001,2025-12-17_11h50.08.464,2025C_exp1_comp,2022.2.4,59.93698225689292,
39.2,315,-1,-1,0,4,4,88,27.233290199999942,27.233290199999942,27.733660299999997,27.801681700000017,27.850922999999966,27.850922999999966,27.850922999999966,27.850922999999966,27.90088879999996,27.90088879999996,27.90088879999996,27.90088879999996,27.90088879999996,27.90088879999996,27.90088879999996,27.90088879999996,27.90088879999996,right,3.3649030000000266,31.287350599999968,31.287350599999968,None,,5,001,2025-12-17_11h50.08.464,2025C_exp1_comp,2022.2.4,59.93698225689292,
12.1,45,1,1,0,5,5,54,31.287350599999968,31.287350599999968,31.787700900000004,31.854942299999948,31.90524300000004,31.90524300000004,31.90524300000004,31.90524300000004,31.955039400000032,31.955039400000032,31.955039400000032,31.955039400000032,31.955039400000032,31.955039400000032,31.955039400000032,31.955039400000032,31.955039400000032,left,0.9257373000000371,32.90557579999995,32.90557579999995,None,,5,001,2025-12-17_11h50.08.464,2025C_exp1_comp,2022.2.4,59.93698225689292,
35.3,45,1,1,0,6,6,60,32.90557579999995,32.90557579999995,33.40630669999996,33.47302930000001,33.52347050000003,33.52347050000003,33.52347050000003,33.52347050000003,33.57308779999994,33.57308779999994,33.57308779999994,33.57308779999994,33.57308779999994,33.57308779999994,33.57308779999994,33.57308779999994,33.57308779999994,right,1.1322242999999617,34.72410439999999,34.72410439999999,None,,5,001,2025-12-17_11h50.08.464,2025C_exp1_comp,2022.2.4,59.93698225689292,
29.4,45,-1,1,0,7,7,41,34.72410439999999,34.72410439999999,35.22474650000004,35.291486899999995,35.34168220000004,35.34168220000004,35.34168220000004,35.34168220000004,35.39156449999996,35.39156449999996,35.39156449999996,35.39156449999996,35.39156449999996,35.39156449999996,35.39156449999996,35.39156449999996,35.39156449999996,right,1.3856688000000759,36.80937979999999,36.80937979999999,None,,5,001,2025-12-17_11h50.08.464,2025C_exp1_comp,2022.2.4,59.93698225689292,
42.7,315,-1,1,0,8,8,53,36.80937979999999,36.80937979999999,37.31012959999998,37.37662119999993,37.42703119999999,37.42703119999999,37.42703119999999,37.42703119999999,37.476975700000025,37.476975700000025,37.476975700000025,37.476975700000025,37.476975700000025,37.476975700000025,37.476975700000025,37.476975700000025,37.476975700000025,right,15.891706200000044,53.39282319999995,53.39282319999995,None,,5,001,2025-12-17_11h50.08.464,2025C_exp1_comp,2022.2.4,59.93698225689292,
22.7,45,-1,0,0,9,9,3,53.39282319999995,53.39282319999995,53.89360239999996,53.960086899999965,54.0104728,54.0104728,54.0104728,54.0104728,54.060091700000044,54.060091700000044,54.060091700000044,54.060091700000044,54.060091700000044,54.060091700000044,54.060091700000044,54.060091700000044,54.060091700000044,right,0.9255980000000363,55.01104720000001,55.01104720000001,None,,5,001,2025-12-17_11h50.08.464,2025C_exp1_comp,2022.2.4,59.93698225689292,
25.5,315,1,1,0,10,10,67,55.01104720000001,55.01104720000001,55.51219149999997,55.578384700000015,55.628773300000034,55.628773300000034,55.628773300000034,55.628773300000034,55.6784705,55.6784705,55.6784705,55.6784705,55.6784705,55.6784705,55.6784705,55.6784705,55.6784705,right,3.5860452000000578,59.282186300000035,59.282186300000035,None,,5,001,2025-12-17_11h50.08.464,2025C_exp1_comp,2022.2.4,59.93698225689292,
39.2,45,-1,1,0,11,11,43,59.282186300000035,59.282186300000035,59.782627400000024,59.84940429999995,59.899704499999984,59.899704499999984,59.899704499999984,59.899704499999984,59.94949359999998,59.94949359999998,59.94949359999998,59.94949359999998,59.94949359999998,59.94949359999998,59.94949359999998,59.94949359999998,59.94949359999998,left,4.05984310000008,64.03679239999997,64.03679239999997,None,,5,001,2025-12-17_11h50.08.464,2025C_exp1_comp,2022.2.4,59.93698225689292,
22.7,315,1,-1,0,12,12,102,64.03679239999997,64.03679239999997,64.53746390000003,64.60412439999993,64.65439119999996,64.65439119999996,64.65439119999996,64.65439119999996,64.7043291,64.7043291,64.7043291,64.7043291,64.7043291,64.7043291,64.7043291,64.7043291,64.7043291,right,0.8882294000000002,65.62162620000004,65.62162620000004,None,,5,001,2025-12-17_11h50.08.464,2025C_exp1_comp,2022.2.4,59.93698225689292,
15.7,315,-1,0,0,13,13,10,65.62162620000004,65.62162620000004,66.12225850000004,66.18898030000003,66.23915160000001,66.23915160000001,66.23915160000001,66.23915160000001,66.28909929999998,66.28909929999998,66.28909929999998,66.28909929999998,66.28909929999998,66.28909929999998,66.28909929999998,66.28909929999998,66.28909929999998,right,0.7923114000000169,67.1292307,67.1292307,None,,5,001,2025-12-17_11h50.08.464,2025C_exp1_comp,2022.2.4,59.93698225689292,
35.3,315,1,-1,0,14,14,105,67.1292307,67.1292307,67.60702930000002,67.67377869999996,67.72416250000003,67.72416250000003,67.72416250000003,67.72416250000003,67.77388659999997,67.77388659999997,67.77388659999997,67.77388659999997,67.77388659999997,67.77388659999997,67.80720980000001,67.80720980000001,67.80720980000001,right,2.281343399999969,70.10998059999997,70.10998059999997,None,,5,001,2025-12-17_11h50.08.464,2025C_exp1_comp,2022.2.4,59.93698225689292,
25.5,45,-1,-1,0,15,15,76,70.10998059999997,70.10998059999997,70.60991130000002,70.67650170000002,70.72680709999997,70.72680709999997,70.72680709999997,70.72680709999997,70.77662309999994,70.77662309999994,70.77662309999994,70.77662309999994,70.77662309999994,70.77662309999994,70.77662309999994,70.77662309999994,70.77662309999994,right,1.9599853000000849,72.76191759999995,72.76191759999995,None,,5,001,2025-12-17_11h50.08.464,2025C_exp1_comp,2022.2.4,59.93698225689292,
19.6,45,1,1,0,16,16,56,72.76191759999995,72.76191759999995,73.26271659999998,73.32971420000001,73.37953530000004,73.37953530000004,73.37953530000004,73.37953530000004,73.42933489999996,73.42933489999996,73.42933489999996,73.42933489999996,73.42933489999996,73.42933489999996,73.42933489999996,73.42933489999996,73.42933489999996,right,4.019688900000006,77.46662300000003,77.46662300000003,None,,5,001,2025-12-17_11h50.08.464,2025C_exp1_comp,2022.2.4,59.93698225689292,
35.3,315,-1,1,0,17,17,51,77.46662300000003,77.46662300000003,77.96714350000002,78.03385200000002,78.08419930000002,78.08419930000002,78.08419930000002,78.08419930000002,78.13395230000003,78.13395230000003,78.13395230000003,78.13395230000003,78.13395230000003,78.13395230000003,78.13395230000003,78.13395230000003,78.13395230000003,right,2.6103754000000663,80.76993419999997,80.76993419999997,None,,5,001,2025-12-17_11h50.08.464,2025C_exp1_comp,2022.2.4,59.93698225689292,
15.7,315,-1,-1,0,18,18,82,80.76993419999997,80.76993419999997,81.27044979999994,81.33724329999995,81.38803180000002,81.38803180000002,81.38803180000002,81.38803180000002,81.43726070000002,81.43726070000002,81.43726070000002,81.43726070000002,81.43726070000002,81.43726070000002,81.43726070000002,81.43726070000002,81.43726070000002,right,4.251793300000031,85.70851289999996,85.70851289999996,None,,5,001,2025-12-17_11h50.08.464,2025C_exp1_comp,2022.2.4,59.93698225689292,
15.7,315,1,-1,0,19,19,100,85.70851289999996,85.70851289999996,86.20902039999999,86.27566739999997,86.32605179999996,86.32605179999996,86.32605179999996,86.32605179999996,86.37587389999999,86.37587389999999,86.37587389999999,86.37587389999999,86.37587389999999,86.37587389999999,86.37587389999999,86.37587389999999,86.37587389999999,left,1.3297235,87.72723410000003,87.72723410000003,None,,5,001,2025-12-17_11h50.08.464,2025C_exp1_comp,2022.2.4,59.93698225689292,
25.5,45,1,0,0,20,20,22,87.72723410000003,87.72723410000003,88.22771839999996,88.29431209999996,88.34467559999996,88.34467559999996,88.34467559999996,88.34467559999996,88.39455480000004,88.39455480000004,88.39455480000004,88.39455480000004,88.39455480000004,88.39455480000004,88.39455480000004,88.39455480000004,88.39455480000004,right,0.887235300000043,89.3119997,89.3119997,None,,5,001,2025-12-17_11h50.08.464,2025C_exp1_comp,2022.2.4,59.93698225689292,
19.6,45,1,-1,0,21,21,92,89.3119997,89.3119997,89.81275240000002,89.87963709999997,89.92979809999997,89.92979809999997,89.92979809999997,89.92979809999997,89.97958989999995,89.97958989999995,89.97958989999995,89.97958989999995,89.97958989999995,89.97958989999995,89.97958989999995,89.97958989999995,89.97958989999995,left,0.8613532000000532,90.86365130000001,90.86365130000001,None,,5,001,2025-12-17_11h50.08.464,2025C_exp1_comp,2022.2.4,59.93698225689292,
29.4,315,1,0,0,22,22,32,90.86365130000001,90.86365130000001,91.36445679999997,91.43111199999998,91.48132129999999,91.48132129999999,91.48132129999999,91.48132129999999,91.53111049999995,91.53111049999995,91.53111049999995,91.53111049999995,91.53111049999995,91.53111049999995,91.53111049999995,91.53111049999995,91.53111049999995,right,0.7013171999999486,92.26498579999998,92.26498579999998,None,,5,001,2025-12-17_11h50.08.464,2025C_exp1_comp,2022.2.4,59.93698225689292,
12.1,45,-1,-1,0,23,23,72,92.26498579999998,92.26498579999998,92.76546910000002,92.83217779999995,92.88259300000004,92.88259300000004,92.88259300000004,92.88259300000004,92.93241190000003,92.93241190000003,92.93241190000003,92.93241190000003,92.93241190000003,92.93241190000003,92.93241190000003,92.93241190000003,92.93241190000003,right,0.6760503000000426,93.63291849999996,93.63291849999996,None,,5,001,2025-12-17_11h50.08.464,2025C_exp1_comp,2022.2.4,59.93698225689292,
35.3,315,-1,-1,0,24,24,87,93.63291849999996,93.63291849999996,94.13362629999995,94.20015490000003,94.250633,94.250633,94.250633,94.250633,94.30030609999994,94.30030609999994,94.30030609999994,94.30030609999994,94.30030609999994,94.30030609999994,94.30030609999994,94.30030609999994,94.30030609999994,right,0.852267700000084,95.18458399999997,95.18458399999997,None,,5,001,2025-12-17_11h50.08.464,2025C_exp1_comp,2022.2.4,59.93698225689292,
25.5,315,-1,1,0,25,25,49,95.18458399999997,95.18458399999997,95.6850786,95.7518761,95.80208459999994,95.80208459999994,95.80208459999994,95.80208459999994,95.85168680000004,95.85168680000004,95.85168680000004,95.85168680000004,95.85168680000004,95.85168680000004,95.85168680000004,95.85168680000004,95.85168680000004,right,0.6537515999999641,96.53594880000003,96.53594880000003,None,,5,001,2025-12-17_11h50.08.464,2025C_exp1_comp,2022.2.4,59.93698225689292,
22.7,45,-1,-1,0,26,26,75,96.53594880000003,96.53594880000003,97.03654299999994,97.10334839999996,97.15369350000003,97.15369350000003,97.15369350000003,97.15369350000003,97.20330190000004,97.20330190000004,97.20330190000004,97.20330190000004,97.20330190000004,97.20330190000004,97.20330190000004,97.20330190000004,97.20330190000004,right,2.125769900000023,99.35515759999998,99.35515759999998,None,,5,001,2025-12-17_11h50.08.464,2025C_exp1_comp,2022.2.4,59.93698225689292,
12.1,315,1,0,0,27,27,27,99.35515759999998,99.35515759999998,99.85563669999999,99.92276530000004,99.97280309999996,99.97280309999996,99.97280309999996,99.97280309999996,100.02249849999998,100.02249849999998,100.02249849999998,100.02249849999998,100.02249849999998,100.02249849999998,100.02249849999998,100.02249849999998,100.02249849999998,left,0.8905564000000368,100.94007099999999,100.94007099999999,None,,5,001,2025-12-17_11h50.08.464,2025C_exp1_comp,2022.2.4,59.93698225689292,
25.5,315,-1,-1,0,28,28,85,100.94007099999999,100.94007099999999,101.44058240000004,101.50731139999994,101.55760399999997,101.55760399999997,101.55760399999997,101.55760399999997,101.60744,101.60744,101.60744,101.60744,101.60744,101.60744,101.60744,101.60744,101.60744,right,0.801783300000011,102.44158970000001,102.44158970000001,None,,5,001,2025-12-17_11h50.08.464,2025C_exp1_comp,2022.2.4,59.93698225689292,
39.2,315,1,0,0,29,29,34,102.44158970000001,102.44158970000001,102.9424497,103.0088796,103.05910470000003,103.05910470000003,103.05910470000003,103.05910470000003,103.10889529999997,103.10889529999997,103.10889529999997,103.10889529999997,103.10889529999997,103.10889529999997,103.10889529999997,103.10889529999997,103.10889529999997,right,0.8758771000000252,104.00988110000003,104.00988110000003,None,,5,001,2025-12-17_11h50.08.464,2025C_exp1_comp,2022.2.4,59.93698225689292,
35.3,315,1,0,0,30,30,33,104.00988110000003,104.00988110000003,104.51032190000001,104.57739240000001,104.62736670000004,104.62736670000004,104.62736670000004,104.62736670000004,104.6771612,104.6771612,104.6771612,104.6771612,104.6771612,104.6771612,104.6771612,104.6771612,104.6771612,right,0.69946809999999,105.39457960000004,105.39457960000004,None,,5,001,2025-12-17_11h50.08.464,2025C_exp1_comp,2022.2.4,59.93698225689292,
39.2,45,1,0,0,31,31,25,105.39457960000004,105.39457960000004,105.89503619999994,105.96176939999998,106.0121514,106.0121514,106.0121514,106.0121514,106.06197629999997,106.06197629999997,106.06197629999997,106.06197629999997,106.06197629999997,106.06197629999997,106.06197629999997,106.06197629999997,106.06197629999997,right,1.0346031000000266,107.11295919999998,107.11295919999998,None,,5,001,2025-12-17_11h50.08.464,2025C_exp1_comp,2022.2.4,59.93698225689292,
42.7,45,-1,0,0,32,32,8,107.11295919999998,107.11295919999998,107.61344869999994,107.68017120000002,107.73044029999994,107.73044029999994,107.73044029999994,107.73044029999994,107.7802345,107.7802345,107.7802345,107.7802345,107.7802345,107.7802345,107.7802345,107.7802345,107.7802345,right,1.380601600000091,109.18163759999993,109.18163759999993,None,,5,001,2025-12-17_11h50.08.464,2025C_exp1_comp,2022.2.4,59.93698225689292,
35.3,45,1,0,0,33,33,24,109.18163759999993,109.18163759999993,109.68216970000003,109.74891790000004,109.79916309999999,109.79916309999999,109.79916309999999,109.79916309999999,109.84933560000002,109.84933560000002,109.84933560000002,109.84933560000002,109.84933560000002,109.84933560000002,109.84933560000002,109.84933560000002,109.84933560000002,right,1.3437657000000627,111.21732310000004,111.21732310000004,None,,5,001,2025-12-17_11h50.08.464,2025C_exp1_comp,2022.2.4,59.93698225689292,
22.7,315,-1,1,0,34,34,48,111.21732310000004,111.21732310000004,111.71757179999997,111.78421119999996,111.83454270000004,111.83454270000004,111.83454270000004,111.83454270000004,111.88439170000004,111.88439170000004,111.88439170000004,111.88439170000004,111.88439170000004,111.88439170000004,111.88439170000004,111.88439170000004,111.88439170000004,right,1.3971920999999838,113.30285100000003,113.30285100000003,None,,5,001,2025-12-17_11h50.08.464,2025C_exp1_comp,2022.2.4,59.93698225689292,
35.3,45,1,-1,0,35,35,96,113.30285100000003,113.30285100000003,113.80327390000002,113.86996320000003,113.92001370000003,113.92001370000003,113.92001370000003,113.92001370000003,113.96990119999998,113.96990119999998,113.96990119999998,113.96990119999998,113.96990119999998,113.96990119999998,113.96990119999998,113.96990119999998,113.96990119999998,right,4.134677600000032,118.12433950000002,118.12433950000002,None,,5,001,2025-12-17_11h50.08.464,2025C_exp1_comp,2022.2.4,59.93698225689292,
29.4,315,-1,1,0,36,36,50,118.12433950000002,118.12433950000002,118.62476779999997,118.69148159999997,118.74166930000001,118.74166930000001,118.74166930000001,118.74166930000001,118.79160490000004,118.79160490000004,118.79160490000004,118.79160490000004,118.79160490000004,118.79160490000004,118.79160490000004,118.79160490000004,118.79160490000004,right,1.082048900000018,119.89271810000002,119.89271810000002,None,,5,001,2025-12-17_11h50.08.464,2025C_exp1_comp,2022.2.4,59.93698225689292,
25.5,315,1,0,0,37,37,31,119.89271810000002,119.89271810000002,120.39315939999994,120.46003569999993,120.51024729999995,120.51024729999995,120.51024729999995,120.51024729999995,120.56000359999996,120.56000359999996,120.56000359999996,120.56000359999996,120.56000359999996,120.56000359999996,120.56000359999996,120.56000359999996,120.56000359999996,right,2.000454800000057,122.57853920000002,122.57853920000002,None,,5,001,2025-12-17_11h50.08.464,2025C_exp1_comp,2022.2.4,59.93698225689292,
15.7,45,-1,0,0,38,38,1,122.57853920000002,122.57853920000002,123.07923489999996,123.14596919999997,123.19626219999998,123.19626219999998,123.19626219999998,123.19626219999998,123.24603130000003,123.24603130000003,123.24603130000003,123.24603130000003,123.24603130000003,123.24603130000003,123.24603130000003,123.24603130000003,123.24603130000003,right,0.8508590000001277,124.11339499999997,124.11339499999997,None,,5,001,2025-12-17_11h50.08.464,2025C_exp1_comp,2022.2.4,59.93698225689292,
42.7,315,-1,0,0,39,39,17,124.11339499999997,124.11339499999997,124.61391200000003,124.68077849999997,124.73110780000002,124.73110780000002,124.73110780000002,124.73110780000002,124.78055989999996,124.78055989999996,124.78055989999996,124.78055989999996,124.78055989999996,124.78055989999996,124.78055989999996,124.78055989999996,124.78055989999996,left,0.9640259999999898,125.76523810000003,125.76523810000003,None,,5,001,2025-12-17_11h50.08.464,2025C_exp1_comp,2022.2.4,59.93698225689292,
35.3,45,-1,-1,0,40,40,78,125.76523810000003,125.76523810000003,126.26568639999994,126.33239449999996,126.38268819999996,126.38268819999996,126.38268819999996,126.38268819999996,126.43221559999995,126.43221559999995,126.43221559999995,126.43221559999995,126.43221559999995,126.43221559999995,126.43221559999995,126.43221559999995,126.43221559999995,right,1.4334476000000222,127.88411329999997,127.88411329999997,None,,5,001,2025-12-17_11h50.08.464,2025C_exp1_comp,2022.2.4,59.93698225689292,
22.7,45,-1,1,0,41,41,39,127.88411329999997,127.88411329999997,128.38415980000002,128.45101349999993,128.50117279999995,128.50117279999995,128.50117279999995,128.50117279999995,128.5510762,128.5510762,128.5510762,128.5510762,128.5510762,128.5510762,128.5510762,128.5510762,128.5510762,right,3.0820349000000533,131.65512990000002,131.65512990000002,None,,5,001,2025-12-17_11h50.08.464,2025C_exp1_comp,2022.2.4,59.93698225689292,
35.3,45,-1,0,0,42,42,6,131.65512990000002,131.65512990000002,132.154941,132.2213104,132.2717076,132.2717076,132.2717076,132.2717076,132.32143889999998,132.32143889999998,132.32143889999998,132.32143889999998,132.32143889999998,132.32143889999998,132.32143889999998,132.32143889999998,132.32143889999998,right,1.0310535999999502,133.37245989999997,133.37245989999997,None,,5,001,2025-12-17_11h50.08.464,2025C_exp1_comp,2022.2.4,59.93698225689292,
19.6,45,-1,-1,0,43,43,74,133.37245989999997,133.37245989999997,133.87300549999998,133.93992089999995,133.9900546,133.9900546,133.9900546,133.9900546,134.03981220000003,134.03981220000003,134.03981220000003,134.03981220000003,134.03981220000003,134.03981220000003,134.03981220000003,134.03981220000003,134.03981220000003,right,6.217157900000075,140.2793802,140.2793802,None,,5,001,2025-12-17_11h50.08.464,2025C_exp1_comp,2022.2.4,59.93698225689292,
12.1,45,-1,1,0,44,44,36,140.2793802,140.2793802,140.77997830000004,140.84663999999998,140.89721280000003,140.89721280000003,140.89721280000003,140.89721280000003,140.94671159999996,140.94671159999996,140.94671159999996,140.94671159999996,140.94671159999996,140.94671159999996,140.94671159999996,140.94671159999996,140.94671159999996,right,0.8537293000000545,141.83093110000004,141.83093110000004,None,,5,001,2025-12-17_11h50.08.464,2025C_exp1_comp,2022.2.4,59.93698225689292,
39.2,45,1,-1,0,45,45,97,141.83093110000004,141.83093110000004,142.33142729999997,142.3981572,142.4484979,142.4484979,142.4484979,142.4484979,142.49825550000003,142.49825550000003,142.49825550000003,142.49825550000003,142.49825550000003,142.49825550000003,142.49825550000003,142.49825550000003,142.49825550000003,left,0.9340463000000909,143.44953369999996,143.44953369999996,None,,5,001,2025-12-17_11h50.08.464,2025C_exp1_comp,2022.2.4,59.93698225689292,
35.3,315,1,1,0,46,46,69,143.44953369999996,143.44953369999996,143.95007199999998,144.01680620000002,144.06709490000003,144.06709490000003,144.06709490000003,144.06709490000003,144.11689260000003,144.11689260000003,144.11689260000003,144.11689260000003,144.11689260000003,144.11689260000003,144.11689260000003,144.11689260000003,144.11689260000003,right,1.195916200000056,145.33465539999997,145.33465539999997,None,,5,001,2025-12-17_11h50.08.464,2025C_exp1_comp,2022.2.4,59.93698225689292,
15.7,45,-1,-1,0,47,47,73,145.33465539999997,145.33465539999997,145.83540329999994,145.90209070000003,145.95242540000004,145.95242540000004,145.95242540000004,145.95242540000004,146.00190020000002,146.00190020000002,146.00190020000002,146.00190020000002,146.00190020000002,146.00190020000002,146.00190020000002,146.00190020000002,146.00190020000002,right,1.0635988000000225,147.08651910000003,147.08651910000003,None,,5,001,2025-12-17_11h50.08.464,2025C_exp1_comp,2022.2.4,59.93698225689292,
12.1,315,1,1,0,48,48,63,147.08651910000003,147.08651910000003,147.58714899999995,147.65401829999996,147.70418440000003,147.70418440000003,147.70418440000003,147.70418440000003,147.7540689,147.7540689,147.7540689,147.7540689,147.7540689,147.7540689,147.7540689,147.7540689,147.7540689,left,0.7184060000000727,148.50450990000002,148.50450990000002,None,,5,001,2025-12-17_11h50.08.464,2025C_exp1_comp,2022.2.4,59.93698225689292,
19.6,45,-1,0,0,49,49,2,148.50450990000002,148.50450990000002,149.0050744,149.07179129999997,149.1220498,149.1220498,149.1220498,149.1220498,149.17189239999993,149.17189239999993,149.17189239999993,149.17189239999993,149.17189239999993,149.17189239999993,149.17189239999993,149.17189239999993,149.17189239999993,right,1.2212224000001015,150.42282720000003,150.42282720000003,None,,5,001,2025-12-17_11h50.08.464,2025C_exp1_comp,2022.2.4,59.93698225689292,
35.3,315,-1,0,0,50,50,15,150.42282720000003,150.42282720000003,150.923676,150.99039619999996,151.04070219999994,151.04070219999994,151.04070219999994,151.04070219999994,151.09033379999994,151.09033379999994,151.09033379999994,151.09033379999994,151.09033379999994,151.09033379999994,151.09033379999994,151.09033379999994,151.09033379999994,right,0.8471978000000036,151.95803690000002,151.95803690000002,None,,5,001,2025-12-17_11h50.08.464,2025C_exp1_comp,2022.2.4,59.93698225689292,
22.7,315,-1,-1,0,51,51,84,151.95803690000002,151.95803690000002,152.4585707,152.5250539,152.57553919999998,152.57553919999998,152.57553919999998,152.57553919999998,152.62522049999995,152.62522049999995,152.62522049999995,152.62522049999995,152.62522049999995,152.62522049999995,152.62522049999995,152.62522049999995,152.62522049999995,right,0.8721626000000242,153.52637759999993,153.52637759999993,None,,5,001,2025-12-17_11h50.08.464,2025C_exp1_comp,2022.2.4,59.93698225689292,
25.5,315,-1,0,0,52,52,13,153.52637759999993,153.52637759999993,154.02674739999998,154.09345369999994,154.14378709999994,154.14378709999994,154.14378709999994,154.14378709999994,154.19354120000003,154.19354120000003,154.19354120000003,154.19354120000003,154.19354120000003,154.19354120000003,154.19354120000003,154.19354120000003,154.19354120000003,right,1.2474193000000469,155.46170959999995,155.46170959999995,None,,5,001,2025-12-17_11h50.08.464,2025C_exp1_comp,2022.2.4,59.93698225689292,
12.1,315,1,-1,0,53,53,99,155.46170959999995,155.46170959999995,155.96203949999995,156.02874680000002,156.07898079999995,156.07898079999995,156.07898079999995,156.07898079999995,156.12884180000003,156.12884180000003,156.12884180000003,156.12884180000003,156.12884180000003,156.12884180000003,156.12884180000003,156.12884180000003,156.12884180000003,left,0.5759944000000132,156.7293568,156.7293568,None,,5,001,2025-12-17_11h50.08.464,2025C_exp1_comp,2022.2.4,59.93698225689292,
22.7,315,1,0,0,54,54,30,156.7293568,156.7293568,157.23006980000002,157.29686789999994,157.34669350000001,157.34669350000001,157.34669350000001,157.34669350000001,157.396843,157.396843,157.396843,157.396843,157.396843,157.396843,157.396843,157.396843,157.396843,left,0.6607957000001079,158.08068089999995,158.08068089999995,None,,5,001,2025-12-17_11h50.08.464,2025C_exp1_comp,2022.2.4,59.93698225689292,
35.3,45,-1,1,0,55,55,42,158.08068089999995,158.08068089999995,158.58140600000002,158.64779669999996,158.6982706,158.6982706,158.6982706,158.6982706,158.74811239999997,158.74811239999997,158.74811239999997,158.74811239999997,158.74811239999997,158.74811239999997,158.74811239999997,158.74811239999997,158.74811239999997,right,1.2369756000000507,160.01579730000003,160.01579730000003,None,,5,001,2025-12-17_11h50.08.464,2025C_exp1_comp,2022.2.4,59.93698225689292,
39.2,315,-1,1,0,56,56,52,160.01579730000003,160.01579730000003,160.51658180000004,160.58331369999996,160.6336179,160.6336179,160.6336179,160.6336179,160.68309839999995,160.68309839999995,160.68309839999995,160.68309839999995,160.68309839999995,160.68309839999995,160.68309839999995,160.68309839999995,160.68309839999995,right,0.9176082999999835,161.61752230000002,161.61752230000002,None,,5,001,2025-12-17_11h50.08.464,2025C_exp1_comp,2022.2.4,59.93698225689292,
15.7,45,1,-1,0,57,57,91,161.61752230000002,161.61752230000002,162.11817380000002,162.18512090000002,162.23547669999994,162.23547669999994,162.23547669999994,162.23547669999994,162.28524240000002,162.28524240000002,162.28524240000002,162.28524240000002,162.28524240000002,162.28524240000002,162.28524240000002,162.28524240000002,162.28524240000002,left,0.660236800000007,162.9687444,162.9687444,None,,5,001,2025-12-17_11h50.08.464,2025C_exp1_comp,2022.2.4,59.93698225689292,
22.7,45,1,0,0,58,58,21,162.9687444,162.9687444,163.46921039999995,163.5359171,163.58628680000004,163.58628680000004,163.58628680000004,163.58628680000004,163.6360393,163.6360393,163.6360393,163.6360393,163.6360393,163.6360393,163.6360393,163.6360393,163.6360393,left,0.5802829000000429,164.23669899999993,164.23669899999993,None,,5,001,2025-12-17_11h50.08.464,2025C_exp1_comp,2022.2.4,59.93698225689292,
19.6,315,1,0,0,59,59,29,164.23669899999993,164.23669899999993,164.7371673,164.80385060000003,164.85418370000002,164.85418370000002,164.85418370000002,164.85418370000002,164.90403860000004,164.90403860000004,164.90403860000004,164.90403860000004,164.90403860000004,164.90403860000004,164.90403860000004,164.90403860000004,164.90403860000004,left,0.5366523999999799,165.47140490000004,165.47140490000004,None,,5,001,2025-12-17_11h50.08.464,2025C_exp1_comp,2022.2.4,59.93698225689292,
25.5,45,-1,1,0,60,60,40,165.47140490000004,165.47140490000004,165.9717104,166.03848370000003,166.08902479999995,166.08902479999995,166.08902479999995,166.08902479999995,166.13871270000004,166.13871270000004,166.13871270000004,166.13871270000004,166.13871270000004,166.13871270000004,166.13871270000004,166.13871270000004,166.13871270000004,right,0.5819162000000233,166.73915049999994,166.73915049999994,None,,5,001,2025-12-17_11h50.08.464,2025C_exp1_comp,2022.2.4,59.93698225689292,
42.7,315,1,-1,0,61,61,107,166.73915049999994,166.73915049999994,167.23987320000003,167.30637820000004,167.35685939999996,167.35685939999996,167.35685939999996,167.35685939999996,167.4064929,167.4064929,167.4064929,167.4064929,167.4064929,167.4064929,167.4064929,167.4064929,167.4064929,right,0.6657368000001043,168.09049489999995,168.09049489999995,None,,5,001,2025-12-17_11h50.08.464,2025C_exp1_comp,2022.2.4,59.93698225689292,
39.2,45,-1,-1,0,62,62,79,168.09049489999995,168.09049489999995,168.59131030000003,168.65779320000001,168.70803260000002,168.70803260000002,168.70803260000002,168.70803260000002,168.75780659999998,168.75780659999998,168.75780659999998,168.75780659999998,168.75780659999998,168.75780659999998,168.75780659999998,168.75780659999998,168.75780659999998,right,1.2192770000000337,170.00907489999997,170.00907489999997,None,,5,001,2025-12-17_11h50.08.464,2025C_exp1_comp,2022.2.4,59.93698225689292,
15.7,45,-1,1,0,63,63,37,170.00907489999997,170.00907489999997,170.50978320000002,170.57631860000004,170.62658120000003,170.62658120000003,170.62658120000003,170.62658120000003,170.67638969999996,170.67638969999996,170.67638969999996,170.67638969999996,170.67638969999996,170.67638969999996,170.67638969999996,170.67638969999996,170.67638969999996,right,0.5561861000001045,171.26038859999994,171.26038859999994,None,,5,001,2025-12-17_11h50.08.464,2025C_exp1_comp,2022.2.4,59.93698225689292,
15.7,315,1,0,0,64,64,28,171.26038859999994,171.26038859999994,171.76084890000004,171.82755350000002,171.87805179999998,171.87805179999998,171.87805179999998,171.87805179999998,171.92786390000003,171.92786390000003,171.92786390000003,171.92786390000003,171.92786390000003,171.92786390000003,171.92786390000003,171.92786390000003,171.92786390000003,left,0.5367790000000241,172.49486330000002,172.49486330000002,None,,5,001,2025-12-17_11h50.08.464,2025C_exp1_comp,2022.2.4,59.93698225689292,
29.4,315,-1,0,0,65,65,14,172.49486330000002,172.49486330000002,172.9953792,173.06209849999993,173.1124734,173.1124734,173.1124734,173.1124734,173.16222229999994,173.16222229999994,173.16222229999994,173.16222229999994,173.16222229999994,173.16222229999994,173.16222229999994,173.16222229999994,173.16222229999994,right,0.5503615000000082,173.72942620000003,173.72942620000003,None,,5,001,2025-12-17_11h50.08.464,2025C_exp1_comp,2022.2.4,59.93698225689292,
19.6,315,1,-1,0,66,66,101,173.72942620000003,173.72942620000003,174.23114599999997,174.29735619999997,174.34770130000004,174.34770130000004,174.34770130000004,174.34770130000004,174.3973982,174.3973982,174.3973982,174.3973982,174.3973982,174.3973982,174.3973982,174.3973982,174.3973982,left,0.5708213000000342,174.9982665,174.9982665,None,,5,001,2025-12-17_11h50.08.464,2025C_exp1_comp,2022.2.4,59.93698225689292,
15.7,315,-1,1,0,67,67,46,174.9982665,174.9982665,175.49873519999994,175.5651424,175.61563139999998,175.61563139999998,175.61563139999998,175.61563139999998,175.66542819999995,175.66542819999995,175.66542819999995,175.66542819999995,175.66542819999995,175.66542819999995,175.66542819999995,175.66542819999995,175.66542819999995,right,0.4949658000000454,176.18278839999994,176.18278839999994,None,,5,001,2025-12-17_11h50.08.464,2025C_exp1_comp,2022.2.4,59.93698225689292,
29.4,315,1,-1,0,68,68,104,176.18278839999994,176.18278839999994,176.68315659999996,176.7498293,176.80038260000003,176.80038260000003,176.80038260000003,176.80038260000003,176.8500239,176.8500239,176.8500239,176.8500239,176.8500239,176.8500239,176.8500239,176.8500239,176.8500239,right,1.5583153999999695,178.4348665,178.4348665,None,,5,001,2025-12-17_11h50.08.464,2025C_exp1_comp,2022.2.4,59.93698225689292,
15.7,45,1,1,0,69,69,55,178.4348665,178.4348665,178.9354409,179.00182199999995,179.05236939999998,179.05236939999998,179.05236939999998,179.05236939999998,179.10205929999995,179.10205929999995,179.10205929999995,179.10205929999995,179.10205929999995,179.10205929999995,179.10205929999995,179.10205929999995,179.10205929999995,left,0.5545936000000893,179.68627800000002,179.68627800000002,None,,5,001,2025-12-17_11h50.08.464,2025C_exp1_comp,2022.2.4,59.93698225689292,
42.7,45,1,-1,0,70,70,98,179.68627800000002,179.68627800000002,180.18655810000007,180.2534632999999,180.3033683,180.3033683,180.3033683,180.3033683,180.3532735,180.3532735,180.3532735,180.3532735,180.3532735,180.3532735,180.3532735,180.3532735,180.3532735,right,0.839428600000133,181.22033369999997,181.22033369999997,None,,5,001,2025-12-17_11h50.08.464,2025C_exp1_comp,2022.2.4,59.93698225689292,
12.1,45,-1,0,0,71,71,0,181.22033369999997,181.22033369999997,181.720772,181.7875496999999,181.8377835,181.8377835,181.8377835,181.8377835,181.88757629999998,181.88757629999998,181.88757629999998,181.88757629999998,181.88757629999998,181.88757629999998,181.88757629999998,181.88757629999998,181.88757629999998,right,0.6652235000000246,182.5716020000001,182.5716020000001,None,,5,001,2025-12-17_11h50.08.464,2025C_exp1_comp,2022.2.4,59.93698225689292,
25.5,45,1,1,0,72,72,58,182.5716020000001,182.5716020000001,183.07211539999992,183.138828,183.1894183999999,183.1894183999999,183.1894183999999,183.1894183999999,183.23895219999997,183.23895219999997,183.23895219999997,183.23895219999997,183.23895219999997,183.23895219999997,183.23895219999997,183.23895219999997,183.23895219999997,left,1.0493394000001217,184.3066611999999,184.3066611999999,None,,5,001,2025-12-17_11h50.08.464,2025C_exp1_comp,2022.2.4,59.93698225689292,
22.7,315,-1,0,0,73,73,12,184.3066611999999,184.3066611999999,184.80715999999995,184.87388569999996,184.9241897999999,184.9241897999999,184.9241897999999,184.9241897999999,184.9740688999999,184.9740688999999,184.9740688999999,184.9740688999999,184.9740688999999,184.9740688999999,184.9740688999999,184.9740688999999,184.9740688999999,right,0.5469021000000112,185.54120479999995,185.54120479999995,None,,5,001,2025-12-17_11h50.08.464,2025C_exp1_comp,2022.2.4,59.93698225689292,
29.4,45,-1,0,0,74,74,5,185.54120479999995,185.54120479999995,186.0417503,186.10847890000002,186.15876809999997,186.15876809999997,186.15876809999997,186.15876809999997,186.2086774999999,186.2086774999999,186.2086774999999,186.2086774999999,186.2086774999999,186.2086774999999,186.2086774999999,186.2086774999999,186.2086774999999,right,0.7996569000000591,187.0261177000001,187.0261177000001,None,,5,001,2025-12-17_11h50.08.464,2025C_exp1_comp,2022.2.4,59.93698225689292,
42.7,45,1,0,0,75,75,26,187.0261177000001,187.0261177000001,187.5266488000001,187.59327339999993,187.64360529999988,187.64360529999988,187.64360529999988,187.64360529999988,187.6934050000001,187.6934050000001,187.6934050000001,187.6934050000001,187.6934050000001,187.6934050000001,187.6934050000001,187.6934050000001,187.6934050000001,right,0.6428408999998965,188.36077970000008,188.36077970000008,None,,5,001,2025-12-17_11h50.08.464,2025C_exp1_comp,2022.2.4,59.93698225689292,
25.5,45,1,-1,0,76,76,94,188.36077970000008,188.36077970000008,188.8613764999999,188.9279479999999,188.97823559999995,188.97823559999995,188.97823559999995,188.97823559999995,189.0281314,189.0281314,189.0281314,189.0281314,189.0281314,189.0281314,189.0281314,189.0281314,189.0281314,left,0.6849703999999974,189.74549779999995,189.74549779999995,None,,5,001,2025-12-17_11h50.08.464,2025C_exp1_comp,2022.2.4,59.93698225689292,
19.6,45,-1,1,0,77,77,38,189.74549779999995,189.74549779999995,190.2459447,190.31276390000005,190.36302790000002,190.36302790000002,190.36302790000002,190.36302790000002,190.412827,190.412827,190.412827,190.412827,190.412827,190.412827,190.412827,190.412827,190.412827,right,0.40373779999993076,190.8465050000001,190.8465050000001,None,,5,001,2025-12-17_11h50.08.464,2025C_exp1_comp,2022.2.4,59.93698225689292,
42.7,315,1,1,0,78,78,71,190.8465050000001,190.8465050000001,191.3470713999999,191.41383800000006,191.46422919999998,191.46422919999998,191.46422919999998,191.46422919999998,191.51385859999993,191.51385859999993,191.51385859999993,191.51385859999993,191.51385859999993,191.51385859999993,191.51385859999993,191.51385859999993,191.51385859999993,right,0.5345481000000518,192.0810929999999,192.0810929999999,None,,5,001,2025-12-17_11h50.08.464,2025C_exp1_comp,2022.2.4,59.93698225689292,
19.6,315,-1,0,0,79,79,11,192.0810929999999,192.0810929999999,192.581681,192.6484655999999,192.69887359999996,192.69887359999996,192.69887359999996,192.69887359999996,192.74846190000005,192.74846190000005,192.74846190000005,192.74846190000005,192.74846190000005,192.74846190000005,192.74846190000005,192.74846190000005,192.74846190000005,right,0.7960871999999881,193.56593650000002,193.56593650000002,None,,5,001,2025-12-17_11h50.08.464,2025C_exp1_comp,2022.2.4,59.93698225689292,
29.4,45,1,-1,0,80,80,95,193.56593650000002,193.56593650000002,194.06645190000006,194.1331828000001,194.18344919999993,194.18344919999993,194.18344919999993,194.18344919999993,194.23328249999997,194.23328249999997,194.23328249999997,194.23328249999997,194.23328249999997,194.23328249999997,194.23328249999997,194.23328249999997,194.23328249999997,left,0.6234934000002568,194.8842289999999,194.8842289999999,None,,5,001,2025-12-17_11h50.08.464,2025C_exp1_comp,2022.2.4,59.93698225689292,
19.6,45,1,0,0,81,81,20,194.8842289999999,194.8842289999999,195.38443210000003,195.45114189999993,195.5015013000001,195.5015013000001,195.5015013000001,195.5015013000001,195.55130079999992,195.55130079999992,195.55130079999992,195.55130079999992,195.55130079999992,195.55130079999992,195.55130079999992,195.55130079999992,195.55130079999992,left,0.8656935000000203,196.43553989999998,196.43553989999998,None,,5,001,2025-12-17_11h50.08.464,2025C_exp1_comp,2022.2.4,59.93698225689292,
29.4,45,1,1,0,82,82,59,196.43553989999998,196.43553989999998,196.93584879999992,197.00267079999992,197.0530387,197.0530387,197.0530387,197.0530387,197.10280419999992,197.10280419999992,197.10280419999992,197.10280419999992,197.10280419999992,197.10280419999992,197.10280419999992,197.10280419999992,197.10280419999992,left,1.065497500000106,198.18725630000006,198.18725630000006,None,,5,001,2025-12-17_11h50.08.464,2025C_exp1_comp,2022.2.4,59.93698225689292,
22.7,45,1,-1,0,83,83,93,198.18725630000006,198.18725630000006,198.6877502000001,198.75442379999993,198.80477000000008,198.80477000000008,198.80477000000008,198.80477000000008,198.8545304999999,198.8545304999999,198.8545304999999,198.8545304999999,198.8545304999999,198.8545304999999,198.8545304999999,198.8545304999999,198.8545304999999,left,1.3459395999999515,200.22257969999998,200.22257969999998,None,,5,001,2025-12-17_11h50.08.464,2025C_exp1_comp,2022.2.4,59.93698225689292,
19.6,315,1,1,0,84,84,65,200.22257969999998,200.22257969999998,200.72326340000006,200.7898437,200.84022979999997,200.84022979999997,200.84022979999997,200.84022979999997,200.8899462999999,200.8899462999999,200.8899462999999,200.8899462999999,200.8899462999999,200.8899462999999,200.8899462999999,200.8899462999999,200.8899462999999,left,2.7183963999999605,203.62596100000007,203.62596100000007,None,,5,001,2025-12-17_11h50.08.464,2025C_exp1_comp,2022.2.4,59.93698225689292,
22.7,315,1,1,0,85,85,66,203.62596100000007,203.62596100000007,204.12646940000002,204.19318770000007,204.24350760000004,204.24350760000004,204.24350760000004,204.24350760000004,204.29328369999996,204.29328369999996,204.29328369999996,204.29328369999996,204.29328369999996,204.29328369999996,204.29328369999996,204.29328369999996,204.29328369999996,right,2.699748900000145,207.01267859999996,207.01267859999996,None,,5,001,2025-12-17_11h50.08.464,2025C_exp1_comp,2022.2.4,59.93698225689292,
15.7,315,1,1,0,86,86,64,207.01267859999996,207.01267859999996,207.51323409999998,207.57997310000007,207.6302136999999,207.6302136999999,207.6302136999999,207.6302136999999,207.68002609999996,207.68002609999996,207.68002609999996,207.68002609999996,207.68002609999996,207.68002609999996,207.68002609999996,207.68002609999996,207.68002609999996,right,1.3205295999999862,209.03139129999988,209.03139129999988,None,,5,001,2025-12-17_11h50.08.464,2025C_exp1_comp,2022.2.4,59.93698225689292,
29.4,45,1,0,0,87,87,23,209.03139129999988,209.03139129999988,209.5319214,209.59866309999995,209.6489717999999,209.6489717999999,209.6489717999999,209.6489717999999,209.6990838999999,209.6990838999999,209.6990838999999,209.6990838999999,209.6990838999999,209.6990838999999,209.6990838999999,209.6990838999999,209.6990838999999,left,0.9330076999998482,210.64963490000002,210.64963490000002,None,,5,001,2025-12-17_11h50.08.464,2025C_exp1_comp,2022.2.4,59.93698225689292,
29.4,315,-1,-1,0,88,88,86,210.64963490000002,210.64963490000002,211.150219,211.2168759,211.2671650000001,211.2671650000001,211.2671650000001,211.2671650000001,211.31697040000006,211.31697040000006,211.31697040000006,211.31697040000006,211.31697040000006,211.31697040000006,211.31697040000006,211.31697040000006,211.31697040000006,right,1.09193700000003,212.43476240000007,212.43476240000007,None,,5,001,2025-12-17_11h50.08.464,2025C_exp1_comp,2022.2.4,59.93698225689292,
42.7,45,-1,-1,0,89,89,80,212.43476240000007,212.43476240000007,212.9353061999999,213.00198050000006,213.0523085000001,213.0523085000001,213.0523085000001,213.0523085000001,213.10210369999993,213.10210369999993,213.10210369999993,213.10210369999993,213.10210369999993,213.10210369999993,213.10210369999993,213.10210369999993,213.10210369999993,left,1.3307541000000356,214.45344160000002,214.45344160000002,None,,5,001,2025-12-17_11h50.08.464,2025C_exp1_comp,2022.2.4,59.93698225689292,
19.6,315,-1,-1,0,90,90,83,214.45344160000002,214.45344160000002,214.95396889999995,215.02100660000008,215.0710138999999,215.0710138999999,215.0710138999999,215.0710138999999,215.1207759,215.1207759,215.1207759,215.1207759,215.1207759,215.1207759,215.1207759,215.1207759,215.1207759,right,0.6479609000001574,215.78810469999996,215.78810469999996,None,,5,001,2025-12-17_11h50.08.464,2025C_exp1_comp,2022.2.4,59.93698225689292,
12.1,45,1,0,0,91,91,18,215.78810469999996,215.78810469999996,216.28861429999995,216.3553298999999,216.40565019999997,216.40565019999997,216.40565019999997,216.40565019999997,216.4554042000001,216.4554042000001,216.4554042000001,216.4554042000001,216.4554042000001,216.4554042000001,216.4554042000001,216.4554042000001,216.4554042000001,left,0.6646660000000111,217.13945189999993,217.13945189999993,None,,5,001,2025-12-17_11h50.08.464,2025C_exp1_comp,2022.2.4,59.93698225689292,
12.1,315,-1,-1,0,92,92,81,217.13945189999993,217.13945189999993,217.64030960000002,217.70709219999992,217.75700240000003,217.75700240000003,217.75700240000003,217.75700240000003,217.80678060000002,217.80678060000002,217.80678060000002,217.80678060000002,217.80678060000002,217.80678060000002,217.80678060000002,217.80678060000002,217.80678060000002,right,0.617723299999966,218.45744000000002,218.45744000000002,None,,5,001,2025-12-17_11h50.08.464,2025C_exp1_comp,2022.2.4,59.93698225689292,
12.1,315,-1,1,0,93,93,45,218.45744000000002,218.45744000000002,218.95795800000008,219.0246957999999,219.07498350000003,219.07498350000003,219.07498350000003,219.07498350000003,219.12480519999997,219.12480519999997,219.12480519999997,219.12480519999997,219.12480519999997,219.12480519999997,219.12480519999997,219.12480519999997,219.12480519999997,right,0.6120065000001205,219.75874910000005,219.75874910000005,None,,5,001,2025-12-17_11h50.08.464,2025C_exp1_comp,2022.2.4,59.93698225689292,
39.2,45,-1,0,0,94,94,7,219.75874910000005,219.75874910000005,220.25932509999996,220.32602020000002,220.37627269999996,220.37627269999996,220.37627269999996,220.37627269999996,220.42612139999994,220.42612139999994,220.42612139999994,220.42612139999994,220.42612139999994,220.42612139999994,220.42612139999994,220.42612139999994,220.42612139999994,right,2.174608800000101,222.62829440000007,222.62829440000007,None,,5,001,2025-12-17_11h50.08.464,2025C_exp1_comp,2022.2.4,59.93698225689292,
25.5,315,1,-1,0,95,95,103,222.62829440000007,222.62829440000007,223.12926060000007,223.19570229999988,223.24582670000007,223.24582670000007,223.24582670000007,223.24582670000007,223.2956883999999,223.2956883999999,223.2956883999999,223.2956883999999,223.2956883999999,223.2956883999999,223.2956883999999,223.2956883999999,223.2956883999999,left,1.224810100000127,224.54692119999993,224.54692119999993,None,,5,001,2025-12-17_11h50.08.464,2025C_exp1_comp,2022.2.4,59.93698225689292,
42.7,45,1,1,0,96,96,62,224.54692119999993,224.54692119999993,225.04737420000004,225.11435489999997,225.16440969999996,225.16440969999996,225.16440969999996,225.16440969999996,225.21422849999988,225.21422849999988,225.21422849999988,225.21422849999988,225.21422849999988,225.21422849999988,225.21422849999988,225.21422849999988,225.21422849999988,right,0.7384955999999647,225.98162689999992,225.98162689999992,None,,5,001,2025-12-17_11h50.08.464,2025C_exp1_comp,2022.2.4,59.93698225689292,
19.6,315,-1,1,0,97,97,47,225.98162689999992,225.98162689999992,226.48215850000008,226.54904049999993,226.59917230000008,226.59917230000008,226.59917230000008,226.59917230000008,226.64898800000003,226.64898800000003,226.64898800000003,226.64898800000003,226.64898800000003,226.64898800000003,226.64898800000003,226.64898800000003,226.64898800000003,right,0.6878622999998925,227.3667936999999,227.3667936999999,None,,5,001,2025-12-17_11h50.08.464,2025C_exp1_comp,2022.2.4,59.93698225689292,
12.1,315,-1,0,0,98,98,9,227.3667936999999,227.3667936999999,227.8668684999999,227.93366839999987,227.9839146999999,227.9839146999999,227.9839146999999,227.9839146999999,228.03369689999988,228.03369689999988,228.03369689999988,228.03369689999988,228.03369689999988,228.03369689999988,228.03369689999988,228.03369689999988,228.03369689999988,right,0.6469303000000082,228.7010137000001,228.7010137000001,None,,5,001,2025-12-17_11h50.08.464,2025C_exp1_comp,2022.2.4,59.93698225689292,
42.7,45,-1,1,0,99,99,44,228.7010137000001,228.7010137000001,229.20153599999992,229.2683917999999,229.31914930000005,229.31914930000005,229.31914930000005,229.31914930000005,229.3685334999999,229.3685334999999,229.3685334999999,229.3685334999999,229.3685334999999,229.3685334999999,229.3685334999999,229.3685334999999,229.3685334999999,right,0.6878213999999616,230.08579739999993,230.08579739999993,None,,5,001,2025-12-17_11h50.08.464,2025C_exp1_comp,2022.2.4,59.93698225689292,
42.7,315,-1,-1,0,100,100,89,230.08579739999993,230.08579739999993,230.5873941000001,230.6530102999999,230.70328549999988,230.70328549999988,230.70328549999988,230.70328549999988,230.75308170000005,230.75308170000005,230.75308170000005,230.75308170000005,230.75308170000005,230.75308170000005,230.75308170000005,230.75308170000005,230.75308170000005,right,0.8633567999999059,231.63726699999995,231.63726699999995,None,,5,001,2025-12-17_11h50.08.464,2025C_exp1_comp,2022.2.4,59.93698225689292,
25.5,45,-1,0,0,101,101,4,231.63726699999995,231.63726699999995,232.1378375999999,232.2045429000001,232.25490550000006,232.25490550000006,232.25490550000006,232.25490550000006,232.30460030000006,232.30460030000006,232.30460030000006,232.30460030000006,232.30460030000006,232.30460030000006,232.30460030000006,232.30460030000006,232.30460030000006,right,1.7599650999999312,234.0899286,234.0899286,None,,5,001,2025-12-17_11h50.08.464,2025C_exp1_comp,2022.2.4,59.93698225689292,
12.1,45,1,-1,0,102,102,90,234.0899286,234.0899286,234.59030689999997,234.65699729999994,234.70726709999997,234.70726709999997,234.70726709999997,234.70726709999997,234.75708479999992,234.75708479999992,234.75708479999992,234.75708479999992,234.75708479999992,234.75708479999992,234.75708479999992,234.75708479999992,234.75708479999992,left,0.5554772000001549,235.3409777999999,235.3409777999999,None,,5,001,2025-12-17_11h50.08.464,2025C_exp1_comp,2022.2.4,59.93698225689292,
29.4,45,-1,-1,0,103,103,77,235.3409777999999,235.3409777999999,235.8414873999999,235.90823450000005,235.95853120000004,235.95853120000004,235.95853120000004,235.95853120000004,236.00836700000002,236.00836700000002,236.00836700000002,236.00836700000002,236.00836700000002,236.00836700000002,236.00836700000002,236.00836700000002,236.00836700000002,right,0.7517928000000893,236.79241620000005,236.79241620000005,None,,5,001,2025-12-17_11h50.08.464,2025C_exp1_comp,2022.2.4,59.93698225689292,
15.7,45,1,0,0,104,104,19,236.79241620000005,236.79241620000005,237.2929871,237.35969319999992,237.4100838999999,237.4100838999999,237.4100838999999,237.4100838999999,237.45976600000006,237.45976600000006,237.45976600000006,237.45976600000006,237.45976600000006,237.45976600000006,237.45976600000006,237.45976600000006,237.45976600000006,left,1.1084804999999278,238.59422989999996,238.59422989999996,None,,5,001,2025-12-17_11h50.08.464,2025C_exp1_comp,2022.2.4,59.93698225689292,
39.2,315,1,1,0,105,105,70,238.59422989999996,238.59422989999996,239.0947351000001,239.16143799999998,239.21175529999994,239.21175529999994,239.21175529999994,239.21175529999994,239.26155759999995,239.26155759999995,239.26155759999995,239.26155759999995,239.26155759999995,239.26155759999995,239.26155759999995,239.26155759999995,239.26155759999995,right,0.8108249000000569,240.09571700000004,240.09571700000004,None,,5,001,2025-12-17_11h50.08.464,2025C_exp1_comp,2022.2.4,59.93698225689292,
39.2,45,1,1,0,106,106,61,240.09571700000004,240.09571700000004,240.59628510000005,240.66303490000007,240.71332889999996,240.71332889999996,240.71332889999996,240.71332889999996,240.76315039999997,240.76315039999997,240.76315039999997,240.76315039999997,240.76315039999997,240.76315039999997,240.76315039999997,240.76315039999997,240.76315039999997,right,0.8209854999998925,241.61390440000002,241.61390440000002,None,,5,001,2025-12-17_11h50.08.464,2025C_exp1_comp,2022.2.4,59.93698225689292,
39.2,315,-1,0,0,107,107,16,241.61390440000002,241.61390440000002,242.11448099999996,242.18113809999988,242.2314459999999,242.2314459999999,242.2314459999999,242.2314459999999,242.28123279999988,242.28123279999988,242.28123279999988,242.28123279999988,242.28123279999988,242.28123279999988,242.28123279999988,242.28123279999988,242.28123279999988,right,0.9669489999999996,243.2656693,243.2656693,space,2.878553300000135,5,001,2025-12-17_11h50.08.464,2025C_exp1_comp,2022.2.4,59.93698225689292,
35.3,315,1,1,1,0,108,69,246.1684853999999,246.1684853999999,246.6689851,246.73569910000003,246.7860171000001,246.7860171000001,246.7860171000001,246.7860171000001,246.83643629999995,246.83643629999995,246.83643629999995,246.83643629999995,246.83643629999995,246.83643629999995,246.83643629999995,246.83643629999995,246.83643629999995,right,0.676446300000066,247.53652569999997,247.53652569999997,None,,5,001,2025-12-17_11h50.08.464,2025C_exp1_comp,2022.2.4,59.93698225689292,
15.7,45,1,-1,1,1,109,91,247.53652569999997,247.53652569999997,248.03704490000007,248.1037493,248.1540165,248.1540165,248.1540165,248.1540165,248.2038495999999,248.2038495999999,248.2038495999999,248.2038495999999,248.2038495999999,248.2038495999999,248.2038495999999,248.2038495999999,248.2038495999999,left,0.6282917000002044,248.85446869999998,248.85446869999998,None,,5,001,2025-12-17_11h50.08.464,2025C_exp1_comp,2022.2.4,59.93698225689292,
25.5,315,1,1,1,2,110,67,248.85446869999998,248.85446869999998,249.35499420000008,249.42167959999995,249.47201589999997,249.47201589999997,249.47201589999997,249.47201589999997,249.5227162,249.5227162,249.5227162,249.5227162,249.5227162,249.5227162,249.5227162,249.5227162,249.5227162,right,0.6457380999999032,250.18922469999995,250.18922469999995,None,,5,001,2025-12-17_11h50.08.464,2025C_exp1_comp,2022.2.4,59.93698225689292,
19.6,315,1,0,1,3,111,29,250.18922469999995,250.18922469999995,250.6897264999999,250.75637760000006,250.80679599999996,250.80679599999996,250.80679599999996,250.80679599999996,250.85646669999994,250.85646669999994,250.85646669999994,250.85646669999994,250.85646669999994,250.85646669999994,250.85646669999994,250.85646669999994,250.85646669999994,left,0.6162863000000698,251.49043799999993,251.49043799999993,None,,5,001,2025-12-17_11h50.08.464,2025C_exp1_comp,2022.2.4,59.93698225689292,
22.7,45,-1,-1,1,4,112,75,251.49043799999993,251.49043799999993,251.9909457,252.05770760000007,252.10797319999995,252.10797319999995,252.10797319999995,252.10797319999995,252.15780129999996,252.15780129999996,252.15780129999996,252.15780129999996,252.15780129999996,252.15780129999996,252.15780129999996,252.15780129999996,252.15780129999996,right,0.8028800000000729,252.9920358999999,252.9920358999999,None,,5,001,2025-12-17_11h50.08.464,2025C_exp1_comp,2022.2.4,59.93698225689292,
12.1,315,-1,0,1,5,113,9,252.9920358999999,252.9920358999999,253.49249279999992,253.55920120000008,253.60983210000006,253.60983210000006,253.60983210000006,253.60983210000006,253.6593168999999,253.6593168999999,253.6593168999999,253.6593168999999,253.6593168999999,253.6593168999999,253.6593168999999,253.6593168999999,253.6593168999999,right,0.8857395999999653,254.5768847999999,254.5768847999999,None,,5,001,2025-12-17_11h50.08.464,2025C_exp1_comp,2022.2.4,59.93698225689292,
29.4,45,1,1,1,6,114,59,254.5768847999999,254.5768847999999,255.07739099999992,255.14407730000005,255.19460990000005,255.19460990000005,255.19460990000005,255.19460990000005,255.24419969999997,255.24419969999997,255.24419969999997,255.24419969999997,255.24419969999997,255.24419969999997,255.24419969999997,255.24419969999997,255.24419969999997,right,1.556695300000115,256.8291221999999,256.8291221999999,None,,5,001,2025-12-17_11h50.08.464,2025C_exp1_comp,2022.2.4,59.93698225689292,
19.6,45,-1,1,1,7,115,38,256.8291221999999,256.8291221999999,257.3297188999999,257.39633749999996,257.44665380000004,257.44665380000004,257.44665380000004,257.44665380000004,257.4965681,257.4965681,257.4965681,257.4965681,257.4965681,257.4965681,257.4965681,257.4965681,257.4965681,right,0.5757170000000542,258.09707650000007,258.09707650000007,None,,5,001,2025-12-17_11h50.08.464,2025C_exp1_comp,2022.2.4,59.93698225689292,
39.2,315,1,1,1,8,116,70,258.09707650000007,258.09707650000007,258.59755630000006,258.6643250000001,258.7148218000001,258.7148218000001,258.7148218000001,258.7148218000001,258.76463950000004,258.76463950000004,258.76463950000004,258.76463950000004,258.76463950000004,258.76463950000004,258.76463950000004,258.76463950000004,258.76463950000004,right,0.6360337999998364,259.43184529999996,259.43184529999996,None,,5,001,2025-12-17_11h50.08.464,2025C_exp1_comp,2022.2.4,59.93698225689292,
35.3,45,1,-1,1,9,117,96,259.43184529999996,259.43184529999996,259.932236,259.9990033999999,260.0492556999999,260.0492556999999,260.0492556999999,260.0492556999999,260.09903739999993,260.09903739999993,260.09903739999993,260.09903739999993,260.09903739999993,260.09903739999993,260.09903739999993,260.09903739999993,260.09903739999993,left,0.8138637000000699,260.9332192999999,260.9332192999999,None,,5,001,2025-12-17_11h50.08.464,2025C_exp1_comp,2022.2.4,59.93698225689292,
12.1,45,1,1,1,10,118,54,260.9332192999999,260.9332192999999,261.43380680000007,261.5004491000001,261.5507613000001,261.5507613000001,261.5507613000001,261.5507613000001,261.6005481000001,261.6005481000001,261.6005481000001,261.6005481000001,261.6005481000001,261.6005481000001,261.6005481000001,261.6005481000001,261.6005481000001,left,0.7119188999998869,262.3348582,262.3348582,None,,5,001,2025-12-17_11h50.08.464,2025C_exp1_comp,2022.2.4,59.93698225689292,
19.6,45,-1,-1,1,11,119,74,262.3348582,262.3348582,262.8354521,262.9019093999999,262.95225949999997,262.95225949999997,262.95225949999997,262.95225949999997,263.0021697000001,263.0021697000001,263.0021697000001,263.0021697000001,263.0021697000001,263.0021697000001,263.0021697000001,263.0021697000001,263.0021697000001,right,0.6065194000001384,263.6360152000001,263.6360152000001,None,,5,001,2025-12-17_11h50.08.464,2025C_exp1_comp,2022.2.4,59.93698225689292,
12.1,315,1,1,1,12,120,63,263.6360152000001,263.6360152000001,264.13678990000005,264.20345080000004,264.2538994999999,264.2538994999999,264.2538994999999,264.2538994999999,264.30374270000004,264.30374270000004,264.30374270000004,264.30374270000004,264.30374270000004,264.30374270000004,264.30374270000004,264.30374270000004,264.30374270000004,left,0.5126367999999957,264.83745880000004,264.83745880000004,None,,5,001,2025-12-17_11h50.08.464,2025C_exp1_comp,2022.2.4,59.93698225689292,
22.7,315,1,1,1,13,121,66,264.83745880000004,264.83745880000004,265.3379781,265.4043851,265.454705,265.454705,265.454705,265.454705,265.504904,265.504904,265.504904,265.504904,265.504904,265.504904,265.504904,265.504904,265.504904,left,0.8318437000001495,266.3554780999999,266.3554780999999,None,,5,001,2025-12-17_11h50.08.464,2025C_exp1_comp,2022.2.4,59.93698225689292,
29.4,315,-1,0,1,14,122,14,266.3554780999999,266.3554780999999,266.85613320000004,266.9229944,266.9731379000001,266.9731379000001,266.9731379000001,266.9731379000001,267.0229757000001,267.0229757000001,267.0229757000001,267.0229757000001,267.0229757000001,267.0229757000001,267.0229757000001,267.0229757000001,267.0229757000001,right,0.6822415000000319,267.7237908999999,267.7237908999999,None,,5,001,2025-12-17_11h50.08.464,2025C_exp1_comp,2022.2.4,59.93698225689292,
12.1,45,-1,0,1,15,123,0,267.7237908999999,267.7237908999999,268.2241083,268.29079450000006,268.3411147999999,268.3411147999999,268.3411147999999,268.3411147999999,268.3910092,268.3910092,268.3910092,268.3910092,268.3910092,268.3910092,268.3910092,268.3910092,268.3910092,right,0.7062932000000046,269.1250449999999,269.1250449999999,None,,5,001,2025-12-17_11h50.08.464,2025C_exp1_comp,2022.2.4,59.93698225689292,
29.4,315,-1,1,1,16,124,50,269.1250449999999,269.1250449999999,269.6258787999999,269.6925669000001,269.7427306999999,269.7427306999999,269.7427306999999,269.7427306999999,269.79238509999993,269.79238509999993,269.79238509999993,269.79238509999993,269.79238509999993,269.79238509999993,269.79238509999993,269.79238509999993,269.79238509999993,right,1.9848908999998685,271.79441600000007,271.79441600000007,None,,5,001,2025-12-17_11h50.08.464,2025C_exp1_comp,2022.2.4,59.93698225689292,
25.5,315,-1,0,1,17,125,13,271.79441600000007,271.79441600000007,272.2948726000001,272.36163440000007,272.41190670000003,272.41190670000003,272.41190670000003,272.41190670000003,272.4617228000001,272.4617228000001,272.4617228000001,272.4617228000001,272.4617228000001,272.4617228000001,272.4617228000001,272.4617228000001,272.4617228000001,right,0.6024349000000484,273.09543700000006,273.09543700000006,None,,5,001,2025-12-17_11h50.08.464,2025C_exp1_comp,2022.2.4,59.93698225689292,
39.2,315,-1,-1,1,18,126,88,273.09543700000006,273.09543700000006,273.59647540000003,273.6630593000001,273.713353,273.713353,273.713353,273.713353,273.7632591999999,273.7632591999999,273.7632591999999,273.7632591999999,273.7632591999999,273.7632591999999,273.7632591999999,273.7632591999999,273.7632591999999,right,0.9895554000000857,274.7805801999999,274.7805801999999,None,,5,001,2025-12-17_11h50.08.464,2025C_exp1_comp,2022.2.4,59.93698225689292,
35.3,45,1,1,1,19,127,60,274.7805801999999,274.7805801999999,275.2811796,275.3479332999999,275.39838010000005,275.39838010000005,275.39838010000005,275.39838010000005,275.44792399999994,275.44792399999994,275.44792399999994,275.44792399999994,275.44792399999994,275.44792399999994,275.44792399999994,275.44792399999994,275.44792399999994,right,0.8173374000001559,276.28207499999996,276.28207499999996,None,,5,001,2025-12-17_11h50.08.464,2025C_exp1_comp,2022.2.4,59.93698225689292,
25.5,45,-1,0,1,20,128,4,276.28207499999996,276.28207499999996,276.7825981,276.8494406000001,276.8997129999999,276.8997129999999,276.8997129999999,276.8997129999999,276.9495344999999,276.9495344999999,276.9495344999999,276.9495344999999,276.9495344999999,276.9495344999999,276.9495344999999,276.9495344999999,276.9495344999999,right,1.0828333000000612,278.0506477,278.0506477,None,,5,001,2025-12-17_11h50.08.464,2025C_exp1_comp,2022.2.4,59.93698225689292,
22.7,315,-1,0,1,21,129,12,278.0506477,278.0506477,278.55117559999997,278.61799110000004,278.6680926999999,278.6680926999999,278.6680926999999,278.6680926999999,278.7178448000001,278.7178448000001,278.7178448000001,278.7178448000001,278.7178448000001,278.7178448000001,278.7178448000001,278.7178448000001,278.7178448000001,right,0.5795335999999907,279.3185729999999,279.3185729999999,None,,5,001,2025-12-17_11h50.08.464,2025C_exp1_comp,2022.2.4,59.93698225689292,
35.3,315,1,0,1,22,130,33,279.3185729999999,279.3185729999999,279.81906089999995,279.8858111999999,279.93613059999996,279.93613059999996,279.93613059999996,279.93613059999996,279.98575530000005,279.98575530000005,279.98575530000005,279.98575530000005,279.98575530000005,279.98575530000005,279.98575530000005,279.98575530000005,279.98575530000005,right,1.64774060000002,281.6541682000001,281.6541682000001,None,,5,001,2025-12-17_11h50.08.464,2025C_exp1_comp,2022.2.4,59.93698225689292,
15.7,45,-1,0,1,23,131,1,281.6541682000001,281.6541682000001,282.1547987,282.2214737999999,282.2718598,282.2718598,282.2718598,282.2718598,282.3216159,282.3216159,282.3216159,282.3216159,282.3216159,282.3216159,282.3216159,282.3216159,282.3216159,right,0.6627075000000104,283.00532910000004,283.00532910000004,None,,5,001,2025-12-17_11h50.08.464,2025C_exp1_comp,2022.2.4,59.93698225689292,
12.1,315,1,0,1,24,132,27,283.00532910000004,283.00532910000004,283.5059190999999,283.5724824,283.6228425999999,283.6228425999999,283.6228425999999,283.6228425999999,283.6725832999999,283.6725832999999,283.6725832999999,283.6725832999999,283.6725832999999,283.6725832999999,283.6725832999999,283.6725832999999,283.6725832999999,left,0.6641487000000552,284.3565927000001,284.3565927000001,None,,5,001,2025-12-17_11h50.08.464,2025C_exp1_comp,2022.2.4,59.93698225689292,
35.3,45,-1,1,1,25,133,42,284.3565927000001,284.3565927000001,284.85738290000006,284.92384589999995,284.97418989999994,284.97418989999994,284.97418989999994,284.97418989999994,285.02395820000004,285.02395820000004,285.02395820000004,285.02395820000004,285.02395820000004,285.02395820000004,285.02395820000004,285.02395820000004,285.02395820000004,right,1.2966669999999567,286.341943,286.341943,None,,5,001,2025-12-17_11h50.08.464,2025C_exp1_comp,2022.2.4,59.93698225689292,
19.6,45,1,0,1,26,134,20,286.341943,286.341943,286.8424578999999,286.90935049999996,286.95948110000006,286.95948110000006,286.95948110000006,286.95948110000006,287.00931819999994,287.00931819999994,287.00931819999994,287.00931819999994,287.00931819999994,287.00931819999994,287.00931819999994,287.00931819999994,287.00931819999994,left,0.5115543000000571,287.5432397999999,287.5432397999999,None,,5,001,2025-12-17_11h50.08.464,2025C_exp1_comp,2022.2.4,59.93698225689292,
25.5,45,1,-1,1,27,135,94,287.5432397999999,287.5432397999999,288.043644,288.11050009999997,288.1609488,288.1609488,288.1609488,288.1609488,288.210469,288.210469,288.210469,288.210469,288.210469,288.210469,288.210469,288.210469,288.210469,left,0.6219722000001866,288.8612194000001,288.8612194000001,None,,5,001,2025-12-17_11h50.08.464,2025C_exp1_comp,2022.2.4,59.93698225689292,
39.2,315,1,0,1,28,136,34,288.8612194000001,288.8612194000001,289.3616335999999,289.4283457,289.4787734,289.4787734,289.4787734,289.4787734,289.52848759999995,289.52848759999995,289.52848759999995,289.52848759999995,289.52848759999995,289.52848759999995,289.52848759999995,289.52848759999995,289.52848759999995,right,1.0558841000000712,290.6128815999999,290.6128815999999,None,,5,001,2025-12-17_11h50.08.464,2025C_exp1_comp,2022.2.4,59.93698225689292,
25.5,315,1,0,1,29,137,31,290.6128815999999,290.6128815999999,291.1133415999999,291.1803099,291.2305361,291.2305361,291.2305361,291.2305361,291.2802081000001,291.2802081000001,291.2802081000001,291.2802081000001,291.2802081000001,291.2802081000001,291.2802081000001,291.2802081000001,291.2802081000001,left,0.5439294000001382,291.84746340000004,291.84746340000004,None,,5,001,2025-12-17_11h50.08.464,2025C_exp1_comp,2022.2.4,59.93698225689292,
19.6,45,1,1,1,30,138,56,291.84746340000004,291.84746340000004,292.348081,292.4146606999999,292.4649882,292.4649882,292.4649882,292.4649882,292.51477850000003,292.51477850000003,292.51477850000003,292.51477850000003,292.51477850000003,292.51477850000003,292.51477850000003,292.51477850000003,292.51477850000003,left,0.5578897999999981,293.0991212,293.0991212,None,,5,001,2025-12-17_11h50.08.464,2025C_exp1_comp,2022.2.4,59.93698225689292,
15.7,315,1,1,1,31,139,64,293.0991212,293.0991212,293.59942910000007,293.66608299999996,293.71652200000005,293.71652200000005,293.71652200000005,293.71652200000005,293.7663234999999,293.7663234999999,293.7663234999999,293.7663234999999,293.7663234999999,293.7663234999999,293.7663234999999,293.7663234999999,293.7663234999999,left,0.5391660999999885,294.3336060999999,294.3336060999999,None,,5,001,2025-12-17_11h50.08.464,2025C_exp1_comp,2022.2.4,59.93698225689292,
12.1,45,1,-1,1,32,140,90,294.3336060999999,294.3336060999999,294.8340993999999,294.9007799,294.9511002999999,294.9511002999999,294.9511002999999,294.9511002999999,295.0007575000001,295.0007575000001,295.0007575000001,295.0007575000001,295.0007575000001,295.0007575000001,295.0007575000001,295.0007575000001,295.0007575000001,left,0.5447113999999829,295.56812920000004,295.56812920000004,None,,5,001,2025-12-17_11h50.08.464,2025C_exp1_comp,2022.2.4,59.93698225689292,
42.7,45,1,0,1,33,141,26,295.56812920000004,295.56812920000004,296.06842829999994,296.1350486,296.1856624999999,296.1856624999999,296.1856624999999,296.1856624999999,296.2354377999999,296.2354377999999,296.2354377999999,296.2354377999999,296.2354377999999,296.2354377999999,296.2354377999999,296.2354377999999,296.2354377999999,right,3.229865700000005,299.4885356000001,299.4885356000001,None,,5,001,2025-12-17_11h50.08.464,2025C_exp1_comp,2022.2.4,59.93698225689292,
19.6,315,1,-1,1,34,142,101,299.4885356000001,299.4885356000001,299.9891635,300.05590629999995,300.1060976,300.1060976,300.1060976,300.1060976,300.1560117,300.1560117,300.1560117,300.1560117,300.1560117,300.1560117,300.1560117,300.1560117,300.1560117,left,0.6523144000001366,300.8400587,300.8400587,None,,5,001,2025-12-17_11h50.08.464,2025C_exp1_comp,2022.2.4,59.93698225689292,
25.5,315,-1,1,1,35,143,49,300.8400587,300.8400587,301.34056709999993,301.4071534000001,301.45758349999994,301.45758349999994,301.45758349999994,301.45758349999994,301.507422,301.507422,301.507422,301.507422,301.507422,301.507422,301.507422,301.507422,301.507422,right,0.6369032999999718,302.17486539999993,302.17486539999993,None,,5,001,2025-12-17_11h50.08.464,2025C_exp1_comp,2022.2.4,59.93698225689292,
22.7,45,-1,0,1,36,144,3,302.17486539999993,302.17486539999993,302.6752587,302.7417048000001,302.79216800000006,302.79216800000006,302.79216800000006,302.79216800000006,302.84203790000004,302.84203790000004,302.84203790000004,302.84203790000004,302.84203790000004,302.84203790000004,302.84203790000004,302.84203790000004,302.84203790000004,right,0.6552797999999029,303.52593809999996,303.52593809999996,None,,5,001,2025-12-17_11h50.08.464,2025C_exp1_comp,2022.2.4,59.93698225689292,
12.1,45,1,0,1,37,145,18,303.52593809999996,303.52593809999996,304.0265880999999,304.09333589999994,304.1436023,304.1436023,304.1436023,304.1436023,304.1932694000001,304.1932694000001,304.1932694000001,304.1932694000001,304.1932694000001,304.1932694000001,304.1932694000001,304.1932694000001,304.1932694000001,left,0.5432005000001254,304.7605213999999,304.7605213999999,None,,5,001,2025-12-17_11h50.08.464,2025C_exp1_comp,2022.2.4,59.93698225689292,
15.7,315,1,0,1,38,146,28,304.7605213999999,304.7605213999999,305.2611639999999,305.3278076,305.37830840000004,305.37830840000004,305.37830840000004,305.37830840000004,305.42796250000004,305.42796250000004,305.42796250000004,305.42796250000004,305.42796250000004,305.42796250000004,305.42796250000004,305.42796250000004,305.42796250000004,left,0.5413403999999673,305.9950772000001,305.9950772000001,None,,5,001,2025-12-17_11h50.08.464,2025C_exp1_comp,2022.2.4,59.93698225689292,
19.6,315,-1,0,1,39,147,11,305.9950772000001,305.9950772000001,306.4955248,306.5624732,306.6124894999999,306.6124894999999,306.6124894999999,306.6124894999999,306.66243999999995,306.66243999999995,306.66243999999995,306.66243999999995,306.66243999999995,306.66243999999995,306.66243999999995,306.66243999999995,306.66243999999995,right,0.6743681000001516,307.36322499999994,307.36322499999994,None,,5,001,2025-12-17_11h50.08.464,2025C_exp1_comp,2022.2.4,59.93698225689292,
35.3,315,-1,-1,1,40,148,87,307.36322499999994,307.36322499999994,307.8637987999999,307.93036900000004,307.98073239999997,307.98073239999997,307.98073239999997,307.98073239999997,308.0306328999999,308.0306328999999,308.0306328999999,308.0306328999999,308.0306328999999,308.0306328999999,308.0306328999999,308.0306328999999,308.0306328999999,left,0.9775748000000704,309.03235069999994,309.03235069999994,None,,5,001,2025-12-17_11h50.08.464,2025C_exp1_comp,2022.2.4,59.93698225689292,
42.7,315,-1,-1,1,41,149,89,309.03235069999994,309.03235069999994,309.53184610000005,309.5985101,309.6489468000001,309.6489468000001,309.6489468000001,309.6489468000001,309.6988043,309.6988043,309.6988043,309.6988043,309.6988043,309.6988043,309.6988043,309.6988043,309.6988043,left,1.5180346000000782,311.2334835999999,311.2334835999999,None,,5,001,2025-12-17_11h50.08.464,2025C_exp1_comp,2022.2.4,59.93698225689292,
35.3,45,-1,0,1,42,150,6,311.2334835999999,311.2334835999999,311.73405979999995,311.8007661999999,311.8510898999999,311.8510898999999,311.8510898999999,311.8510898999999,311.9007892000001,311.9007892000001,311.9007892000001,311.9007892000001,311.9007892000001,311.9007892000001,311.9007892000001,311.9007892000001,311.9007892000001,left,0.6195111999999199,312.55142979999994,312.55142979999994,None,,5,001,2025-12-17_11h50.08.464,2025C_exp1_comp,2022.2.4,59.93698225689292,
29.4,315,1,1,1,43,151,68,312.55142979999994,312.55142979999994,313.052016,313.1189654000001,313.1692276,313.1692276,313.1692276,313.1692276,313.21883620000006,313.21883620000006,313.21883620000006,313.21883620000006,313.21883620000006,313.21883620000006,313.21883620000006,313.21883620000006,313.21883620000006,left,0.6691705000001775,313.91968639999993,313.91968639999993,None,,5,001,2025-12-17_11h50.08.464,2025C_exp1_comp,2022.2.4,59.93698225689292,
15.7,315,-1,0,1,44,152,10,313.91968639999993,313.91968639999993,314.4208600999999,314.4869382999999,314.5370466999999,314.5370466999999,314.5370466999999,314.5370466999999,314.5868864,314.5868864,314.5868864,314.5868864,314.5868864,314.5868864,314.5868864,314.5868864,314.5868864,right,0.6377135000001317,315.25413289999995,315.25413289999995,None,,5,001,2025-12-17_11h50.08.464,2025C_exp1_comp,2022.2.4,59.93698225689292,
12.1,315,-1,1,1,45,153,45,315.25413289999995,315.25413289999995,315.7547877999999,315.8213993999999,315.8723363999999,315.8723363999999,315.8723363999999,315.8723363999999,315.9220045999999,315.9220045999999,315.9220045999999,315.9220045999999,315.9220045999999,315.9220045999999,315.9220045999999,315.9220045999999,315.9220045999999,right,0.8787465000001475,316.8224603,316.8224603,None,,5,001,2025-12-17_11h50.08.464,2025C_exp1_comp,2022.2.4,59.93698225689292,
42.7,45,1,-1,1,46,154,98,316.8224603,316.8224603,317.32296830000007,317.38960409999993,317.4399216999999,317.4399216999999,317.4399216999999,317.4399216999999,317.48977279999997,317.48977279999997,317.48977279999997,317.48977279999997,317.48977279999997,317.48977279999997,317.48977279999997,317.48977279999997,317.48977279999997,left,1.9269542999999203,319.4416740999999,319.4416740999999,None,,5,001,2025-12-17_11h50.08.464,2025C_exp1_comp,2022.2.4,59.93698225689292,
15.7,315,1,-1,1,47,155,100,319.4416740999999,319.4416740999999,319.9430762999999,320.0089196,320.0594454000001,320.0594454000001,320.0594454000001,320.0594454000001,320.10901049999995,320.10901049999995,320.10901049999995,320.10901049999995,320.10901049999995,320.10901049999995,320.10901049999995,320.10901049999995,320.10901049999995,left,0.6995026000000735,320.8264204000001,320.8264204000001,None,,5,001,2025-12-17_11h50.08.464,2025C_exp1_comp,2022.2.4,59.93698225689292,
22.7,315,-1,1,1,48,156,48,320.8264204000001,320.8264204000001,321.3269297999999,321.3937846,321.44440610000004,321.44440610000004,321.44440610000004,321.44440610000004,321.4943406000001,321.4943406000001,321.4943406000001,321.4943406000001,321.4943406000001,321.4943406000001,321.4943406000001,321.4943406000001,321.4943406000001,right,0.9545616000001473,322.4782544000001,322.4782544000001,None,,5,001,2025-12-17_11h50.08.464,2025C_exp1_comp,2022.2.4,59.93698225689292,
39.2,315,-1,0,1,49,157,16,322.4782544000001,322.4782544000001,322.9785444999999,323.0455369,323.0956514999999,323.0956514999999,323.0956514999999,323.0956514999999,323.14535409999996,323.14535409999996,323.14535409999996,323.14535409999996,323.14535409999996,323.14535409999996,323.14535409999996,323.14535409999996,323.14535409999996,left,1.790961700000139,324.963836,324.963836,None,,5,001,2025-12-17_11h50.08.464,2025C_exp1_comp,2022.2.4,59.93698225689292,
19.6,45,-1,0,1,50,158,2,324.963836,324.963836,325.46440369999993,325.53107549999993,325.58137350000004,325.58137350000004,325.58137350000004,325.58137350000004,325.63133189999996,325.63133189999996,325.63133189999996,325.63133189999996,325.63133189999996,325.63133189999996,325.63133189999996,325.63133189999996,325.63133189999996,right,0.8092507000002342,326.4653617,326.4653617,None,,5,001,2025-12-17_11h50.08.464,2025C_exp1_comp,2022.2.4,59.93698225689292,
12.1,45,-1,-1,1,51,159,72,326.4653617,326.4653617,326.96592769999995,327.03257010000004,327.08302779999997,327.08302779999997,327.08302779999997,327.08302779999997,327.13284710000005,327.13284710000005,327.13284710000005,327.13284710000005,327.13284710000005,327.13284710000005,327.13284710000005,327.13284710000005,327.13284710000005,right,0.603683500000102,327.76664960000005,327.76664960000005,None,,5,001,2025-12-17_11h50.08.464,2025C_exp1_comp,2022.2.4,59.93698225689292,
35.3,45,1,0,1,52,160,24,327.76664960000005,327.76664960000005,328.2671515999999,328.3338715000001,328.384287,328.384287,328.384287,328.384287,328.4340831999999,328.4340831999999,328.4340831999999,328.4340831999999,328.4340831999999,328.4340831999999,328.4340831999999,328.4340831999999,328.4340831999999,right,2.445899700000041,330.90319669999997,330.90319669999997,None,,5,001,2025-12-17_11h50.08.464,2025C_exp1_comp,2022.2.4,59.93698225689292,
35.3,315,-1,0,1,53,161,15,330.90319669999997,330.90319669999997,331.4036262999999,331.47034799999994,331.5207730000001,331.5207730000001,331.5207730000001,331.5207730000001,331.5705546999999,331.5705546999999,331.5705546999999,331.5705546999999,331.5705546999999,331.5705546999999,331.5705546999999,331.5705546999999,331.5705546999999,left,1.54202510000016,333.1387733,333.1387733,None,,5,001,2025-12-17_11h50.08.464,2025C_exp1_comp,2022.2.4,59.93698225689292,
42.7,315,1,1,1,54,162,71,333.1387733,333.1387733,333.63952340000003,333.7058845999999,333.7562537,333.7562537,333.7562537,333.7562537,333.80599870000003,333.80599870000003,333.80599870000003,333.80599870000003,333.80599870000003,333.80599870000003,333.80599870000003,333.80599870000003,333.80599870000003,right,0.9229450999999926,334.7569566000001,334.7569566000001,None,,5,001,2025-12-17_11h50.08.464,2025C_exp1_comp,2022.2.4,59.93698225689292,
25.5,45,-1,1,1,55,163,40,334.7569566000001,334.7569566000001,335.25778049999997,335.3242067,335.37475200000006,335.37475200000006,335.37475200000006,335.37475200000006,335.4246930999999,335.4246930999999,335.4246930999999,335.4246930999999,335.4246930999999,335.4246930999999,335.4246930999999,335.4246930999999,335.4246930999999,right,0.7193481000000475,336.1751304999999,336.1751304999999,None,,5,001,2025-12-17_11h50.08.464,2025C_exp1_comp,2022.2.4,59.93698225689292,
29.4,45,-1,0,1,56,164,5,336.1751304999999,336.1751304999999,336.6755623999999,336.7422642,336.7930871,336.7930871,336.7930871,336.7930871,336.8424317,336.8424317,336.8424317,336.8424317,336.8424317,336.8424317,336.8424317,336.8424317,336.8424317,right,0.8775299000000132,337.7432788,337.7432788,None,,5,001,2025-12-17_11h50.08.464,2025C_exp1_comp,2022.2.4,59.93698225689292,
19.6,45,1,-1,1,57,165,92,337.7432788,337.7432788,338.24380009999993,338.3106104,338.3608238999999,338.3608238999999,338.3608238999999,338.3608238999999,338.4105948,338.4105948,338.4105948,338.4105948,338.4105948,338.4105948,338.4105948,338.4105948,338.4105948,left,0.7818727000000081,339.2118532999999,339.2118532999999,None,,5,001,2025-12-17_11h50.08.464,2025C_exp1_comp,2022.2.4,59.93698225689292,
12.1,45,-1,1,1,58,166,36,339.2118532999999,339.2118532999999,339.71244809999996,339.7791298000001,339.82912799999997,339.82912799999997,339.82912799999997,339.82912799999997,339.8790829999999,339.8790829999999,339.8790829999999,339.8790829999999,339.8790829999999,339.8790829999999,339.8790829999999,339.8790829999999,339.8790829999999,right,0.6575622000001431,340.56302990000006,340.56302990000006,None,,5,001,2025-12-17_11h50.08.464,2025C_exp1_comp,2022.2.4,59.93698225689292,
25.5,45,1,1,1,59,167,58,340.56302990000006,340.56302990000006,341.0635860000001,341.1303259,341.1805378999999,341.1805378999999,341.1805378999999,341.1805378999999,341.2301856999999,341.2301856999999,341.2301856999999,341.2301856999999,341.2301856999999,341.2301856999999,341.2301856999999,341.2301856999999,341.2301856999999,left,0.8582803000000467,342.114367,342.114367,None,,5,001,2025-12-17_11h50.08.464,2025C_exp1_comp,2022.2.4,59.93698225689292,
15.7,45,1,0,1,60,168,19,342.114367,342.114367,342.6148959000001,342.68201149999993,342.7323917,342.7323917,342.7323917,342.7323917,342.7818976,342.7818976,342.7818976,342.7818976,342.7818976,342.7818976,342.7818976,342.7818976,342.7818976,left,0.7068136999999979,343.5157169999999,343.5157169999999,None,,5,001,2025-12-17_11h50.08.464,2025C_exp1_comp,2022.2.4,59.93698225689292,
42.7,315,1,0,1,61,169,35,343.5157169999999,343.5157169999999,344.01621710000006,344.0829832999999,344.133244,344.133244,344.133244,344.133244,344.1833674999999,344.1833674999999,344.1833674999999,344.1833674999999,344.1833674999999,344.1833674999999,344.1833674999999,344.1833674999999,344.1833674999999,right,0.9692384999999604,345.1846193,345.1846193,None,,5,001,2025-12-17_11h50.08.464,2025C_exp1_comp,2022.2.4,59.93698225689292,
29.4,315,1,-1,1,62,170,104,345.1846193,345.1846193,345.68477229999996,345.75131049999993,345.80158330000006,345.80158330000006,345.80158330000006,345.80158330000006,345.8513978,345.8513978,345.8513978,345.8513978,345.8513978,345.8513978,345.8513978,345.8513978,345.8513978,left,2.1969336999999314,348.0702783999999,348.0702783999999,None,,5,001,2025-12-17_11h50.08.464,2025C_exp1_comp,2022.2.4,59.93698225689292,
12.1,315,1,-1,1,63,171,99,348.0702783999999,348.0702783999999,348.5708513999999,348.6378031999999,348.687818,348.687818,348.687818,348.687818,348.7378116000001,348.7378116000001,348.7378116000001,348.7378116000001,348.7378116000001,348.7378116000001,348.7378116000001,348.7378116000001,348.7378116000001,left,1.1425843999999188,349.90549339999995,349.90549339999995,None,,5,001,2025-12-17_11h50.08.464,2025C_exp1_comp,2022.2.4,59.93698225689292,
22.7,315,1,0,1,64,172,30,349.90549339999995,349.90549339999995,350.4064970999999,350.4726655999999,350.5229622999999,350.5229622999999,350.5229622999999,350.5229622999999,350.5727493999999,350.5727493999999,350.5727493999999,350.5727493999999,350.5727493999999,350.5727493999999,350.5727493999999,350.5727493999999,350.5727493999999,left,0.9632589000001417,351.5571085999999,351.5571085999999,None,,5,001,2025-12-17_11h50.08.464,2025C_exp1_comp,2022.2.4,59.93698225689292,
35.3,315,1,-1,1,65,173,105,351.5571085999999,351.5571085999999,352.05759709999995,352.12443659999997,352.1746342,352.1746342,352.1746342,352.1746342,352.22439739999993,352.22439739999993,352.22439739999993,352.22439739999993,352.22439739999993,352.22439739999993,352.22439739999993,352.22439739999993,352.22439739999993,left,1.8479112000001123,354.0929758000001,354.0929758000001,None,,5,001,2025-12-17_11h50.08.464,2025C_exp1_comp,2022.2.4,59.93698225689292,
39.2,45,-1,-1,1,66,174,79,354.0929758000001,354.0929758000001,354.59346229999994,354.6601663,354.7105152999999,354.7105152999999,354.7105152999999,354.7105152999999,354.76028499999995,354.76028499999995,354.76028499999995,354.76028499999995,354.76028499999995,354.76028499999995,354.76028499999995,354.76028499999995,354.76028499999995,left,0.8638941000000386,355.64453519999995,355.64453519999995,None,,5,001,2025-12-17_11h50.08.464,2025C_exp1_comp,2022.2.4,59.93698225689292,
39.2,45,-1,1,1,67,175,43,355.64453519999995,355.64453519999995,356.14513120000004,356.2118265999999,356.2620315999999,356.2620315999999,356.2620315999999,356.2620315999999,356.31184199999996,356.31184199999996,356.31184199999996,356.31184199999996,356.31184199999996,356.31184199999996,356.31184199999996,356.31184199999996,356.31184199999996,left,2.1205819000000474,358.46398050000005,358.46398050000005,None,,5,001,2025-12-17_11h50.08.464,2025C_exp1_comp,2022.2.4,59.93698225689292,
39.2,45,1,-1,1,68,176,97,358.46398050000005,358.46398050000005,358.96451949999994,359.03121010000007,359.08183700000006,359.08183700000006,359.08183700000006,359.08183700000006,359.13165779999997,359.13165779999997,359.13165779999997,359.13165779999997,359.13165779999997,359.13165779999997,359.13165779999997,359.13165779999997,359.13165779999997,left,1.460774699999888,360.6161128,360.6161128,None,,5,001,2025-12-17_11h50.08.464,2025C_exp1_comp,2022.2.4,59.93698225689292,
42.7,315,-1,1,1,69,177,53,360.6161128,360.6161128,361.11667150000005,361.1833548999999,361.23368560000006,361.23368560000006,361.23368560000006,361.23368560000006,361.2834627000001,361.2834627000001,361.2834627000001,361.2834627000001,361.2834627000001,361.2834627000001,361.2834627000001,361.2834627000001,361.2834627000001,right,2.09352790000014,363.4026041000001,363.4026041000001,None,,5,001,2025-12-17_11h50.08.464,2025C_exp1_comp,2022.2.4,59.93698225689292,
15.7,45,1,1,1,70,178,55,363.4026041000001,363.4026041000001,363.9030529999999,363.96979079999994,364.02007190000006,364.02007190000006,364.02007190000006,364.02007190000006,364.0697670999999,364.0697670999999,364.0697670999999,364.0697670999999,364.0697670999999,364.0697670999999,364.0697670999999,364.0697670999999,364.0697670999999,left,0.7319142999998576,364.8206710999999,364.8206710999999,None,,5,001,2025-12-17_11h50.08.464,2025C_exp1_comp,2022.2.4,59.93698225689292,
15.7,315,-1,1,1,71,179,46,364.8206710999999,364.8206710999999,365.3211857,365.38777790000006,365.4380642,365.4380642,365.4380642,365.4380642,365.48789750000003,365.48789750000003,365.48789750000003,365.48789750000003,365.48789750000003,365.48789750000003,365.48789750000003,365.48789750000003,365.48789750000003,right,0.6975628000001279,366.20516839999993,366.20516839999993,None,,5,001,2025-12-17_11h50.08.464,2025C_exp1_comp,2022.2.4,59.93698225689292,
19.6,315,1,1,1,72,180,65,366.20516839999993,366.20516839999993,366.70573509999997,366.7725729,366.82286680000004,366.82286680000004,366.82286680000004,366.82286680000004,366.87267540000005,366.87267540000005,366.87267540000005,366.87267540000005,366.87267540000005,366.87267540000005,366.87267540000005,366.87267540000005,366.87267540000005,left,0.7605351999999357,367.65655230000004,367.65655230000004,None,,5,001,2025-12-17_11h50.08.464,2025C_exp1_comp,2022.2.4,59.93698225689292,
29.4,45,-1,-1,1,73,181,77,367.65655230000004,367.65655230000004,368.1573445,368.2240487999999,368.2743646,368.2743646,368.2743646,368.2743646,368.32401519999996,368.32401519999996,368.32401519999996,368.32401519999996,368.32401519999996,368.32401519999996,368.32401519999996,368.32401519999996,368.32401519999996,right,0.9883615999998483,369.3418089999999,369.3418089999999,None,,5,001,2025-12-17_11h50.08.464,2025C_exp1_comp,2022.2.4,59.93698225689292,
42.7,315,-1,0,1,74,182,17,369.3418089999999,369.3418089999999,369.8423061,369.9090467,369.9593533000001,369.9593533000001,369.9593533000001,369.9593533000001,370.0091510000001,370.0091510000001,370.0091510000001,370.0091510000001,370.0091510000001,370.0091510000001,370.0091510000001,370.0091510000001,370.0091510000001,left,0.88025540000001,370.909898,370.909898,None,,5,001,2025-12-17_11h50.08.464,2025C_exp1_comp,2022.2.4,59.93698225689292,
42.7,45,-1,-1,1,75,183,80,370.909898,370.909898,371.4106226,371.4772314999999,371.5274389,371.5274389,371.5274389,371.5274389,371.5774247999999,371.5774247999999,371.5774247999999,371.5774247999999,371.5774247999999,371.5774247999999,371.5774247999999,371.5774247999999,371.5774247999999,left,0.8549716999999646,372.4614542999999,372.4614542999999,None,,5,001,2025-12-17_11h50.08.464,2025C_exp1_comp,2022.2.4,59.93698225689292,
39.2,45,1,0,1,76,184,25,372.4614542999999,372.4614542999999,372.9620199,373.0285777999999,373.0788305,373.0788305,373.0788305,373.0788305,373.12861140000007,373.12861140000007,373.12861140000007,373.12861140000007,373.12861140000007,373.12861140000007,373.12861140000007,373.12861140000007,373.12861140000007,left,1.1435141000000613,374.29645070000004,374.29645070000004,None,,5,001,2025-12-17_11h50.08.464,2025C_exp1_comp,2022.2.4,59.93698225689292,
42.7,315,1,-1,1,77,185,107,374.29645070000004,374.29645070000004,374.7970322,374.86368830000004,374.9139838,374.9139838,374.9139838,374.9139838,374.96379680000007,374.96379680000007,374.96379680000007,374.96379680000007,374.96379680000007,374.96379680000007,374.96379680000007,374.96379680000007,374.96379680000007,right,1.0685392000001457,376.0648823999999,376.0648823999999,None,,5,001,2025-12-17_11h50.08.464,2025C_exp1_comp,2022.2.4,59.93698225689292,
39.2,315,-1,1,1,78,186,52,376.0648823999999,376.0648823999999,376.5654028,376.6322767999999,376.6826514999999,376.6826514999999,376.6826514999999,376.6826514999999,376.73223530000007,376.73223530000007,376.73223530000007,376.73223530000007,376.73223530000007,376.73223530000007,376.73223530000007,376.73223530000007,376.73223530000007,right,1.2766613000000007,378.03352329999996,378.03352329999996,None,,5,001,2025-12-17_11h50.08.464,2025C_exp1_comp,2022.2.4,59.93698225689292,
22.7,45,-1,1,1,79,187,39,378.03352329999996,378.03352329999996,378.53406789999997,378.60087899999996,378.6511205999999,378.6511205999999,378.6511205999999,378.6511205999999,378.7008551,378.7008551,378.7008551,378.7008551,378.7008551,378.7008551,378.7008551,378.7008551,378.7008551,right,0.9074315999999953,379.6351214,379.6351214,None,,5,001,2025-12-17_11h50.08.464,2025C_exp1_comp,2022.2.4,59.93698225689292,
22.7,45,1,1,1,80,188,57,379.6351214,379.6351214,380.13564370000006,380.2025715000001,380.252781,380.252781,380.252781,380.252781,380.3025867,380.3025867,380.3025867,380.3025867,380.3025867,380.3025867,380.3025867,380.3025867,380.3025867,left,0.6976369000000204,381.0199228,381.0199228,None,,5,001,2025-12-17_11h50.08.464,2025C_exp1_comp,2022.2.4,59.93698225689292,
22.7,315,-1,-1,1,81,189,84,381.0199228,381.0199228,381.5203451000001,381.5871645000001,381.6373602,381.6373602,381.6373602,381.6373602,381.68721859999994,381.68721859999994,381.68721859999994,381.68721859999994,381.68721859999994,381.68721859999994,381.68721859999994,381.68721859999994,381.68721859999994,right,0.6167186000001266,382.3211315,382.3211315,None,,5,001,2025-12-17_11h50.08.464,2025C_exp1_comp,2022.2.4,59.93698225689292,
22.7,45,1,0,1,82,190,21,382.3211315,382.3211315,382.82193500000005,382.8886475999999,382.9390245000001,382.9390245000001,382.9390245000001,382.9390245000001,382.98870139999997,382.98870139999997,382.98870139999997,382.98870139999997,382.98870139999997,382.98870139999997,382.98870139999997,382.98870139999997,382.98870139999997,left,0.6766162999998642,383.68937360000007,383.68937360000007,None,,5,001,2025-12-17_11h50.08.464,2025C_exp1_comp,2022.2.4,59.93698225689292,
29.4,45,1,-1,1,83,191,95,383.68937360000007,383.68937360000007,384.1899855999999,384.2567347999999,384.3069910999999,384.3069910999999,384.3069910999999,384.3069910999999,384.35684690000005,384.35684690000005,384.35684690000005,384.35684690000005,384.35684690000005,384.35684690000005,384.35684690000005,384.35684690000005,384.35684690000005,left,0.6438606000000391,385.02405839999994,385.02405839999994,None,,5,001,2025-12-17_11h50.08.464,2025C_exp1_comp,2022.2.4,59.93698225689292,
25.5,45,-1,-1,1,84,192,76,385.02405839999994,385.02405839999994,385.5246745999999,385.59136490000003,385.64169789999994,385.64169789999994,385.64169789999994,385.64169789999994,385.69151569999997,385.69151569999997,385.69151569999997,385.69151569999997,385.69151569999997,385.69151569999997,385.69151569999997,385.69151569999997,385.69151569999997,right,1.965855599999827,387.6767627999999,387.6767627999999,None,,5,001,2025-12-17_11h50.08.464,2025C_exp1_comp,2022.2.4,59.93698225689292,
42.7,45,-1,1,1,85,193,44,387.6767627999999,387.6767627999999,388.1772781000001,388.244065,388.2944016,388.2944016,388.2944016,388.2944016,388.3440801999999,388.3440801999999,388.3440801999999,388.3440801999999,388.3440801999999,388.3440801999999,388.3440801999999,388.3440801999999,388.3440801999999,left,0.7928605000000744,389.1614350000001,389.1614350000001,None,,5,001,2025-12-17_11h50.08.464,2025C_exp1_comp,2022.2.4,59.93698225689292,
19.6,315,-1,-1,1,86,194,83,389.1614350000001,389.1614350000001,389.6621079999999,389.7288574999999,389.7793352,389.7793352,389.7793352,389.7793352,389.82893479999996,389.82893479999996,389.82893479999996,389.82893479999996,389.82893479999996,389.82893479999996,389.82893479999996,389.82893479999996,389.82893479999996,right,0.6672415000001592,390.5126371,390.5126371,None,,5,001,2025-12-17_11h50.08.464,2025C_exp1_comp,2022.2.4,59.93698225689292,
22.7,315,1,-1,1,87,195,102,390.5126371,390.5126371,391.01348530000007,391.08009200000004,391.1302938,391.1302938,391.1302938,391.1302938,391.1802956,391.1802956,391.1802956,391.1802956,391.1802956,391.1802956,391.1802956,391.1802956,391.1802956,left,0.6520601000000852,391.86431400000004,391.86431400000004,None,,5,001,2025-12-17_11h50.08.464,2025C_exp1_comp,2022.2.4,59.93698225689292,
29.4,315,1,0,1,88,196,32,391.86431400000004,391.86431400000004,392.3648273,392.4315731999999,392.48188919999996,392.48188919999996,392.48188919999996,392.48188919999996,392.5315575000001,392.5315575000001,392.5315575000001,392.5315575000001,392.5315575000001,392.5315575000001,392.5315575000001,392.5315575000001,392.5315575000001,left,0.9098099000001412,393.4656954000001,393.4656954000001,None,,5,001,2025-12-17_11h50.08.464,2025C_exp1_comp,2022.2.4,59.93698225689292,
29.4,45,1,0,1,89,197,23,393.4656954000001,393.4656954000001,393.96646410000005,394.03302829999996,394.08347259999994,394.08347259999994,394.08347259999994,394.08347259999994,394.1331497,394.1331497,394.1331497,394.1331497,394.1331497,394.1331497,394.1331497,394.1331497,394.1331497,left,1.7399025999999367,395.9015421999999,395.9015421999999,None,,5,001,2025-12-17_11h50.08.464,2025C_exp1_comp,2022.2.4,59.93698225689292,
39.2,315,1,-1,1,90,198,106,395.9015421999999,395.9015421999999,396.4022346999999,396.46886600000005,396.5191888999999,396.5191888999999,396.5191888999999,396.5191888999999,396.5689077999999,396.5689077999999,396.5689077999999,396.5689077999999,396.5689077999999,396.5689077999999,396.5689077999999,396.5689077999999,396.5689077999999,right,0.7517988000000742,397.3529035,397.3529035,None,,5,001,2025-12-17_11h50.08.464,2025C_exp1_comp,2022.2.4,59.93698225689292,
35.3,315,-1,1,1,91,199,51,397.3529035,397.3529035,397.85364620000007,397.9203633999999,397.97061270000006,397.97061270000006,397.97061270000006,397.97061270000006,398.02047030000006,398.02047030000006,398.02047030000006,398.02047030000006,398.02047030000006,398.02047030000006,398.02047030000006,398.02047030000006,398.02047030000006,right,0.7879658000000518,398.8378342,398.8378342,None,,5,001,2025-12-17_11h50.08.464,2025C_exp1_comp,2022.2.4,59.93698225689292,
39.2,45,1,1,1,92,200,61,398.8378342,398.8378342,399.3382786000001,399.4051722999999,399.4552405999999,399.4552405999999,399.4552405999999,399.4552405999999,399.505442,399.505442,399.505442,399.505442,399.505442,399.505442,399.505442,399.505442,399.505442,right,1.8632263999999168,401.39051800000004,401.39051800000004,None,,5,001,2025-12-17_11h50.08.464,2025C_exp1_comp,2022.2.4,59.93698225689292,
29.4,315,-1,-1,1,93,201,86,401.39051800000004,401.39051800000004,401.8910113999999,401.95775790000005,402.0080285999999,402.0080285999999,402.0080285999999,402.0080285999999,402.05773179999994,402.05773179999994,402.05773179999994,402.05773179999994,402.05773179999994,402.05773179999994,402.05773179999994,402.05773179999994,402.05773179999994,right,0.7595363000001498,402.84195409999995,402.84195409999995,None,,5,001,2025-12-17_11h50.08.464,2025C_exp1_comp,2022.2.4,59.93698225689292,
25.5,45,1,0,1,94,202,22,402.84195409999995,402.84195409999995,403.34217709999996,403.40886439999997,403.4591801,403.4591801,403.4591801,403.4591801,403.5089635999999,403.5089635999999,403.5089635999999,403.5089635999999,403.5089635999999,403.5089635999999,403.5089635999999,403.5089635999999,403.5089635999999,left,0.8274633000002041,404.35991720000004,404.35991720000004,None,,5,001,2025-12-17_11h50.08.464,2025C_exp1_comp,2022.2.4,59.93698225689292,
39.2,45,-1,0,1,95,203,7,404.35991720000004,404.35991720000004,404.8603179999999,404.9271629000001,404.9774191,404.9774191,404.9774191,404.9774191,405.0271945999999,405.0271945999999,405.0271945999999,405.0271945999999,405.0271945999999,405.0271945999999,405.0271945999999,405.0271945999999,405.0271945999999,left,0.7091541000000916,405.76124360000006,405.76124360000006,None,,5,001,2025-12-17_11h50.08.464,2025C_exp1_comp,2022.2.4,59.93698225689292,
19.6,315,-1,1,1,96,204,47,405.76124360000006,405.76124360000006,406.2617269000001,406.328619,406.3788582000001,406.3788582000001,406.3788582000001,406.3788582000001,406.4285601999999,406.4285601999999,406.4285601999999,406.4285601999999,406.4285601999999,406.4285601999999,406.4285601999999,406.4285601999999,406.4285601999999,right,0.5403618000001416,406.995775,406.995775,None,,5,001,2025-12-17_11h50.08.464,2025C_exp1_comp,2022.2.4,59.93698225689292,
15.7,315,-1,-1,1,97,205,82,406.995775,406.995775,407.49655700000005,407.56301859999996,407.6133550999999,407.6133550999999,407.6133550999999,407.6133550999999,407.66311099999996,407.66311099999996,407.66311099999996,407.66311099999996,407.66311099999996,407.66311099999996,407.66311099999996,407.66311099999996,407.66311099999996,right,0.6091977000002089,408.2971005999999,408.2971005999999,None,,5,001,2025-12-17_11h50.08.464,2025C_exp1_comp,2022.2.4,59.93698225689292,
22.7,45,1,-1,1,98,206,93,408.2971005999999,408.2971005999999,408.7975983,408.86434070000007,408.9146016000001,408.9146016000001,408.9146016000001,408.9146016000001,408.9644198,408.9644198,408.9644198,408.9644198,408.9644198,408.9644198,408.9644198,408.9644198,408.9644198,left,1.2366751999999224,410.23234489999993,410.23234489999993,None,,5,001,2025-12-17_11h50.08.464,2025C_exp1_comp,2022.2.4,59.93698225689292,
42.7,45,-1,0,1,99,207,8,410.23234489999993,410.23234489999993,410.7329764,410.7996019000001,410.8498874999999,410.8498874999999,410.8498874999999,410.8498874999999,410.8997591000001,410.8997591000001,410.8997591000001,410.8997591000001,410.8997591000001,410.8997591000001,410.8997591000001,410.8997591000001,410.8997591000001,left,1.068819899999994,412.00081869999997,412.00081869999997,None,,5,001,2025-12-17_11h50.08.464,2025C_exp1_comp,2022.2.4,59.93698225689292,
25.5,315,1,-1,1,100,208,103,412.00081869999997,412.00081869999997,412.5012975000001,412.5680659000001,412.6184551,412.6184551,412.6184551,412.6184551,412.6681078999999,412.6681078999999,412.6681078999999,412.6681078999999,412.6681078999999,412.6681078999999,412.6681078999999,412.6681078999999,412.6681078999999,left,1.0122966000000133,413.7028718,413.7028718,None,,5,001,2025-12-17_11h50.08.464,2025C_exp1_comp,2022.2.4,59.93698225689292,
42.7,45,1,1,1,101,209,62,413.7028718,413.7028718,414.20331369999997,414.2700297,414.3203035999999,414.3203035999999,414.3203035999999,414.3203035999999,414.37013420000005,414.37013420000005,414.37013420000005,414.37013420000005,414.37013420000005,414.37013420000005,414.37013420000005,414.37013420000005,414.37013420000005,right,0.799133500000039,415.1874669,415.1874669,None,,5,001,2025-12-17_11h50.08.464,2025C_exp1_comp,2022.2.4,59.93698225689292,
29.4,45,-1,1,1,102,210,41,415.1874669,415.1874669,415.68813680000005,415.75474500000007,415.8049906,415.8049906,415.8049906,415.8049906,415.8549216,415.8549216,415.8549216,415.8549216,415.8549216,415.8549216,415.8549216,415.8549216,415.8549216,right,0.8985716000000821,416.7726246000001,416.7726246000001,None,,5,001,2025-12-17_11h50.08.464,2025C_exp1_comp,2022.2.4,59.93698225689292,
25.5,315,-1,-1,1,103,211,85,416.7726246000001,416.7726246000001,417.27301840000007,417.3397444000001,417.39003990000003,417.39003990000003,417.39003990000003,417.39003990000003,417.43984409999996,417.43984409999996,417.43984409999996,417.43984409999996,417.43984409999996,417.43984409999996,417.43984409999996,417.43984409999996,417.43984409999996,right,0.6653340999999955,418.12387150000006,418.12387150000006,None,,5,001,2025-12-17_11h50.08.464,2025C_exp1_comp,2022.2.4,59.93698225689292,
12.1,315,-1,-1,1,104,212,81,418.12387150000006,418.12387150000006,418.62425859999996,418.6911080000001,418.7413745,418.7413745,418.7413745,418.7413745,418.79121829999997,418.79121829999997,418.79121829999997,418.79121829999997,418.79121829999997,418.79121829999997,418.79121829999997,418.79121829999997,418.79121829999997,right,0.6420280999999477,419.4584168,419.4584168,None,,5,001,2025-12-17_11h50.08.464,2025C_exp1_comp,2022.2.4,59.93698225689292,
15.7,45,-1,-1,1,105,213,73,419.4584168,419.4584168,419.95907969999996,420.02569099999994,420.076095,420.076095,420.076095,420.076095,420.12560599999995,420.12560599999995,420.12560599999995,420.12560599999995,420.12560599999995,420.12560599999995,420.12560599999995,420.12560599999995,420.12560599999995,right,0.89093030000015,421.0435134999999,421.0435134999999,None,,5,001,2025-12-17_11h50.08.464,2025C_exp1_comp,2022.2.4,59.93698225689292,
35.3,45,-1,-1,1,106,214,78,421.0435134999999,421.0435134999999,421.5439143,421.6107625000001,421.6611695999999,421.6611695999999,421.6611695999999,421.6611695999999,421.7108651,421.7108651,421.7108651,421.7108651,421.7108651,421.7108651,421.7108651,421.7108651,421.7108651,left,2.410219500000153,424.14650259999996,424.14650259999996,None,,5,001,2025-12-17_11h50.08.464,2025C_exp1_comp,2022.2.4,59.93698225689292,
15.7,45,-1,1,1,107,215,37,424.14650259999996,424.14650259999996,424.6468303999999,424.713834,424.7642327,424.7642327,424.7642327,424.7642327,424.8140241,424.8140241,424.8140241,424.8140241,424.8140241,424.8140241,424.8140241,424.8140241,424.8140241,right,0.6742204000000811,425.5145478999999,425.5145478999999,space,3.278137299999912,5,001,2025-12-17_11h50.08.464,2025C_exp1_comp,2022.2.4,59.93698225689292,
