contrast,ori,lefttarget,righttarget,postcue,precue,trials.thisRepN,trials.thisTrialN,trials.thisN,trials.thisIndex,fix1.started,fix2.started,precue_2.started,precue_2.stopped,left_grating.started,right_grating.started,noise_left.started,noise_right.started,fix1.stopped,fix2.stopped,left_grating.stopped,right_grating.stopped,noise_left.stopped,noise_right.stopped,key_resp.started,postcue_2.started,fix1_2.started,fix2_2.started,key_resp.keys,key_resp.rt,key_resp_2.started,break_text_2.started,key_resp_2.keys,key_resp_2.rt,participant,session,date,expName,psychopyVersion,frameRate,
12.1,45,1,0,-1,1,0,0,0,306,23.39481969999997,23.39481969999997,23.86419079999996,23.930904400000145,23.99804320000021,23.99804320000021,23.99804320000021,23.99804320000021,24.030981200000042,24.030981200000042,24.030981200000042,24.030981200000042,24.030981200000042,24.030981200000042,24.047774800000298,24.047774800000298,24.047774800000298,24.047774800000298,num_1,5.897413699999561,29.97120240000004,29.97120240000004,None,,5,001,2025-12-17_12h28.16.823,2025C_exp1_detect,2022.2.4,59.80868398162138,
19.6,315,0,0,1,0,0,1,1,83,29.97120240000004,29.97120240000004,30.47099849999995,30.53775450000012,30.58809220000012,30.58809220000012,30.58809220000012,30.58809220000012,30.637929700000313,30.637929700000313,30.637929700000313,30.637929700000313,30.637929700000313,30.637929700000313,30.637929700000313,30.637929700000313,30.637929700000313,30.637929700000313,num_3,5.915576799999599,36.57703530000026,36.57703530000026,None,,5,001,2025-12-17_12h28.16.823,2025C_exp1_detect,2022.2.4,59.80868398162138,
15.7,315,1,0,1,1,0,2,2,388,36.57703530000026,36.57703530000026,37.077559100000144,37.144405800000186,37.19465760000003,37.19465760000003,37.19465760000003,37.19465760000003,37.24458750000031,37.24458750000031,37.24458750000031,37.24458750000031,37.24458750000031,37.24458750000031,37.24458750000031,37.24458750000031,37.24458750000031,37.24458750000031,num_3,1.3244356000000153,38.595637700000225,38.595637700000225,None,,5,001,2025-12-17_12h28.16.823,2025C_exp1_detect,2022.2.4,59.80868398162138,
15.7,45,0,0,-1,0,0,3,3,1,38.595637700000225,38.595637700000225,39.096503700000085,39.16315440000017,39.21351770000001,39.21351770000001,39.21351770000001,39.21351770000001,39.26339370000005,39.26339370000005,39.26339370000005,39.26339370000005,39.26339370000005,39.26339370000005,39.26339370000005,39.26339370000005,39.26339370000005,39.26339370000005,num_3,1.2894937999999456,40.58121530000017,40.58121530000017,None,,5,001,2025-12-17_12h28.16.823,2025C_exp1_detect,2022.2.4,59.80868398162138,
42.7,45,0,1,-1,1,0,4,4,332,40.58121530000017,40.58121530000017,41.081549200000154,41.14841760000036,41.19867420000037,41.19867420000037,41.19867420000037,41.19867420000037,41.248597300000256,41.248597300000256,41.248597300000256,41.248597300000256,41.248597300000256,41.248597300000256,41.248597300000256,41.248597300000256,41.248597300000256,41.248597300000256,num_3,0.9681377999995675,42.249348499999996,42.249348499999996,None,,5,001,2025-12-17_12h28.16.823,2025C_exp1_detect,2022.2.4,59.80868398162138,
12.1,45,1,1,1,1,0,5,5,414,42.249348499999996,42.249348499999996,42.74974850000035,42.816656400000284,42.86703720000014,42.86703720000014,42.86703720000014,42.86703720000014,42.9169151000001,42.9169151000001,42.9169151000001,42.9169151000001,42.9169151000001,42.9169151000001,42.9169151000001,42.9169151000001,42.9169151000001,42.9169151000001,num_3,0.8774472999998579,43.81773220000014,43.81773220000014,None,,5,001,2025-12-17_12h28.16.823,2025C_exp1_detect,2022.2.4,59.80868398162138,
19.6,45,1,1,1,-1,0,6,6,272,43.81773220000014,43.81773220000014,44.31837560000031,44.38488460000008,44.43525910000017,44.43525910000017,44.43525910000017,44.43525910000017,44.48517340000035,44.48517340000035,44.48517340000035,44.48517340000035,44.48517340000035,44.48517340000035,44.48517340000035,44.48517340000035,44.48517340000035,44.48517340000035,num_3,1.0517473999993854,45.56929040000023,45.56929040000023,None,,5,001,2025-12-17_12h28.16.823,2025C_exp1_detect,2022.2.4,59.80868398162138,
22.7,45,1,0,1,1,0,7,7,381,45.56929040000023,45.56929040000023,46.070033200000125,46.1367137000002,46.18701200000032,46.18701200000032,46.18701200000032,46.18701200000032,46.236883000000034,46.236883000000034,46.236883000000034,46.236883000000034,46.236883000000034,46.236883000000034,46.236883000000034,46.236883000000034,46.236883000000034,46.236883000000034,num_3,1.6769821999996566,47.93827360000023,47.93827360000023,None,,5,001,2025-12-17_12h28.16.823,2025C_exp1_detect,2022.2.4,59.80868398162138,
42.7,45,0,0,1,-1,0,8,8,224,47.93827360000023,47.93827360000023,48.438996300000326,48.50560459999997,48.55589800000007,48.55589800000007,48.55589800000007,48.55589800000007,48.60594260000016,48.60594260000016,48.60594260000016,48.60594260000016,48.60594260000016,48.60594260000016,48.60594260000016,48.60594260000016,48.60594260000016,48.60594260000016,num_3,1.3717225999998846,50.0069883000001,50.0069883000001,None,,5,001,2025-12-17_12h28.16.823,2025C_exp1_detect,2022.2.4,59.80868398162138,
29.4,315,1,1,1,-1,0,9,9,284,50.0069883000001,50.0069883000001,50.507671500000015,50.574709800000164,50.624488400000246,50.624488400000246,50.624488400000246,50.624488400000246,50.674576400000205,50.674576400000205,50.674576400000205,50.674576400000205,50.674576400000205,50.674576400000205,50.674576400000205,50.674576400000205,50.674576400000205,50.674576400000205,num_1,1.6949674999996205,52.3926620000002,52.3926620000002,None,,5,001,2025-12-17_12h28.16.823,2025C_exp1_detect,2022.2.4,59.80868398162138,
22.7,45,0,1,1,0,0,10,10,111,52.3926620000002,52.3926620000002,52.89326990000018,52.96007499999996,53.0102124,53.0102124,53.0102124,53.0102124,53.06009300000005,53.06009300000005,53.06009300000005,53.06009300000005,53.06009300000005,53.06009300000005,53.06009300000005,53.06009300000005,53.06009300000005,53.06009300000005,num_1,0.8535468999998557,53.94445190000033,53.94445190000033,None,,5,001,2025-12-17_12h28.16.823,2025C_exp1_detect,2022.2.4,59.80868398162138,
22.7,315,1,0,-1,-1,0,11,11,174,53.94445190000033,53.94445190000033,54.44509420000031,54.51143290000027,54.56174809999993,54.56174809999993,54.56174809999993,54.56174809999993,54.611711600000035,54.611711600000035,54.611711600000035,54.611711600000035,54.611711600000035,54.611711600000035,54.611711600000035,54.611711600000035,54.611711600000035,54.611711600000035,num_3,3.8535212999995565,58.482304600000134,58.482304600000134,None,,5,001,2025-12-17_12h28.16.823,2025C_exp1_detect,2022.2.4,59.80868398162138,
19.6,315,0,1,-1,-1,0,12,12,191,58.482304600000134,58.482304600000134,58.98276510000005,59.0496177,59.099922100000185,59.099922100000185,59.099922100000185,59.099922100000185,59.149744600000304,59.149744600000304,59.149744600000304,59.149744600000304,59.149744600000304,59.149744600000304,59.149744600000304,59.149744600000304,59.149744600000304,59.149744600000304,num_3,1.4679048999996667,60.634226200000285,60.634226200000285,None,,5,001,2025-12-17_12h28.16.823,2025C_exp1_detect,2022.2.4,59.80868398162138,
12.1,45,0,0,-1,1,0,13,13,288,60.634226200000285,60.634226200000285,61.13516580000032,61.2018750000002,61.25221550000015,61.25221550000015,61.25221550000015,61.25221550000015,61.30194070000016,61.30194070000016,61.30194070000016,61.30194070000016,61.30194070000016,61.30194070000016,61.30194070000016,61.30194070000016,61.30194070000016,61.30194070000016,num_3,0.6988113999996131,62.01905620000025,62.01905620000025,None,,5,001,2025-12-17_12h28.16.823,2025C_exp1_detect,2022.2.4,59.80868398162138,
25.5,315,1,0,-1,1,0,14,14,319,62.01905620000025,62.01905620000025,62.51982279999993,62.58648059999996,62.63684200000034,62.63684200000034,62.63684200000034,62.63684200000034,62.686497500000314,62.686497500000314,62.686497500000314,62.686497500000314,62.686497500000314,62.686497500000314,62.686497500000314,62.686497500000314,62.686497500000314,62.686497500000314,num_1,0.8181202000000667,63.53714820000005,63.53714820000005,None,,5,001,2025-12-17_12h28.16.823,2025C_exp1_detect,2022.2.4,59.80868398162138,
39.2,45,0,0,-1,-1,0,15,15,151,63.53714820000005,63.53714820000005,64.03819460000022,64.10491649999994,64.15510840000024,64.15510840000024,64.15510840000024,64.15510840000024,64.20499030000019,64.20499030000019,64.20499030000019,64.20499030000019,64.20499030000019,64.20499030000019,64.20499030000019,64.20499030000019,64.20499030000019,64.20499030000019,num_3,0.6521436999996695,64.88859500000035,64.88859500000035,None,,5,001,2025-12-17_12h28.16.823,2025C_exp1_detect,2022.2.4,59.80868398162138,
42.7,315,1,0,-1,0,0,16,16,35,64.88859500000035,64.88859500000035,65.38908330000004,65.45611030000009,65.50641940000014,65.50641940000014,65.50641940000014,65.50641940000014,65.55627600000025,65.55627600000025,65.55627600000025,65.55627600000025,65.55627600000025,65.55627600000025,65.55627600000025,65.55627600000025,65.55627600000025,65.55627600000025,num_1,0.636950699999943,66.22323230000029,66.22323230000029,None,,5,001,2025-12-17_12h28.16.823,2025C_exp1_detect,2022.2.4,59.80868398162138,
39.2,315,0,0,1,1,0,17,17,376,66.22323230000029,66.22323230000029,66.72386790000019,66.79051560000016,66.8409160000001,66.8409160000001,66.8409160000001,66.8409160000001,66.89070970000012,66.89070970000012,66.89070970000012,66.89070970000012,66.89070970000012,66.89070970000012,66.89070970000012,66.89070970000012,66.89070970000012,66.89070970000012,num_3,0.9592610999998215,67.87490079999998,67.87490079999998,None,,5,001,2025-12-17_12h28.16.823,2025C_exp1_detect,2022.2.4,59.80868398162138,
29.4,45,0,0,1,1,0,18,18,365,67.87490079999998,67.87490079999998,68.37580849999995,68.44244830000025,68.49264059999996,68.49264059999996,68.49264059999996,68.49264059999996,68.54255490000014,68.54255490000014,68.54255490000014,68.54255490000014,68.54255490000014,68.54255490000014,68.54255490000014,68.54255490000014,68.54255490000014,68.54255490000014,num_3,3.4743020999999317,72.0457322000002,72.0457322000002,None,,5,001,2025-12-17_12h28.16.823,2025C_exp1_detect,2022.2.4,59.80868398162138,
12.1,315,0,1,-1,-1,0,19,19,189,72.0457322000002,72.0457322000002,72.54655570000023,72.61328400000002,72.66361830000005,72.66361830000005,72.66361830000005,72.66361830000005,72.7133374,72.7133374,72.7133374,72.7133374,72.7133374,72.7133374,72.7133374,72.7133374,72.7133374,72.7133374,num_1,1.088119099999858,73.83088990000033,73.83088990000033,None,,5,001,2025-12-17_12h28.16.823,2025C_exp1_detect,2022.2.4,59.80868398162138,
42.7,45,0,0,-1,1,0,20,20,296,73.83088990000033,73.83088990000033,74.33175540000002,74.39843450000035,74.44877270000006,74.44877270000006,74.44877270000006,74.44877270000006,74.4984658000003,74.4984658000003,74.4984658000003,74.4984658000003,74.4984658000003,74.4984658000003,74.4984658000003,74.4984658000003,74.4984658000003,74.4984658000003,num_1,0.7509546999999657,75.26555240000016,75.26555240000016,None,,5,001,2025-12-17_12h28.16.823,2025C_exp1_detect,2022.2.4,59.80868398162138,
25.5,315,1,1,-1,-1,0,21,21,211,75.26555240000016,75.26555240000016,75.76611420000017,75.83308430000034,75.88366630000019,75.88366630000019,75.88366630000019,75.88366630000019,75.93351150000035,75.93351150000035,75.93351150000035,75.93351150000035,75.93351150000035,75.93351150000035,75.93351150000035,75.93351150000035,75.93351150000035,75.93351150000035,num_1,0.8768286999998054,76.8340475,76.8340475,None,,5,001,2025-12-17_12h28.16.823,2025C_exp1_detect,2022.2.4,59.80868398162138,
19.6,45,0,1,-1,1,0,22,22,326,76.8340475,76.8340475,77.33457870000029,77.40128390000018,77.45161390000021,77.45161390000021,77.45161390000021,77.45161390000021,77.50147180000022,77.50147180000022,77.50147180000022,77.50147180000022,77.50147180000022,77.50147180000022,77.50147180000022,77.50147180000022,77.50147180000022,77.50147180000022,num_1,0.9874250999996548,78.51886150000018,78.51886150000018,None,,5,001,2025-12-17_12h28.16.823,2025C_exp1_detect,2022.2.4,59.80868398162138,
29.4,315,1,0,-1,-1,0,23,23,176,78.51886150000018,78.51886150000018,79.01961100000017,79.08613210000021,79.13656160000028,79.13656160000028,79.13656160000028,79.13656160000028,79.18649000000005,79.18649000000005,79.18649000000005,79.18649000000005,79.18649000000005,79.18649000000005,79.18649000000005,79.18649000000005,79.18649000000005,79.18649000000005,num_3,0.8150554999997439,80.02032310000004,80.02032310000004,None,,5,001,2025-12-17_12h28.16.823,2025C_exp1_detect,2022.2.4,59.80868398162138,
35.3,315,0,0,-1,0,0,24,24,15,80.02032310000004,80.02032310000004,80.52077110000027,80.58753160000015,80.63819820000026,80.63819820000026,80.63819820000026,80.63819820000026,80.68779390000009,80.68779390000009,80.68779390000009,80.68779390000009,80.68779390000009,80.68779390000009,80.68779390000009,80.68779390000009,80.68779390000009,80.68779390000009,num_1,0.7456471999998939,81.45502140000008,81.45502140000008,None,,5,001,2025-12-17_12h28.16.823,2025C_exp1_detect,2022.2.4,59.80868398162138,
12.1,315,0,1,-1,1,0,25,25,333,81.45502140000008,81.45502140000008,81.95553280000013,82.0224403000002,82.07257449999997,82.07257449999997,82.07257449999997,82.07257449999997,82.12259870000025,82.12259870000025,82.12259870000025,82.12259870000025,82.12259870000025,82.12259870000025,82.12259870000025,82.12259870000025,82.12259870000025,82.12259870000025,num_1,0.7823079999998299,82.92328680000037,82.92328680000037,None,,5,001,2025-12-17_12h28.16.823,2025C_exp1_detect,2022.2.4,59.80868398162138,
39.2,315,0,0,-1,1,0,26,26,304,82.92328680000037,82.92328680000037,83.42372260000002,83.49039310000035,83.54079300000012,83.54079300000012,83.54079300000012,83.54079300000012,83.59070569999994,83.59070569999994,83.59070569999994,83.59070569999994,83.59070569999994,83.59070569999994,83.59070569999994,83.59070569999994,83.59070569999994,83.59070569999994,num_1,0.9709203999996134,84.59152570000015,84.59152570000015,None,,5,001,2025-12-17_12h28.16.823,2025C_exp1_detect,2022.2.4,59.80868398162138,
12.1,45,1,1,-1,-1,0,27,27,198,84.59152570000015,84.59152570000015,85.09200839999994,85.1589170000002,85.20915869999999,85.20915869999999,85.20915869999999,85.20915869999999,85.25906000000032,85.25906000000032,85.25906000000032,85.25906000000032,85.25906000000032,85.25906000000032,85.25906000000032,85.25906000000032,85.25906000000032,85.25906000000032,num_1,0.9181893999993918,86.19342600000027,86.19342600000027,None,,5,001,2025-12-17_12h28.16.823,2025C_exp1_detect,2022.2.4,59.80868398162138,
15.7,315,0,0,-1,0,0,28,28,10,86.19342600000027,86.19342600000027,86.69418130000031,86.76089709999997,86.81120980000014,86.81120980000014,86.81120980000014,86.81120980000014,86.86092959999996,86.86092959999996,86.86092959999996,86.86092959999996,86.86092959999996,86.86092959999996,86.86092959999996,86.86092959999996,86.86092959999996,86.86092959999996,num_1,0.932129199999963,87.81144340000037,87.81144340000037,None,,5,001,2025-12-17_12h28.16.823,2025C_exp1_detect,2022.2.4,59.80868398162138,
35.3,45,1,0,-1,1,0,29,29,312,87.81144340000037,87.81144340000037,88.31201340000007,88.37891430000036,88.42922339999996,88.42922339999996,88.42922339999996,88.42922339999996,88.4788139000002,88.4788139000002,88.4788139000002,88.4788139000002,88.4788139000002,88.4788139000002,88.4788139000002,88.4788139000002,88.4788139000002,88.4788139000002,num_3,0.6275013999998009,89.12965280000026,89.12965280000026,None,,5,001,2025-12-17_12h28.16.823,2025C_exp1_detect,2022.2.4,59.80868398162138,
39.2,315,1,1,-1,0,0,30,30,70,89.12965280000026,89.12965280000026,89.63018120000015,89.69687210000029,89.74724390000029,89.74724390000029,89.74724390000029,89.74724390000029,89.79707740000003,89.79707740000003,89.79707740000003,89.79707740000003,89.79707740000003,89.79707740000003,89.79707740000003,89.79707740000003,89.79707740000003,89.79707740000003,num_3,0.9000456999997368,90.71431690000009,90.71431690000009,None,,5,001,2025-12-17_12h28.16.823,2025C_exp1_detect,2022.2.4,59.80868398162138,
29.4,45,0,0,-1,-1,0,31,31,149,90.71431690000009,90.71431690000009,91.21515249999993,91.28184409999994,91.33190150000019,91.33190150000019,91.33190150000019,91.33190150000019,91.3819652000002,91.3819652000002,91.3819652000002,91.3819652000002,91.3819652000002,91.3819652000002,91.3819652000002,91.3819652000002,91.3819652000002,91.3819652000002,num_1,0.835116499999458,92.24933030000011,92.24933030000011,None,,5,001,2025-12-17_12h28.16.823,2025C_exp1_detect,2022.2.4,59.80868398162138,
39.2,315,0,0,1,-1,0,32,32,232,92.24933030000011,92.24933030000011,92.74990610000032,92.81667650000009,92.86695970000028,92.86695970000028,92.86695970000028,92.86695970000028,92.91696150000007,92.91696150000007,92.91696150000007,92.91696150000007,92.91696150000007,92.91696150000007,92.91696150000007,92.91696150000007,92.91696150000007,92.91696150000007,num_3,1.9812530999997762,94.91855980000037,94.91855980000037,None,,5,001,2025-12-17_12h28.16.823,2025C_exp1_detect,2022.2.4,59.80868398162138,
22.7,315,0,1,1,-1,0,33,33,264,94.91855980000037,94.91855980000037,95.41908550000016,95.48601390000022,95.53615900000023,95.53615900000023,95.53615900000023,95.53615900000023,95.58618200000001,95.58618200000001,95.58618200000001,95.58618200000001,95.58618200000001,95.58618200000001,95.58618200000001,95.58618200000001,95.58618200000001,95.58618200000001,num_1,0.8546519999999873,96.47015099999999,96.47015099999999,None,,5,001,2025-12-17_12h28.16.823,2025C_exp1_detect,2022.2.4,59.80868398162138,
22.7,315,1,1,1,0,0,34,34,138,96.47015099999999,96.47015099999999,96.97098219999998,97.03785150000022,97.08809920000022,97.08809920000022,97.08809920000022,97.08809920000022,97.13794670000016,97.13794670000016,97.13794670000016,97.13794670000016,97.13794670000016,97.13794670000016,97.13794670000016,97.13794670000016,97.13794670000016,97.13794670000016,num_1,0.9118054000000484,98.07172230000015,98.07172230000015,None,,5,001,2025-12-17_12h28.16.823,2025C_exp1_detect,2022.2.4,59.80868398162138,
19.6,315,0,1,1,-1,0,35,35,263,98.07172230000015,98.07172230000015,98.57241920000024,98.63906850000012,98.68936120000035,98.68936120000035,98.68936120000035,98.68936120000035,98.73936140000023,98.73936140000023,98.73936140000023,98.73936140000023,98.73936140000023,98.73936140000023,98.73936140000023,98.73936140000023,98.73936140000023,98.73936140000023,num_1,0.6858397000000878,99.45664050000005,99.45664050000005,None,,5,001,2025-12-17_12h28.16.823,2025C_exp1_detect,2022.2.4,59.80868398162138,
12.1,45,0,0,-1,0,0,36,36,0,99.45664050000005,99.45664050000005,99.95723550000002,100.02390570000034,100.07408639999994,100.07408639999994,100.07408639999994,100.07408639999994,100.12407340000027,100.12407340000027,100.12407340000027,100.12407340000027,100.12407340000027,100.12407340000027,100.12407340000027,100.12407340000027,100.12407340000027,100.12407340000027,num_3,0.8219058999998197,100.97463770000013,100.97463770000013,None,,5,001,2025-12-17_12h28.16.823,2025C_exp1_detect,2022.2.4,59.80868398162138,
25.5,45,0,1,1,-1,0,37,37,256,100.97463770000013,100.97463770000013,101.47539180000012,101.54186750000008,101.59233670000003,101.59233670000003,101.59233670000003,101.59233670000003,101.64224469999999,101.64224469999999,101.64224469999999,101.64224469999999,101.64224469999999,101.64224469999999,101.64224469999999,101.64224469999999,101.64224469999999,101.64224469999999,num_1,0.6310693999998875,102.29257030000008,102.29257030000008,None,,5,001,2025-12-17_12h28.16.823,2025C_exp1_detect,2022.2.4,59.80868398162138,
19.6,315,1,0,-1,1,0,38,38,317,102.29257030000008,102.29257030000008,102.79333260000021,102.86010209999995,102.91032429999996,102.91032429999996,102.91032429999996,102.91032429999996,102.96021440000004,102.96021440000004,102.96021440000004,102.96021440000004,102.96021440000004,102.96021440000004,102.96021440000004,102.96021440000004,102.96021440000004,102.96021440000004,num_1,1.0816969999996218,104.06101530000024,104.06101530000024,None,,5,001,2025-12-17_12h28.16.823,2025C_exp1_detect,2022.2.4,59.80868398162138,
19.6,315,1,1,-1,-1,0,39,39,209,104.06101530000024,104.06101530000024,104.56176200000027,104.62836360000028,104.67867999999999,104.67867999999999,104.67867999999999,104.67867999999999,104.72851470000023,104.72851470000023,104.72851470000023,104.72851470000023,104.72851470000023,104.72851470000023,104.72851470000023,104.72851470000023,104.72851470000023,104.72851470000023,num_1,1.288245199999892,106.04629479999994,106.04629479999994,None,,5,001,2025-12-17_12h28.16.823,2025C_exp1_detect,2022.2.4,59.80868398162138,
19.6,45,1,0,1,-1,0,40,40,236,106.04629479999994,106.04629479999994,106.54709360000015,106.61366309999994,106.66423140000006,106.66423140000006,106.66423140000006,106.66423140000006,106.7141488000002,106.7141488000002,106.7141488000002,106.7141488000002,106.7141488000002,106.7141488000002,106.7141488000002,106.7141488000002,106.7141488000002,106.7141488000002,num_3,0.7117758999997932,107.4477568000002,107.4477568000002,None,,5,001,2025-12-17_12h28.16.823,2025C_exp1_detect,2022.2.4,59.80868398162138,
15.7,45,1,0,1,1,0,41,41,379,107.4477568000002,107.4477568000002,107.94857279999997,108.01531710000017,108.06549360000008,108.06549360000008,108.06549360000008,108.06549360000008,108.1153432000001,108.1153432000001,108.1153432000001,108.1153432000001,108.1153432000001,108.1153432000001,108.1153432000001,108.1153432000001,108.1153432000001,108.1153432000001,num_3,0.7826823999994303,108.91587370000025,108.91587370000025,None,,5,001,2025-12-17_12h28.16.823,2025C_exp1_detect,2022.2.4,59.80868398162138,
39.2,315,1,0,1,-1,0,42,42,250,108.91587370000025,108.91587370000025,109.41659460000028,109.4834264000001,109.53369460000022,109.53369460000022,109.53369460000022,109.53369460000022,109.58365110000022,109.58365110000022,109.58365110000022,109.58365110000022,109.58365110000022,109.58365110000022,109.58365110000022,109.58365110000022,109.58365110000022,109.58365110000022,num_3,0.6173829999997906,110.21716220000008,110.21716220000008,None,,5,001,2025-12-17_12h28.16.823,2025C_exp1_detect,2022.2.4,59.80868398162138,
42.7,315,0,0,1,0,0,43,43,89,110.21716220000008,110.21716220000008,110.71759950000023,110.78491940000004,110.83467450000035,110.83467450000035,110.83467450000035,110.83467450000035,110.88471460000028,110.88471460000028,110.88471460000028,110.88471460000028,110.88471460000028,110.88471460000028,110.88471460000028,110.88471460000028,110.88471460000028,110.88471460000028,num_3,0.5566660999998021,111.46832820000009,111.46832820000009,None,,5,001,2025-12-17_12h28.16.823,2025C_exp1_detect,2022.2.4,59.80868398162138,
39.2,45,0,1,1,-1,0,44,44,259,111.46832820000009,111.46832820000009,111.9688473000001,112.03556230000004,112.08591710000019,112.08591710000019,112.08591710000019,112.08591710000019,112.13588770000024,112.13588770000024,112.13588770000024,112.13588770000024,112.13588770000024,112.13588770000024,112.13588770000024,112.13588770000024,112.13588770000024,112.13588770000024,num_1,0.6812815999996928,112.83641880000005,112.83641880000005,None,,5,001,2025-12-17_12h28.16.823,2025C_exp1_detect,2022.2.4,59.80868398162138,
25.5,315,0,0,-1,0,0,45,45,13,112.83641880000005,112.83641880000005,113.33687050000026,113.40361030000031,113.45439280000028,113.45439280000028,113.45439280000028,113.45439280000028,113.5039896000003,113.5039896000003,113.5039896000003,113.5039896000003,113.5039896000003,113.5039896000003,113.5039896000003,113.5039896000003,113.5039896000003,113.5039896000003,num_1,1.665774799999781,115.18882770000027,115.18882770000027,None,,5,001,2025-12-17_12h28.16.823,2025C_exp1_detect,2022.2.4,59.80868398162138,
29.4,45,0,1,-1,1,0,46,46,329,115.18882770000027,115.18882770000027,115.6897014000001,115.75618120000036,115.80657980000024,115.80657980000024,115.80657980000024,115.80657980000024,115.85642850000022,115.85642850000022,115.85642850000022,115.85642850000022,115.85642850000022,115.85642850000022,115.85642850000022,115.85642850000022,115.85642850000022,115.85642850000022,num_3,0.8419672999998511,116.72369100000014,116.72369100000014,None,,5,001,2025-12-17_12h28.16.823,2025C_exp1_detect,2022.2.4,59.80868398162138,
42.7,315,0,0,-1,1,0,47,47,305,116.72369100000014,116.72369100000014,117.22438690000035,117.29113290000032,117.34141910000017,117.34141910000017,117.34141910000017,117.34141910000017,117.39129610000009,117.39129610000009,117.39129610000009,117.39129610000009,117.39129610000009,117.39129610000009,117.39129610000009,117.39129610000009,117.39129610000009,117.39129610000009,num_3,1.1215459999993982,118.54227130000027,118.54227130000027,None,,5,001,2025-12-17_12h28.16.823,2025C_exp1_detect,2022.2.4,59.80868398162138,
35.3,315,0,0,-1,1,0,48,48,303,118.54227130000027,118.54227130000027,119.04290930000025,119.10962300000028,119.15981450000027,119.15981450000027,119.15981450000027,119.15981450000027,119.20968059999996,119.20968059999996,119.20968059999996,119.20968059999996,119.20968059999996,119.20968059999996,119.20968059999996,119.20968059999996,119.20968059999996,119.20968059999996,num_3,0.6315164999996341,119.86015870000028,119.86015870000028,None,,5,001,2025-12-17_12h28.16.823,2025C_exp1_detect,2022.2.4,59.80868398162138,
12.1,45,1,0,-1,0,0,49,49,18,119.86015870000028,119.86015870000028,120.36090360000026,120.42763120000018,120.4780122000002,120.4780122000002,120.4780122000002,120.4780122000002,120.5279101000001,120.5279101000001,120.5279101000001,120.5279101000001,120.5279101000001,120.5279101000001,120.5279101000001,120.5279101000001,120.5279101000001,120.5279101000001,num_1,1.5941573000000062,122.14571569999998,122.14571569999998,None,,5,001,2025-12-17_12h28.16.823,2025C_exp1_detect,2022.2.4,59.80868398162138,
12.1,45,1,0,1,-1,0,50,50,234,122.14571569999998,122.14571569999998,122.64659810000012,122.71334710000019,122.76365000000033,122.76365000000033,122.76365000000033,122.76365000000033,122.81352450000031,122.81352450000031,122.81352450000031,122.81352450000031,122.81352450000031,122.81352450000031,122.81352450000031,122.81352450000031,122.81352450000031,122.81352450000031,num_3,0.7885582999997496,123.6305139000001,123.6305139000001,None,,5,001,2025-12-17_12h28.16.823,2025C_exp1_detect,2022.2.4,59.80868398162138,
35.3,45,0,1,1,-1,0,51,51,258,123.6305139000001,123.6305139000001,124.13150160000032,124.19802340000024,124.24840700000004,124.24840700000004,124.24840700000004,124.24840700000004,124.29811410000002,124.29811410000002,124.29811410000002,124.29811410000002,124.29811410000002,124.29811410000002,124.29811410000002,124.29811410000002,124.29811410000002,124.29811410000002,num_1,0.6239597999997386,124.94852250000031,124.94852250000031,None,,5,001,2025-12-17_12h28.16.823,2025C_exp1_detect,2022.2.4,59.80868398162138,
12.1,315,1,1,-1,0,0,52,52,63,124.94852250000031,124.94852250000031,125.44929460000003,125.5158120000001,125.56626880000022,125.56626880000022,125.56626880000022,125.56626880000022,125.61621110000033,125.61621110000033,125.61621110000033,125.61621110000033,125.61621110000033,125.61621110000033,125.61621110000033,125.61621110000033,125.61621110000033,125.61621110000033,num_3,2.2327617999999347,127.86810760000026,127.86810760000026,None,,5,001,2025-12-17_12h28.16.823,2025C_exp1_detect,2022.2.4,59.80868398162138,
25.5,45,1,0,-1,1,0,53,53,310,127.86810760000026,127.86810760000026,128.36888990000034,128.43570780000027,128.48603330000014,128.48603330000014,128.48603330000014,128.48603330000014,128.53575820000015,128.53575820000015,128.53575820000015,128.53575820000015,128.53575820000015,128.53575820000015,128.53575820000015,128.53575820000015,128.53575820000015,128.53575820000015,num_1,0.7211004999994657,129.28617970000005,129.28617970000005,None,,5,001,2025-12-17_12h28.16.823,2025C_exp1_detect,2022.2.4,59.80868398162138,
29.4,45,1,1,1,-1,0,54,54,275,129.28617970000005,129.28617970000005,129.78707520000034,129.8538370000001,129.90410490000022,129.90410490000022,129.90410490000022,129.90410490000022,129.95390650000036,129.95390650000036,129.95390650000036,129.95390650000036,129.95390650000036,129.95390650000036,129.95390650000036,129.95390650000036,129.95390650000036,129.95390650000036,num_1,1.031531399999949,131.0045428000003,131.0045428000003,None,,5,001,2025-12-17_12h28.16.823,2025C_exp1_detect,2022.2.4,59.80868398162138,
22.7,45,0,0,-1,-1,0,55,55,147,131.0045428000003,131.0045428000003,131.50533900000028,131.57204630000024,131.62224520000018,131.62224520000018,131.62224520000018,131.62224520000018,131.67223060000015,131.67223060000015,131.67223060000015,131.67223060000015,131.67223060000015,131.67223060000015,131.67223060000015,131.67223060000015,131.67223060000015,131.67223060000015,num_3,1.1615602999995644,132.85666949999995,132.85666949999995,None,,5,001,2025-12-17_12h28.16.823,2025C_exp1_detect,2022.2.4,59.80868398162138,
35.3,315,1,1,1,0,0,56,56,141,132.85666949999995,132.85666949999995,133.3571637,133.42391820000012,133.47407550000025,133.47407550000025,133.47407550000025,133.47407550000025,133.52406910000036,133.52406910000036,133.52406910000036,133.52406910000036,133.52406910000036,133.52406910000036,133.52406910000036,133.52406910000036,133.52406910000036,133.52406910000036,num_1,0.724506399999882,134.274449,134.274449,None,,5,001,2025-12-17_12h28.16.823,2025C_exp1_detect,2022.2.4,59.80868398162138,
35.3,315,0,0,-1,-1,0,57,57,159,134.274449,134.274449,134.77540230000022,134.8422456000003,134.89244280000003,134.89244280000003,134.89244280000003,134.89244280000003,134.94236550000005,134.94236550000005,134.94236550000005,134.94236550000005,134.94236550000005,134.94236550000005,134.94236550000005,134.94236550000005,134.94236550000005,134.94236550000005,num_3,0.9954322999997203,135.95972220000021,135.95972220000021,None,,5,001,2025-12-17_12h28.16.823,2025C_exp1_detect,2022.2.4,59.80868398162138,
29.4,315,1,1,-1,-1,0,58,58,212,135.95972220000021,135.95972220000021,136.4601745,136.52691230000028,136.5773147,136.5773147,136.5773147,136.5773147,136.6272385000002,136.6272385000002,136.6272385000002,136.6272385000002,136.6272385000002,136.6272385000002,136.6272385000002,136.6272385000002,136.6272385000002,136.6272385000002,num_1,1.4620864999997139,138.11167620000015,138.11167620000015,None,,5,001,2025-12-17_12h28.16.823,2025C_exp1_detect,2022.2.4,59.80868398162138,
22.7,45,1,1,1,-1,0,59,59,273,138.11167620000015,138.11167620000015,138.61244520000037,138.67906820000007,138.72946610000008,138.72946610000008,138.72946610000008,138.72946610000008,138.7793345,138.7793345,138.7793345,138.7793345,138.7793345,138.7793345,138.7793345,138.7793345,138.7793345,138.7793345,num_1,0.7497156999993422,139.5467982,139.5467982,None,,5,001,2025-12-17_12h28.16.823,2025C_exp1_detect,2022.2.4,59.80868398162138,
39.2,45,1,0,1,0,0,60,60,97,139.5467982,139.5467982,140.04718120000007,140.11392819999992,140.16421089999994,140.16421089999994,140.16421089999994,140.16421089999994,140.21390810000003,140.21390810000003,140.21390810000003,140.21390810000003,140.21390810000003,140.21390810000003,140.21390810000003,140.21390810000003,140.21390810000003,140.21390810000003,num_3,1.3474144000001615,141.58173940000006,141.58173940000006,None,,5,001,2025-12-17_12h28.16.823,2025C_exp1_detect,2022.2.4,59.80868398162138,
19.6,45,0,1,1,-1,0,61,61,254,141.58173940000006,141.58173940000006,142.08233719999998,142.14896690000023,142.19948990000012,142.19948990000012,142.19948990000012,142.19948990000012,142.24933920000012,142.24933920000012,142.24933920000012,142.24933920000012,142.24933920000012,142.24933920000012,142.24933920000012,142.24933920000012,142.24933920000012,142.24933920000012,num_1,1.0312679999997272,143.30020869999998,143.30020869999998,None,,5,001,2025-12-17_12h28.16.823,2025C_exp1_detect,2022.2.4,59.80868398162138,
22.7,315,1,1,1,-1,0,62,62,282,143.30020869999998,143.30020869999998,143.80086110000002,143.86734000000024,143.9176663000003,143.9176663000003,143.9176663000003,143.9176663000003,143.9681886000003,143.9681886000003,143.9681886000003,143.9681886000003,143.9681886000003,143.9681886000003,143.9681886000003,143.9681886000003,143.9681886000003,143.9681886000003,num_1,1.2726408999997147,145.2690652000001,145.2690652000001,None,,5,001,2025-12-17_12h28.16.823,2025C_exp1_detect,2022.2.4,59.80868398162138,
15.7,45,1,1,1,1,0,63,63,415,145.2690652000001,145.2690652000001,145.76971960000037,145.83643299999994,145.88660849999997,145.88660849999997,145.88660849999997,145.88660849999997,145.93650049999997,145.93650049999997,145.93650049999997,145.93650049999997,145.93650049999997,145.93650049999997,145.93650049999997,145.93650049999997,145.93650049999997,145.93650049999997,num_1,0.7287043999995149,146.68684900000017,146.68684900000017,None,,5,001,2025-12-17_12h28.16.823,2025C_exp1_detect,2022.2.4,59.80868398162138,
22.7,45,0,1,1,-1,0,64,64,255,146.68684900000017,146.68684900000017,147.1876626000003,147.25455310000007,147.30487489999996,147.30487489999996,147.30487489999996,147.30487489999996,147.35455100000036,147.35455100000036,147.35455100000036,147.35455100000036,147.35455100000036,147.35455100000036,147.35455100000036,147.35455100000036,147.35455100000036,147.35455100000036,num_1,1.6947486999997636,149.07259160000012,149.07259160000012,None,,5,001,2025-12-17_12h28.16.823,2025C_exp1_detect,2022.2.4,59.80868398162138,
42.7,315,0,0,-1,-1,0,65,65,161,149.07259160000012,149.07259160000012,149.57339020000018,149.64009170000008,149.69039900000007,149.69039900000007,149.69039900000007,149.69039900000007,149.74021459999994,149.74021459999994,149.74021459999994,149.74021459999994,149.74021459999994,149.74021459999994,149.74021459999994,149.74021459999994,149.74021459999994,149.74021459999994,num_3,0.8847639000000527,150.65792940000028,150.65792940000028,None,,5,001,2025-12-17_12h28.16.823,2025C_exp1_detect,2022.2.4,59.80868398162138,
19.6,315,1,1,-1,1,0,66,66,353,150.65792940000028,150.65792940000028,151.1581825000003,151.22506770000018,151.27535880000005,151.27535880000005,151.27535880000005,151.27535880000005,151.32514760000004,151.32514760000004,151.32514760000004,151.32514760000004,151.32514760000004,151.32514760000004,151.32514760000004,151.32514760000004,151.32514760000004,151.32514760000004,num_3,1.6609418999996706,153.0098766000001,153.0098766000001,None,,5,001,2025-12-17_12h28.16.823,2025C_exp1_detect,2022.2.4,59.80868398162138,
29.4,315,1,0,1,1,0,67,67,392,153.0098766000001,153.0098766000001,153.51074160000007,153.57744950000006,153.6276498000002,153.6276498000002,153.6276498000002,153.6276498000002,153.6775289000002,153.6775289000002,153.6775289000002,153.6775289000002,153.6775289000002,153.6775289000002,153.6775289000002,153.6775289000002,153.6775289000002,153.6775289000002,num_3,0.9079109999997854,154.61153160000003,154.61153160000003,None,,5,001,2025-12-17_12h28.16.823,2025C_exp1_detect,2022.2.4,59.80868398162138,
12.1,315,0,1,-1,0,0,68,68,45,154.61153160000003,154.61153160000003,155.11252830000012,155.17927120000013,155.22941949999995,155.22941949999995,155.22941949999995,155.22941949999995,155.2794157000003,155.2794157000003,155.2794157000003,155.2794157000003,155.2794157000003,155.2794157000003,155.2794157000003,155.2794157000003,155.2794157000003,155.2794157000003,num_3,1.449129599999651,156.74693720000005,156.74693720000005,None,,5,001,2025-12-17_12h28.16.823,2025C_exp1_detect,2022.2.4,59.80868398162138,
29.4,315,0,1,-1,1,0,69,69,338,156.74693720000005,156.74693720000005,157.24758760000032,157.31443590000026,157.36473909999995,157.36473909999995,157.36473909999995,157.36473909999995,157.41444630000024,157.41444630000024,157.41444630000024,157.41444630000024,157.41444630000024,157.41444630000024,157.41444630000024,157.41444630000024,157.41444630000024,157.41444630000024,num_3,1.178820000000087,158.61544900000035,158.61544900000035,None,,5,001,2025-12-17_12h28.16.823,2025C_exp1_detect,2022.2.4,59.80868398162138,
35.3,45,0,1,-1,-1,0,70,70,186,158.61544900000035,158.61544900000035,159.1172518000003,159.18266250000033,159.23292310000033,159.23292310000033,159.23292310000033,159.23292310000033,159.28292680000004,159.28292680000004,159.28292680000004,159.28292680000004,159.28292680000004,159.28292680000004,159.28292680000004,159.28292680000004,159.28292680000004,159.28292680000004,num_3,0.8702845999996498,160.1836601,160.1836601,None,,5,001,2025-12-17_12h28.16.823,2025C_exp1_detect,2022.2.4,59.80868398162138,
15.7,315,1,0,1,-1,0,71,71,244,160.1836601,160.1836601,160.6841757000002,160.75108930000033,160.80116910000015,160.80116910000015,160.80116910000015,160.80116910000015,160.85103359999994,160.85103359999994,160.85103359999994,160.85103359999994,160.85103359999994,160.85103359999994,160.85103359999994,160.85103359999994,160.85103359999994,160.85103359999994,num_3,0.8695823999996719,161.7519314000001,161.7519314000001,None,,5,001,2025-12-17_12h28.16.823,2025C_exp1_detect,2022.2.4,59.80868398162138,
42.7,45,1,1,-1,0,0,72,72,62,161.7519314000001,161.7519314000001,162.25241989999995,162.3191240000001,162.36943090000022,162.36943090000022,162.36943090000022,162.36943090000022,162.4193169,162.4193169,162.4193169,162.4193169,162.4193169,162.4193169,162.4193169,162.4193169,162.4193169,162.4193169,num_3,1.5823693999996067,164.02096740000025,164.02096740000025,None,,5,001,2025-12-17_12h28.16.823,2025C_exp1_detect,2022.2.4,59.80868398162138,
19.6,45,1,1,1,1,0,73,73,416,164.02096740000025,164.02096740000025,164.5216749000001,164.5883877000001,164.6387050000003,164.6387050000003,164.6387050000003,164.6387050000003,164.68857460000027,164.68857460000027,164.68857460000027,164.68857460000027,164.68857460000027,164.68857460000027,164.68857460000027,164.68857460000027,164.68857460000027,164.68857460000027,num_1,0.7129049999998642,165.42227630000025,165.42227630000025,None,,5,001,2025-12-17_12h28.16.823,2025C_exp1_detect,2022.2.4,59.80868398162138,
29.4,45,1,0,-1,-1,0,74,74,167,165.42227630000025,165.42227630000025,165.92297869999993,165.98967500000026,166.04008300000032,166.04008300000032,166.04008300000032,166.04008300000032,166.08976870000015,166.08976870000015,166.08976870000015,166.08976870000015,166.08976870000015,166.08976870000015,166.08976870000015,166.08976870000015,166.08976870000015,166.08976870000015,num_1,0.687497799999619,166.80700370000022,166.80700370000022,None,,5,001,2025-12-17_12h28.16.823,2025C_exp1_detect,2022.2.4,59.80868398162138,
42.7,45,1,0,-1,-1,0,75,75,170,166.80700370000022,166.80700370000022,167.30786770000032,167.37420960000009,167.42461630000025,167.42461630000025,167.42461630000025,167.42461630000025,167.47487249999995,167.47487249999995,167.47487249999995,167.47487249999995,167.47487249999995,167.47487249999995,167.47487249999995,167.47487249999995,167.47487249999995,167.47487249999995,num_1,0.5914218999996592,168.09180530000003,168.09180530000003,None,,5,001,2025-12-17_12h28.16.823,2025C_exp1_detect,2022.2.4,59.80868398162138,
12.1,45,1,1,-1,1,0,76,76,342,168.09180530000003,168.09180530000003,168.5924742000002,168.65924220000034,168.70940680000012,168.70940680000012,168.70940680000012,168.70940680000012,168.7592665000002,168.7592665000002,168.7592665000002,168.7592665000002,168.7592665000002,168.7592665000002,168.7592665000002,168.7592665000002,168.7592665000002,168.7592665000002,num_3,1.3293375999996897,170.11036009999998,170.11036009999998,None,,5,001,2025-12-17_12h28.16.823,2025C_exp1_detect,2022.2.4,59.80868398162138,
12.1,315,1,0,-1,1,0,77,77,315,170.11036009999998,170.11036009999998,170.61076129999992,170.6778650000001,170.72826890000033,170.72826890000033,170.72826890000033,170.72826890000033,170.77763390000018,170.77763390000018,170.77763390000018,170.77763390000018,170.77763390000018,170.77763390000018,170.77763390000018,170.77763390000018,170.77763390000018,170.77763390000018,num_1,1.103100199999517,171.9120256000001,171.9120256000001,None,,5,001,2025-12-17_12h28.16.823,2025C_exp1_detect,2022.2.4,59.80868398162138,
35.3,45,0,0,1,0,0,78,78,78,171.9120256000001,171.9120256000001,172.41258920000018,172.4792738000001,172.52958530000024,172.52958530000024,172.52958530000024,172.52958530000024,172.57944590000034,172.57944590000034,172.57944590000034,172.57944590000034,172.57944590000034,172.57944590000034,172.57944590000034,172.57944590000034,172.57944590000034,172.57944590000034,num_3,0.7337105000001429,173.33020060000035,173.33020060000035,None,,5,001,2025-12-17_12h28.16.823,2025C_exp1_detect,2022.2.4,59.80868398162138,
25.5,45,0,0,1,1,0,79,79,364,173.33020060000035,173.33020060000035,173.8307493000002,173.8973615,173.9477009000002,173.9477009000002,173.9477009000002,173.9477009000002,173.99753120000014,173.99753120000014,173.99753120000014,173.99753120000014,173.99753120000014,173.99753120000014,173.99753120000014,173.99753120000014,173.99753120000014,173.99753120000014,num_3,0.6118060999997397,174.63144360000024,174.63144360000024,None,,5,001,2025-12-17_12h28.16.823,2025C_exp1_detect,2022.2.4,59.80868398162138,
25.5,315,0,1,1,-1,0,80,80,265,174.63144360000024,174.63144360000024,175.13195380000025,175.1987796000003,175.2493886000002,175.2493886000002,175.2493886000002,175.2493886000002,175.29926939999996,175.29926939999996,175.29926939999996,175.29926939999996,175.29926939999996,175.29926939999996,175.29926939999996,175.29926939999996,175.29926939999996,175.29926939999996,num_1,0.6785095999998703,175.99956199999997,175.99956199999997,None,,5,001,2025-12-17_12h28.16.823,2025C_exp1_detect,2022.2.4,59.80868398162138,
12.1,315,1,0,1,-1,0,81,81,243,175.99956199999997,175.99956199999997,176.50020829999994,176.56695320000017,176.6172442000002,176.6172442000002,176.6172442000002,176.6172442000002,176.6670065000003,176.6670065000003,176.6670065000003,176.6670065000003,176.6670065000003,176.6670065000003,176.6670065000003,176.6670065000003,176.6670065000003,176.6670065000003,num_3,0.8473156999993989,177.5345655000001,177.5345655000001,None,,5,001,2025-12-17_12h28.16.823,2025C_exp1_detect,2022.2.4,59.80868398162138,
42.7,315,1,1,-1,1,0,82,82,359,177.5345655000001,177.5345655000001,178.03512260000025,178.1018712,178.15229780000027,178.15229780000027,178.15229780000027,178.15229780000027,178.20214030000034,178.20214030000034,178.20214030000034,178.20214030000034,178.20214030000034,178.20214030000034,178.20214030000034,178.20214030000034,178.20214030000034,178.20214030000034,num_1,1.023213399999804,179.25281640000003,179.25281640000003,None,,5,001,2025-12-17_12h28.16.823,2025C_exp1_detect,2022.2.4,59.80868398162138,
35.3,315,1,1,-1,-1,0,83,83,213,179.25281640000003,179.25281640000003,179.75326610000002,179.8200638000003,179.87058300000035,179.87058300000035,179.87058300000035,179.87058300000035,179.92041280000012,179.92041280000012,179.92041280000012,179.92041280000012,179.92041280000012,179.92041280000012,179.92041280000012,179.92041280000012,179.92041280000012,179.92041280000012,num_1,0.6003445000001193,180.53735180000012,180.53735180000012,None,,5,001,2025-12-17_12h28.16.823,2025C_exp1_detect,2022.2.4,59.80868398162138,
22.7,45,1,1,-1,1,0,84,84,345,180.53735180000012,180.53735180000012,181.03813209999998,181.10486519999995,181.15518390000034,181.15518390000034,181.15518390000034,181.15518390000034,181.20505860000003,181.20505860000003,181.20505860000003,181.20505860000003,181.20505860000003,181.20505860000003,181.20505860000003,181.20505860000003,181.20505860000003,181.20505860000003,num_1,0.6840221999996174,181.90546059999997,181.90546059999997,None,,5,001,2025-12-17_12h28.16.823,2025C_exp1_detect,2022.2.4,59.80868398162138,
15.7,45,0,1,1,-1,0,85,85,253,181.90546059999997,181.90546059999997,182.4062931000003,182.47296800000004,182.52318940000032,182.52318940000032,182.52318940000032,182.52318940000032,182.57318579999992,182.57318579999992,182.57318579999992,182.57318579999992,182.57318579999992,182.57318579999992,182.57318579999992,182.57318579999992,182.57318579999992,182.57318579999992,num_1,0.6768621999999596,183.2737121,183.2737121,None,,5,001,2025-12-17_12h28.16.823,2025C_exp1_detect,2022.2.4,59.80868398162138,
12.1,315,0,1,1,0,0,86,86,117,183.2737121,183.2737121,183.7743077,183.8409875000002,183.89111390000016,183.89111390000016,183.89111390000016,183.89111390000016,183.94081959999994,183.94081959999994,183.94081959999994,183.94081959999994,183.94081959999994,183.94081959999994,183.94081959999994,183.94081959999994,183.94081959999994,183.94081959999994,num_1,0.7005351999996492,184.65817240000024,184.65817240000024,None,,5,001,2025-12-17_12h28.16.823,2025C_exp1_detect,2022.2.4,59.80868398162138,
25.5,45,0,0,-1,0,0,87,87,4,184.65817240000024,184.65817240000024,185.15916670000024,185.22590790000004,185.27618580000035,185.27618580000035,185.27618580000035,185.27618580000035,185.32599590000018,185.32599590000018,185.32599590000018,185.32599590000018,185.32599590000018,185.32599590000018,185.32599590000018,185.32599590000018,185.32599590000018,185.32599590000018,num_3,0.6756640999997217,186.02616190000026,186.02616190000026,None,,5,001,2025-12-17_12h28.16.823,2025C_exp1_detect,2022.2.4,59.80868398162138,
35.3,45,1,1,-1,-1,0,88,88,204,186.02616190000026,186.02616190000026,186.52698610000016,186.5936670000001,186.64399660000026,186.64399660000026,186.64399660000026,186.64399660000026,186.69385180000017,186.69385180000017,186.69385180000017,186.69385180000017,186.69385180000017,186.69385180000017,186.69385180000017,186.69385180000017,186.69385180000017,186.69385180000017,num_1,1.2673879999997553,187.97819640000034,187.97819640000034,None,,5,001,2025-12-17_12h28.16.823,2025C_exp1_detect,2022.2.4,59.80868398162138,
39.2,45,1,0,1,1,0,89,89,385,187.97819640000034,187.97819640000034,188.47891019999997,188.5456124000002,188.59590340000022,188.59590340000022,188.59590340000022,188.59590340000022,188.64582310000014,188.64582310000014,188.64582310000014,188.64582310000014,188.64582310000014,188.64582310000014,188.64582310000014,188.64582310000014,188.64582310000014,188.64582310000014,num_3,0.7799895999996806,189.44633040000008,189.44633040000008,None,,5,001,2025-12-17_12h28.16.823,2025C_exp1_detect,2022.2.4,59.80868398162138,
29.4,45,1,1,1,1,0,90,90,419,189.44633040000008,189.44633040000008,189.94692880000002,190.01373490000014,190.0639097000003,190.0639097000003,190.0639097000003,190.0639097000003,190.11394120000023,190.11394120000023,190.11394120000023,190.11394120000023,190.11394120000023,190.11394120000023,190.11394120000023,190.11394120000023,190.11394120000023,190.11394120000023,num_1,0.6953395999998975,190.8310534000002,190.8310534000002,None,,5,001,2025-12-17_12h28.16.823,2025C_exp1_detect,2022.2.4,59.80868398162138,
35.3,315,0,0,1,1,0,91,91,375,190.8310534000002,190.8310534000002,191.33151220000036,191.3983562000003,191.44875730000012,191.44875730000012,191.44875730000012,191.44875730000012,191.4984797000002,191.4984797000002,191.4984797000002,191.4984797000002,191.4984797000002,191.4984797000002,191.4984797000002,191.4984797000002,191.4984797000002,191.4984797000002,num_3,1.2229832999996688,192.74963720000005,192.74963720000005,None,,5,001,2025-12-17_12h28.16.823,2025C_exp1_detect,2022.2.4,59.80868398162138,
12.1,45,0,1,1,1,0,92,92,396,192.74963720000005,192.74963720000005,193.2503684000003,193.31706450000001,193.36750080000002,193.36750080000002,193.36750080000002,193.36750080000002,193.41726259999996,193.41726259999996,193.41726259999996,193.41726259999996,193.41726259999996,193.41726259999996,193.41726259999996,193.41726259999996,193.41726259999996,193.41726259999996,num_1,2.543604499999674,195.98614080000016,195.98614080000016,None,,5,001,2025-12-17_12h28.16.823,2025C_exp1_detect,2022.2.4,59.80868398162138,
39.2,315,1,1,-1,1,0,93,93,358,195.98614080000016,195.98614080000016,196.48669100000006,196.5536285000003,196.6037749000002,196.6037749000002,196.6037749000002,196.6037749000002,196.65380040000036,196.65380040000036,196.65380040000036,196.65380040000036,196.65380040000036,196.65380040000036,196.65380040000036,196.65380040000036,196.65380040000036,196.65380040000036,num_1,0.7953536999998505,197.47108509999998,197.47108509999998,None,,5,001,2025-12-17_12h28.16.823,2025C_exp1_detect,2022.2.4,59.80868398162138,
15.7,45,1,0,-1,0,0,94,94,19,197.47108509999998,197.47108509999998,197.9717112000003,198.0384299000002,198.08890400000018,198.08890400000018,198.08890400000018,198.08890400000018,198.1387232000002,198.1387232000002,198.1387232000002,198.1387232000002,198.1387232000002,198.1387232000002,198.1387232000002,198.1387232000002,198.1387232000002,198.1387232000002,num_1,0.7910744999999224,198.95579100000032,198.95579100000032,None,,5,001,2025-12-17_12h28.16.823,2025C_exp1_detect,2022.2.4,59.80868398162138,
35.3,315,1,1,1,1,0,95,95,429,198.95579100000032,198.95579100000032,199.45662260000017,199.52326770000036,199.57356320000008,199.57356320000008,199.57356320000008,199.57356320000008,199.6234397000003,199.6234397000003,199.6234397000003,199.6234397000003,199.6234397000003,199.6234397000003,199.6234397000003,199.6234397000003,199.6234397000003,199.6234397000003,num_1,1.1455007999998088,200.79097980000006,200.79097980000006,None,,5,001,2025-12-17_12h28.16.823,2025C_exp1_detect,2022.2.4,59.80868398162138,
19.6,45,0,1,-1,-1,0,96,96,182,200.79097980000006,200.79097980000006,201.29140189999998,201.35846800000036,201.40842710000015,201.40842710000015,201.40842710000015,201.40842710000015,201.4583437000001,201.4583437000001,201.4583437000001,201.4583437000001,201.4583437000001,201.4583437000001,201.4583437000001,201.4583437000001,201.4583437000001,201.4583437000001,num_3,1.8068325999997796,203.29338559999997,203.29338559999997,None,,5,001,2025-12-17_12h28.16.823,2025C_exp1_detect,2022.2.4,59.80868398162138,
25.5,315,0,0,-1,-1,0,97,97,157,203.29338559999997,203.29338559999997,203.79390289999992,203.86078110000017,203.9113671,203.9113671,203.9113671,203.9113671,203.96087949999992,203.96087949999992,203.96087949999992,203.96087949999992,203.96087949999992,203.96087949999992,203.96087949999992,203.96087949999992,203.96087949999992,203.96087949999992,num_3,2.8719954999996844,206.86416340000005,206.86416340000005,None,,5,001,2025-12-17_12h28.16.823,2025C_exp1_detect,2022.2.4,59.80868398162138,
39.2,315,1,0,-1,1,0,98,98,322,206.86416340000005,206.86416340000005,207.3642232000002,207.43116869999994,207.4814338000001,207.4814338000001,207.4814338000001,207.4814338000001,207.5313212000001,207.5313212000001,207.5313212000001,207.5313212000001,207.5313212000001,207.5313212000001,207.5313212000001,207.5313212000001,207.5313212000001,207.5313212000001,num_1,0.7427477999995062,208.29851980000012,208.29851980000012,None,,5,001,2025-12-17_12h28.16.823,2025C_exp1_detect,2022.2.4,59.80868398162138,
15.7,315,1,1,-1,1,0,99,99,352,208.29851980000012,208.29851980000012,208.79921430000013,208.86563360000036,208.91618100000005,208.91618100000005,208.91618100000005,208.91618100000005,208.96602759999996,208.96602759999996,208.96602759999996,208.96602759999996,208.96602759999996,208.96602759999996,208.96602759999996,208.96602759999996,208.96602759999996,208.96602759999996,num_1,0.8025814999996328,209.80020439999998,209.80020439999998,None,,5,001,2025-12-17_12h28.16.823,2025C_exp1_detect,2022.2.4,59.80868398162138,
12.1,45,0,1,1,-1,0,100,100,252,209.80020439999998,209.80020439999998,210.30082410000023,210.3674817000001,210.41791580000017,210.41791580000017,210.41791580000017,210.41791580000017,210.46776490000002,210.46776490000002,210.46776490000002,210.46776490000002,210.46776490000002,210.46776490000002,210.46776490000002,210.46776490000002,210.46776490000002,210.46776490000002,num_1,0.6782765999996627,211.16809710000007,211.16809710000007,None,,5,001,2025-12-17_12h28.16.823,2025C_exp1_detect,2022.2.4,59.80868398162138,
22.7,45,1,0,-1,0,0,101,101,21,211.16809710000007,211.16809710000007,211.66873639999994,211.73548110000002,211.78572759999997,211.78572759999997,211.78572759999997,211.78572759999997,211.83565339999996,211.83565339999996,211.83565339999996,211.83565339999996,211.83565339999996,211.83565339999996,211.83565339999996,211.83565339999996,211.83565339999996,211.83565339999996,num_1,0.5572705999993559,212.41960870000003,212.41960870000003,None,,5,001,2025-12-17_12h28.16.823,2025C_exp1_detect,2022.2.4,59.80868398162138,
35.3,45,0,0,1,1,0,102,102,366,212.41960870000003,212.41960870000003,212.92002010000033,212.98658090000026,213.0368115000001,213.0368115000001,213.0368115000001,213.0368115000001,213.0868733000002,213.0868733000002,213.0868733000002,213.0868733000002,213.0868733000002,213.0868733000002,213.0868733000002,213.0868733000002,213.0868733000002,213.0868733000002,num_3,1.2746465999994143,214.38816829999996,214.38816829999996,None,,5,001,2025-12-17_12h28.16.823,2025C_exp1_detect,2022.2.4,59.80868398162138,
39.2,315,0,1,-1,1,0,103,103,340,214.38816829999996,214.38816829999996,214.88877730000013,214.95546060000015,215.00567050000018,215.00567050000018,215.00567050000018,215.00567050000018,215.05517310000005,215.05517310000005,215.05517310000005,215.05517310000005,215.05517310000005,215.05517310000005,215.05517310000005,215.05517310000005,215.05517310000005,215.05517310000005,num_3,0.8095996999995805,215.88961180000024,215.88961180000024,None,,5,001,2025-12-17_12h28.16.823,2025C_exp1_detect,2022.2.4,59.80868398162138,
39.2,45,0,1,-1,-1,0,104,104,187,215.88961180000024,215.88961180000024,216.39028140000028,216.45698500000026,216.50714920000019,216.50714920000019,216.50714920000019,216.50714920000019,216.55692320000026,216.55692320000026,216.55692320000026,216.55692320000026,216.55692320000026,216.55692320000026,216.55692320000026,216.55692320000026,216.55692320000026,216.55692320000026,num_3,0.8284871999999268,217.40784340000027,217.40784340000027,None,,5,001,2025-12-17_12h28.16.823,2025C_exp1_detect,2022.2.4,59.80868398162138,
25.5,315,1,0,1,1,0,105,105,391,217.40784340000027,217.40784340000027,217.90850219999993,217.9750325,218.02533310000035,218.02533310000035,218.02533310000035,218.02533310000035,218.07522910000034,218.07522910000034,218.07522910000034,218.07522910000034,218.07522910000034,218.07522910000034,218.07522910000034,218.07522910000034,218.07522910000034,218.07522910000034,num_3,0.9746688999998696,219.07615639999995,219.07615639999995,None,,5,001,2025-12-17_12h28.16.823,2025C_exp1_detect,2022.2.4,59.80868398162138,
25.5,315,1,0,-1,0,0,106,106,31,219.07615639999995,219.07615639999995,219.57649990000027,219.64335340000025,219.69371040000033,219.69371040000033,219.69371040000033,219.69371040000033,219.74351320000005,219.74351320000005,219.74351320000005,219.74351320000005,219.74351320000005,219.74351320000005,219.74351320000005,219.74351320000005,219.74351320000005,219.74351320000005,num_1,0.7702928999997312,220.54409850000002,220.54409850000002,None,,5,001,2025-12-17_12h28.16.823,2025C_exp1_detect,2022.2.4,59.80868398162138,
29.4,315,0,0,-1,0,0,107,107,14,220.54409850000002,220.54409850000002,221.04466249999996,221.11142970000037,221.1617209000001,221.1617209000001,221.1617209000001,221.1617209000001,221.21168100000023,221.21168100000023,221.21168100000023,221.21168100000023,221.21168100000023,221.21168100000023,221.21168100000023,221.21168100000023,221.21168100000023,221.21168100000023,num_3,1.1650051999995412,222.39617180000005,222.39617180000005,space,2.468960299999708,5,001,2025-12-17_12h28.16.823,2025C_exp1_detect,2022.2.4,59.80868398162138,
19.6,45,1,0,1,0,0,108,108,92,224.88195970000015,224.88195970000015,225.38250050000033,225.44891850000022,225.49947330000032,225.49947330000032,225.49947330000032,225.49947330000032,225.54933040000014,225.54933040000014,225.54933040000014,225.54933040000014,225.54933040000014,225.54933040000014,225.54933040000014,225.54933040000014,225.54933040000014,225.54933040000014,num_3,1.4196538999995028,227.00050190000002,227.00050190000002,None,,5,001,2025-12-17_12h28.16.823,2025C_exp1_detect,2022.2.4,59.80868398162138,
42.7,45,1,0,-1,0,0,109,109,26,227.00050190000002,227.00050190000002,227.50115240000014,227.56789370000024,227.61822580000035,227.61822580000035,227.61822580000035,227.61822580000035,227.6681079,227.6681079,227.6681079,227.6681079,227.6681079,227.6681079,227.6681079,227.6681079,227.6681079,227.6681079,num_1,0.8374369999996816,228.53560430000016,228.53560430000016,None,,5,001,2025-12-17_12h28.16.823,2025C_exp1_detect,2022.2.4,59.80868398162138,
35.3,45,0,1,1,1,0,110,110,402,228.53560430000016,228.53560430000016,229.03607180000017,229.10272699999996,229.15312070000027,229.15312070000027,229.15312070000027,229.15312070000027,229.20298129999992,229.20298129999992,229.20298129999992,229.20298129999992,229.20298129999992,229.20298129999992,229.20298129999992,229.20298129999992,229.20298129999992,229.20298129999992,num_1,0.5663575999997192,229.78656520000004,229.78656520000004,None,,5,001,2025-12-17_12h28.16.823,2025C_exp1_detect,2022.2.4,59.80868398162138,
29.4,45,1,0,-1,0,0,111,111,23,229.78656520000004,229.78656520000004,230.28713310000012,230.35384750000003,230.40405060000012,230.40405060000012,230.40405060000012,230.40405060000012,230.45413580000013,230.45413580000013,230.45413580000013,230.45413580000013,230.45413580000013,230.45413580000013,230.45413580000013,230.45413580000013,230.45413580000013,230.45413580000013,num_1,0.4988353999992796,230.97116970000025,230.97116970000025,None,,5,001,2025-12-17_12h28.16.823,2025C_exp1_detect,2022.2.4,59.80868398162138,
29.4,315,0,1,1,-1,0,112,112,266,230.97116970000025,230.97116970000025,231.47154900000032,231.53841340000008,231.58855979999998,231.58855979999998,231.58855979999998,231.58855979999998,231.63852180000004,231.63852180000004,231.63852180000004,231.63852180000004,231.63852180000004,231.63852180000004,231.63852180000004,231.63852180000004,231.63852180000004,231.63852180000004,num_1,0.4665127999996912,232.12231360000033,232.12231360000033,None,,5,001,2025-12-17_12h28.16.823,2025C_exp1_detect,2022.2.4,59.80868398162138,
35.3,315,1,1,1,-1,0,113,113,285,232.12231360000033,232.12231360000033,232.62291870000035,232.6896595000003,232.7397059,232.7397059,232.7397059,232.7397059,232.78970150000032,232.78970150000032,232.78970150000032,232.78970150000032,232.78970150000032,232.78970150000032,232.78970150000032,232.78970150000032,232.78970150000032,232.78970150000032,num_1,0.5395078999999896,233.35686430000032,233.35686430000032,None,,5,001,2025-12-17_12h28.16.823,2025C_exp1_detect,2022.2.4,59.80868398162138,
35.3,315,0,1,1,1,0,114,114,411,233.35686430000032,233.35686430000032,233.85729730000003,233.92406230000006,233.97430140000006,233.97430140000006,233.97430140000006,233.97430140000006,234.02415150000024,234.02415150000024,234.02415150000024,234.02415150000024,234.02415150000024,234.02415150000024,234.02415150000024,234.02415150000024,234.02415150000024,234.02415150000024,num_1,0.48911959999941246,234.54128530000025,234.54128530000025,None,,5,001,2025-12-17_12h28.16.823,2025C_exp1_detect,2022.2.4,59.80868398162138,
29.4,315,1,0,-1,1,0,115,115,320,234.54128530000025,234.54128530000025,235.04183360000025,235.10850389999996,235.15880020000031,235.15880020000031,235.15880020000031,235.15880020000031,235.20884920000026,235.20884920000026,235.20884920000026,235.20884920000026,235.20884920000026,235.20884920000026,235.20884920000026,235.20884920000026,235.20884920000026,235.20884920000026,num_1,0.712949799999933,235.94287030000032,235.94287030000032,None,,5,001,2025-12-17_12h28.16.823,2025C_exp1_detect,2022.2.4,59.80868398162138,
39.2,315,1,0,-1,-1,0,116,116,178,235.94287030000032,235.94287030000032,236.44359920000034,236.5103153,236.56075580000015,236.56075580000015,236.56075580000015,236.56075580000015,236.61049410000032,236.61049410000032,236.61049410000032,236.61049410000032,236.61049410000032,236.61049410000032,236.61049410000032,236.61049410000032,236.61049410000032,236.61049410000032,num_1,1.0629732999996122,237.69467120000036,237.69467120000036,None,,5,001,2025-12-17_12h28.16.823,2025C_exp1_detect,2022.2.4,59.80868398162138,
39.2,315,0,0,-1,0,0,117,117,16,237.69467120000036,237.69467120000036,238.19522189999998,238.26194440000017,238.3122426,238.3122426,238.3122426,238.3122426,238.36199940000006,238.36199940000006,238.36199940000006,238.36199940000006,238.36199940000006,238.36199940000006,238.36199940000006,238.36199940000006,238.36199940000006,238.36199940000006,num_1,0.9278954999995221,239.31302370000003,239.31302370000003,None,,5,001,2025-12-17_12h28.16.823,2025C_exp1_detect,2022.2.4,59.80868398162138,
35.3,45,1,0,1,0,0,118,118,96,239.31302370000003,239.31302370000003,239.81338760000017,239.8802571000001,239.93027400000028,239.93027400000028,239.93027400000028,239.93027400000028,239.98051269999996,239.98051269999996,239.98051269999996,239.98051269999996,239.98051269999996,239.98051269999996,239.98051269999996,239.98051269999996,239.98051269999996,239.98051269999996,num_3,0.5081934999993791,240.51418920000015,240.51418920000015,None,,5,001,2025-12-17_12h28.16.823,2025C_exp1_detect,2022.2.4,59.80868398162138,
19.6,45,1,1,-1,0,0,119,119,56,240.51418920000015,240.51418920000015,241.01473420000002,241.08139860000028,241.13169629999993,241.13169629999993,241.13169629999993,241.13169629999993,241.18164220000017,241.18164220000017,241.18164220000017,241.18164220000017,241.18164220000017,241.18164220000017,241.18164220000017,241.18164220000017,241.18164220000017,241.18164220000017,num_3,0.9797706999997899,242.18256040000006,242.18256040000006,None,,5,001,2025-12-17_12h28.16.823,2025C_exp1_detect,2022.2.4,59.80868398162138,
42.7,45,1,0,1,1,0,120,120,386,242.18256040000006,242.18256040000006,242.68332650000002,242.75002320000021,242.8003248,242.8003248,242.8003248,242.8003248,242.85016040000028,242.85016040000028,242.85016040000028,242.85016040000028,242.85016040000028,242.85016040000028,242.85016040000028,242.85016040000028,242.85016040000028,242.85016040000028,num_3,0.5907210999998824,243.46717020000006,243.46717020000006,None,,5,001,2025-12-17_12h28.16.823,2025C_exp1_detect,2022.2.4,59.80868398162138,
39.2,315,1,0,-1,0,0,121,121,34,243.46717020000006,243.46717020000006,243.9677770000003,244.03426579999996,244.08437490000006,244.08437490000006,244.08437490000006,244.08437490000006,244.13454320000028,244.13454320000028,244.13454320000028,244.13454320000028,244.13454320000028,244.13454320000028,244.13454320000028,244.13454320000028,244.13454320000028,244.13454320000028,num_1,0.6435151999999107,244.80188309999994,244.80188309999994,None,,5,001,2025-12-17_12h28.16.823,2025C_exp1_detect,2022.2.4,59.80868398162138,
15.7,315,0,1,-1,0,0,122,122,46,244.80188309999994,244.80188309999994,245.30247559999998,245.36908230000017,245.4195308000003,245.4195308000003,245.4195308000003,245.4195308000003,245.46941490000017,245.46941490000017,245.46941490000017,245.46941490000017,245.46941490000017,245.46941490000017,245.46941490000017,245.46941490000017,245.46941490000017,245.46941490000017,num_1,0.5475601999996798,246.0361581000002,246.0361581000002,None,,5,001,2025-12-17_12h28.16.823,2025C_exp1_detect,2022.2.4,59.80868398162138,
15.7,45,0,0,1,-1,0,123,123,217,246.0361581000002,246.0361581000002,246.53686040000002,246.60360519999995,246.6539912000003,246.6539912000003,246.6539912000003,246.6539912000003,246.70383410000022,246.70383410000022,246.70383410000022,246.70383410000022,246.70383410000022,246.70383410000022,246.70383410000022,246.70383410000022,246.70383410000022,246.70383410000022,num_3,1.6092965999996522,248.3388428000003,248.3388428000003,None,,5,001,2025-12-17_12h28.16.823,2025C_exp1_detect,2022.2.4,59.80868398162138,
29.4,45,0,1,-1,0,0,124,124,41,248.3388428000003,248.3388428000003,248.83938340000032,248.9061872000002,248.95647469999994,248.95647469999994,248.95647469999994,248.95647469999994,249.00602580000032,249.00602580000032,249.00602580000032,249.00602580000032,249.00602580000032,249.00602580000032,249.00602580000032,249.00602580000032,249.00602580000032,249.00602580000032,num_3,1.1718989999994847,250.20724440000004,250.20724440000004,None,,5,001,2025-12-17_12h28.16.823,2025C_exp1_detect,2022.2.4,59.80868398162138,
25.5,315,0,0,1,-1,0,125,125,229,250.20724440000004,250.20724440000004,250.70775279999998,250.77453730000025,250.8249082000002,250.8249082000002,250.8249082000002,250.8249082000002,250.87457870000026,250.87457870000026,250.87457870000026,250.87457870000026,250.87457870000026,250.87457870000026,250.87457870000026,250.87457870000026,250.87457870000026,250.87457870000026,num_3,0.7739661000000524,251.67515100000037,251.67515100000037,None,,5,001,2025-12-17_12h28.16.823,2025C_exp1_detect,2022.2.4,59.80868398162138,
19.6,45,0,0,1,0,0,126,126,74,251.67515100000037,251.67515100000037,252.17557669999997,252.24285350000036,252.29312310000023,252.29312310000023,252.29312310000023,252.29312310000023,252.3425457000003,252.3425457000003,252.3425457000003,252.3425457000003,252.3425457000003,252.3425457000003,252.3425457000003,252.3425457000003,252.3425457000003,252.3425457000003,num_3,0.4988716999996541,252.8598334000003,252.8598334000003,None,,5,001,2025-12-17_12h28.16.823,2025C_exp1_detect,2022.2.4,59.80868398162138,
42.7,45,1,1,-1,1,0,127,127,350,252.8598334000003,252.8598334000003,253.36033450000014,253.42710230000012,253.4774198,253.4774198,253.4774198,253.4774198,253.52727069999992,253.52727069999992,253.52727069999992,253.52727069999992,253.52727069999992,253.52727069999992,253.52727069999992,253.52727069999992,253.52727069999992,253.52727069999992,num_3,0.8980217999996967,254.44449220000024,254.44449220000024,None,,5,001,2025-12-17_12h28.16.823,2025C_exp1_detect,2022.2.4,59.80868398162138,
35.3,315,1,0,-1,1,0,128,128,321,254.44449220000024,254.44449220000024,254.94550470000013,255.01204580000012,255.06237630000032,255.06237630000032,255.06237630000032,255.06237630000032,255.11222720000023,255.11222720000023,255.11222720000023,255.11222720000023,255.11222720000023,255.11222720000023,255.11222720000023,255.11222720000023,255.11222720000023,255.11222720000023,num_1,0.6571557999996003,255.79620109999996,255.79620109999996,None,,5,001,2025-12-17_12h28.16.823,2025C_exp1_detect,2022.2.4,59.80868398162138,
42.7,315,1,0,1,-1,0,129,129,251,255.79620109999996,255.79620109999996,256.29667150000023,256.3633397000003,256.4136764,256.4136764,256.4136764,256.4136764,256.46355600000015,256.46355600000015,256.46355600000015,256.46355600000015,256.46355600000015,256.46355600000015,256.46355600000015,256.46355600000015,256.46355600000015,256.46355600000015,num_3,0.561809899999389,257.0472456000002,257.0472456000002,None,,5,001,2025-12-17_12h28.16.823,2025C_exp1_detect,2022.2.4,59.80868398162138,
39.2,315,1,1,1,-1,0,130,130,286,257.0472456000002,257.0472456000002,257.54796720000013,257.61451149999994,257.6648508000003,257.6648508000003,257.6648508000003,257.6648508000003,257.71504529999993,257.71504529999993,257.71504529999993,257.71504529999993,257.71504529999993,257.71504529999993,257.71504529999993,257.71504529999993,257.71504529999993,257.71504529999993,num_1,0.7422496999997747,258.4820173000003,258.4820173000003,None,,5,001,2025-12-17_12h28.16.823,2025C_exp1_detect,2022.2.4,59.80868398162138,
29.4,315,0,1,1,0,0,131,131,122,258.4820173000003,258.4820173000003,258.9829258,259.04954970000017,259.0999546000003,259.0999546000003,259.0999546000003,259.0999546000003,259.1497067,259.1497067,259.1497067,259.1497067,259.1497067,259.1497067,259.1497067,259.1497067,259.1497067,259.1497067,num_1,0.5868669999995291,259.7669998000001,259.7669998000001,None,,5,001,2025-12-17_12h28.16.823,2025C_exp1_detect,2022.2.4,59.80868398162138,
22.7,315,0,1,-1,0,0,132,132,48,259.7669998000001,259.7669998000001,260.2675935000002,260.33381039999995,260.38402650000035,260.38402650000035,260.38402650000035,260.38402650000035,260.43386469999996,260.43386469999996,260.43386469999996,260.43386469999996,260.43386469999996,260.43386469999996,260.43386469999996,260.43386469999996,260.43386469999996,260.43386469999996,num_3,1.9993813999999475,262.45249920000015,262.45249920000015,None,,5,001,2025-12-17_12h28.16.823,2025C_exp1_detect,2022.2.4,59.80868398162138,
22.7,315,1,1,1,1,0,133,133,426,262.45249920000015,262.45249920000015,262.9529987000001,263.02022579999993,263.06999829999995,263.06999829999995,263.06999829999995,263.06999829999995,263.1198878,263.1198878,263.1198878,263.1198878,263.1198878,263.1198878,263.1198878,263.1198878,263.1198878,263.1198878,num_1,0.6327384999995047,263.77051759999995,263.77051759999995,None,,5,001,2025-12-17_12h28.16.823,2025C_exp1_detect,2022.2.4,59.80868398162138,
35.3,315,1,1,-1,0,0,134,134,69,263.77051759999995,263.77051759999995,264.2709868000002,264.3376953000002,264.3880240000003,264.3880240000003,264.3880240000003,264.3880240000003,264.4378531000002,264.4378531000002,264.4378531000002,264.4378531000002,264.4378531000002,264.4378531000002,264.4378531000002,264.4378531000002,264.4378531000002,264.4378531000002,num_3,2.1313968999997996,266.59011340000006,266.59011340000006,None,,5,001,2025-12-17_12h28.16.823,2025C_exp1_detect,2022.2.4,59.80868398162138,
12.1,45,0,0,-1,-1,0,135,135,144,266.59011340000006,266.59011340000006,267.0909114000001,267.1576325000001,267.2079262000002,267.2079262000002,267.2079262000002,267.2079262000002,267.25778900000023,267.25778900000023,267.25778900000023,267.25778900000023,267.25778900000023,267.25778900000023,267.25778900000023,267.25778900000023,267.25778900000023,267.25778900000023,num_3,0.5435898999994606,267.8248292000003,267.8248292000003,None,,5,001,2025-12-17_12h28.16.823,2025C_exp1_detect,2022.2.4,59.80868398162138,
39.2,315,0,1,1,1,0,136,136,412,267.8248292000003,267.8248292000003,268.325554,268.39214660000016,268.44248830000015,268.44248830000015,268.44248830000015,268.44248830000015,268.49208750000025,268.49208750000025,268.49208750000025,268.49208750000025,268.49208750000025,268.49208750000025,268.49208750000025,268.49208750000025,268.49208750000025,268.49208750000025,num_1,0.6218219999996109,269.14277630000015,269.14277630000015,None,,5,001,2025-12-17_12h28.16.823,2025C_exp1_detect,2022.2.4,59.80868398162138,
15.7,45,1,0,1,-1,0,137,137,235,269.14277630000015,269.14277630000015,269.64333579999993,269.7100611999999,269.7604630000001,269.7604630000001,269.7604630000001,269.7604630000001,269.8103635000002,269.8103635000002,269.8103635000002,269.8103635000002,269.8103635000002,269.8103635000002,269.8103635000002,269.8103635000002,269.8103635000002,269.8103635000002,num_3,1.1823309999995217,271.01135520000025,271.01135520000025,None,,5,001,2025-12-17_12h28.16.823,2025C_exp1_detect,2022.2.4,59.80868398162138,
15.7,45,1,0,-1,1,0,138,138,307,271.01135520000025,271.01135520000025,271.51186840000037,271.57861200000025,271.6288706,271.6288706,271.6288706,271.6288706,271.67872780000016,271.67872780000016,271.67872780000016,271.67872780000016,271.67872780000016,271.67872780000016,271.67872780000016,271.67872780000016,271.67872780000016,271.67872780000016,num_1,1.4747688999996171,273.1800432,273.1800432,None,,5,001,2025-12-17_12h28.16.823,2025C_exp1_detect,2022.2.4,59.80868398162138,
19.6,45,1,0,-1,0,0,139,139,20,273.1800432,273.1800432,273.68055410000034,273.74738290000005,273.79768090000016,273.79768090000016,273.79768090000016,273.79768090000016,273.84756070000003,273.84756070000003,273.84756070000003,273.84756070000003,273.84756070000003,273.84756070000003,273.84756070000003,273.84756070000003,273.84756070000003,273.84756070000003,num_1,0.721277199999804,274.59798690000025,274.59798690000025,None,,5,001,2025-12-17_12h28.16.823,2025C_exp1_detect,2022.2.4,59.80868398162138,
22.7,315,1,0,1,-1,0,140,140,246,274.59798690000025,274.59798690000025,275.09847340000033,275.1654827000002,275.2157688000002,275.2157688000002,275.2157688000002,275.2157688000002,275.2655635000001,275.2655635000001,275.2655635000001,275.2655635000001,275.2655635000001,275.2655635000001,275.2655635000001,275.2655635000001,275.2655635000001,275.2655635000001,num_3,0.6084799999994175,275.8995863,275.8995863,None,,5,001,2025-12-17_12h28.16.823,2025C_exp1_detect,2022.2.4,59.80868398162138,
42.7,45,0,1,1,-1,0,141,141,260,275.8995863,275.8995863,276.39994160000015,276.46680460000016,276.51711479999994,276.51711479999994,276.51711479999994,276.51711479999994,276.56699860000026,276.56699860000026,276.56699860000026,276.56699860000026,276.56699860000026,276.56699860000026,276.56699860000026,276.56699860000026,276.56699860000026,276.56699860000026,num_1,0.601569599999948,277.20074139999997,277.20074139999997,None,,5,001,2025-12-17_12h28.16.823,2025C_exp1_detect,2022.2.4,59.80868398162138,
12.1,315,0,0,1,1,0,142,142,369,277.20074139999997,277.20074139999997,277.70116559999997,277.7683225999999,277.8186152000003,277.8186152000003,277.8186152000003,277.8186152000003,277.86836200000016,277.86836200000016,277.86836200000016,277.86836200000016,277.86836200000016,277.86836200000016,277.86836200000016,277.86836200000016,277.86836200000016,277.86836200000016,num_3,1.604305299999396,279.50303220000023,279.50303220000023,None,,5,001,2025-12-17_12h28.16.823,2025C_exp1_detect,2022.2.4,59.80868398162138,
39.2,45,1,1,1,-1,0,143,143,277,279.50303220000023,279.50303220000023,280.00360279999995,280.07041700000036,280.1207223000001,280.1207223000001,280.1207223000001,280.1207223000001,280.1705860000002,280.1705860000002,280.1705860000002,280.1705860000002,280.1705860000002,280.1705860000002,280.1705860000002,280.1705860000002,280.1705860000002,280.1705860000002,num_1,0.7589246999996249,280.9544742000003,280.9544742000003,None,,5,001,2025-12-17_12h28.16.823,2025C_exp1_detect,2022.2.4,59.80868398162138,
12.1,45,1,1,-1,0,0,144,144,54,280.9544742000003,280.9544742000003,281.45508930000005,281.5221303000003,281.57237090000035,281.57237090000035,281.57237090000035,281.57237090000035,281.6221370000003,281.6221370000003,281.6221370000003,281.6221370000003,281.6221370000003,281.6221370000003,281.6221370000003,281.6221370000003,281.6221370000003,281.6221370000003,num_3,1.5304949999999735,283.1734703000002,283.1734703000002,None,,5,001,2025-12-17_12h28.16.823,2025C_exp1_detect,2022.2.4,59.80868398162138,
22.7,315,0,1,-1,1,0,145,145,336,283.1734703000002,283.1734703000002,283.6740394000003,283.74086320000015,283.7910374000003,283.7910374000003,283.7910374000003,283.7910374000003,283.8409176,283.8409176,283.8409176,283.8409176,283.8409176,283.8409176,283.8409176,283.8409176,283.8409176,283.8409176,num_3,1.0081428999997115,284.8751535000001,284.8751535000001,None,,5,001,2025-12-17_12h28.16.823,2025C_exp1_detect,2022.2.4,59.80868398162138,
42.7,315,0,1,-1,-1,0,146,146,197,284.8751535000001,284.8751535000001,285.3757034,285.4424194000003,285.49244880000015,285.49244880000015,285.49244880000015,285.49244880000015,285.5425889000003,285.5425889000003,285.5425889000003,285.5425889000003,285.5425889000003,285.5425889000003,285.5425889000003,285.5425889000003,285.5425889000003,285.5425889000003,num_3,0.8504689999995207,286.4099636000001,286.4099636000001,None,,5,001,2025-12-17_12h28.16.823,2025C_exp1_detect,2022.2.4,59.80868398162138,
42.7,315,0,1,1,1,0,147,147,413,286.4099636000001,286.4099636000001,286.9105579000002,286.97728840000036,287.02760160000025,287.02760160000025,287.02760160000025,287.02760160000025,287.0774789000002,287.0774789000002,287.0774789000002,287.0774789000002,287.0774789000002,287.0774789000002,287.0774789000002,287.0774789000002,287.0774789000002,287.0774789000002,num_1,0.7471527999996397,287.8449192000003,287.8449192000003,None,,5,001,2025-12-17_12h28.16.823,2025C_exp1_detect,2022.2.4,59.80868398162138,
12.1,315,0,0,-1,0,0,148,148,9,287.8449192000003,287.8449192000003,288.3453701000003,288.41213700000026,288.4624165,288.4624165,288.4624165,288.4624165,288.5121342000002,288.5121342000002,288.5121342000002,288.5121342000002,288.5121342000002,288.5121342000002,288.5121342000002,288.5121342000002,288.5121342000002,288.5121342000002,num_3,1.2571281999994426,289.79663759999994,289.79663759999994,None,,5,001,2025-12-17_12h28.16.823,2025C_exp1_detect,2022.2.4,59.80868398162138,
19.6,315,0,0,1,1,0,149,149,371,289.79663759999994,289.79663759999994,290.29749489999995,290.36384180000005,290.41399500000034,290.41399500000034,290.41399500000034,290.41399500000034,290.46400840000024,290.46400840000024,290.46400840000024,290.46400840000024,290.46400840000024,290.46400840000024,290.46400840000024,290.46400840000024,290.46400840000024,290.46400840000024,num_3,0.8566298999994615,291.3480079000001,291.3480079000001,None,,5,001,2025-12-17_12h28.16.823,2025C_exp1_detect,2022.2.4,59.80868398162138,
39.2,45,0,1,-1,0,0,150,150,43,291.3480079000001,291.3480079000001,291.84851370000024,291.9159033000001,291.9656424,291.9656424,291.9656424,291.9656424,292.0154228000001,292.0154228000001,292.0154228000001,292.0154228000001,292.0154228000001,292.0154228000001,292.0154228000001,292.0154228000001,292.0154228000001,292.0154228000001,num_3,0.8733034999995652,292.91625420000037,292.91625420000037,None,,5,001,2025-12-17_12h28.16.823,2025C_exp1_detect,2022.2.4,59.80868398162138,
35.3,315,1,0,-1,0,0,151,151,33,292.91625420000037,292.91625420000037,293.41676410000036,293.4834971,293.5338079000003,293.5338079000003,293.5338079000003,293.5338079000003,293.58365249999997,293.58365249999997,293.58365249999997,293.58365249999997,293.58365249999997,293.58365249999997,293.58365249999997,293.58365249999997,293.58365249999997,293.58365249999997,num_1,0.6898481999996875,294.3009436000002,294.3009436000002,None,,5,001,2025-12-17_12h28.16.823,2025C_exp1_detect,2022.2.4,59.80868398162138,
42.7,315,0,0,1,-1,0,152,152,233,294.3009436000002,294.3009436000002,294.8014938000001,294.8682444000001,294.91855940000005,294.91855940000005,294.91855940000005,294.91855940000005,294.9686214000003,294.9686214000003,294.9686214000003,294.9686214000003,294.9686214000003,294.9686214000003,294.9686214000003,294.9686214000003,294.9686214000003,294.9686214000003,num_3,1.000090099999852,295.98632640000005,295.98632640000005,None,,5,001,2025-12-17_12h28.16.823,2025C_exp1_detect,2022.2.4,59.80868398162138,
25.5,315,0,1,-1,0,0,153,153,49,295.98632640000005,295.98632640000005,296.4868335000001,296.5535210000003,296.6038486000002,296.6038486000002,296.6038486000002,296.6038486000002,296.65371240000013,296.65371240000013,296.65371240000013,296.65371240000013,296.65371240000013,296.65371240000013,296.65371240000013,296.65371240000013,296.65371240000013,296.65371240000013,num_3,0.9472735999997894,297.6213084000001,297.6213084000001,None,,5,001,2025-12-17_12h28.16.823,2025C_exp1_detect,2022.2.4,59.80868398162138,
35.3,45,1,1,1,-1,0,154,154,276,297.6213084000001,297.6213084000001,298.1217474,298.1886023000002,298.2390054000002,298.2390054000002,298.2390054000002,298.2390054000002,298.28877290000037,298.28877290000037,298.28877290000037,298.28877290000037,298.28877290000037,298.28877290000037,298.28877290000037,298.28877290000037,298.28877290000037,298.28877290000037,num_1,0.616607799999656,298.92255019999993,298.92255019999993,None,,5,001,2025-12-17_12h28.16.823,2025C_exp1_detect,2022.2.4,59.80868398162138,
42.7,45,0,0,-1,0,0,155,155,8,298.92255019999993,298.92255019999993,299.42307600000004,299.4897014000003,299.5400880000002,299.5400880000002,299.5400880000002,299.5400880000002,299.58998950000023,299.58998950000023,299.58998950000023,299.58998950000023,299.58998950000023,299.58998950000023,299.58998950000023,299.58998950000023,299.58998950000023,299.58998950000023,num_3,0.5077650999996877,300.12375810000003,300.12375810000003,None,,5,001,2025-12-17_12h28.16.823,2025C_exp1_detect,2022.2.4,59.80868398162138,
39.2,315,1,0,1,0,0,156,156,106,300.12375810000003,300.12375810000003,300.62414850000005,300.6909925,300.74128070000006,300.74128070000006,300.74128070000006,300.74128070000006,300.7911287000002,300.7911287000002,300.7911287000002,300.7911287000002,300.7911287000002,300.7911287000002,300.7911287000002,300.7911287000002,300.7911287000002,300.7911287000002,num_3,0.6268258999998579,301.44173820000015,301.44173820000015,None,,5,001,2025-12-17_12h28.16.823,2025C_exp1_detect,2022.2.4,59.80868398162138,
19.6,45,0,0,1,1,0,157,157,362,301.44173820000015,301.44173820000015,301.94218020000017,302.00867900000003,302.0591665000002,302.0591665000002,302.0591665000002,302.0591665000002,302.1089900000002,302.1089900000002,302.1089900000002,302.1089900000002,302.1089900000002,302.1089900000002,302.1089900000002,302.1089900000002,302.1089900000002,302.1089900000002,num_3,0.4835928999996213,302.6095629000001,302.6095629000001,None,,5,001,2025-12-17_12h28.16.823,2025C_exp1_detect,2022.2.4,59.80868398162138,
15.7,315,0,0,1,0,0,158,158,82,302.6095629000001,302.6095629000001,303.10997309999993,303.17673140000034,303.22723190000033,303.22723190000033,303.22723190000033,303.22723190000033,303.2771266,303.2771266,303.2771266,303.2771266,303.2771266,303.2771266,303.2771266,303.2771266,303.2771266,303.2771266,num_3,0.4445292999994308,303.7441563000002,303.7441563000002,None,,5,001,2025-12-17_12h28.16.823,2025C_exp1_detect,2022.2.4,59.80868398162138,
39.2,45,1,0,-1,1,0,159,159,313,303.7441563000002,303.7441563000002,304.24454130000004,304.3112476000001,304.3615417000001,304.3615417000001,304.3615417000001,304.3615417000001,304.4114208000001,304.4114208000001,304.4114208000001,304.4114208000001,304.4114208000001,304.4114208000001,304.4114208000001,304.4114208000001,304.4114208000001,304.4114208000001,num_1,0.6785302999996929,305.11194250000017,305.11194250000017,None,,5,001,2025-12-17_12h28.16.823,2025C_exp1_detect,2022.2.4,59.80868398162138,
42.7,45,0,1,-1,0,0,160,160,44,305.11194250000017,305.11194250000017,305.6125812,305.6793050000001,305.7295572000003,305.7295572000003,305.7295572000003,305.7295572000003,305.7794670000003,305.7794670000003,305.7794670000003,305.7794670000003,305.7794670000003,305.7794670000003,305.7794670000003,305.7794670000003,305.7794670000003,305.7794670000003,num_3,1.0944471999996495,306.8970614,306.8970614,None,,5,001,2025-12-17_12h28.16.823,2025C_exp1_detect,2022.2.4,59.80868398162138,
15.7,315,1,1,-1,-1,0,161,161,208,306.8970614,306.8970614,307.39768500000037,307.4644277000002,307.51468190000014,307.51468190000014,307.51468190000014,307.51468190000014,307.56459670000004,307.56459670000004,307.56459670000004,307.56459670000004,307.56459670000004,307.56459670000004,307.56459670000004,307.56459670000004,307.56459670000004,307.56459670000004,num_3,1.2206246000000647,308.81587290000016,308.81587290000016,None,,5,001,2025-12-17_12h28.16.823,2025C_exp1_detect,2022.2.4,59.80868398162138,
12.1,45,0,0,1,-1,0,162,162,216,308.81587290000016,308.81587290000016,309.31618019999996,309.3830213000001,309.43324520000033,309.43324520000033,309.43324520000033,309.43324520000033,309.4831819000001,309.4831819000001,309.4831819000001,309.4831819000001,309.4831819000001,309.4831819000001,309.4831819000001,309.4831819000001,309.4831819000001,309.4831819000001,num_3,0.5337149999995745,310.0336563999999,310.0336563999999,None,,5,001,2025-12-17_12h28.16.823,2025C_exp1_detect,2022.2.4,59.80868398162138,
22.7,315,0,0,-1,1,0,163,163,300,310.0336563999999,310.0336563999999,310.5341705999999,310.6008846,310.65119830000003,310.65119830000003,310.65119830000003,310.65119830000003,310.70109760000014,310.70109760000014,310.70109760000014,310.70109760000014,310.70109760000014,310.70109760000014,310.70109760000014,310.70109760000014,310.70109760000014,310.70109760000014,num_3,0.5641802999998617,311.2847125000003,311.2847125000003,None,,5,001,2025-12-17_12h28.16.823,2025C_exp1_detect,2022.2.4,59.80868398162138,
35.3,315,0,1,-1,-1,0,164,164,195,311.2847125000003,311.2847125000003,311.7854261000002,311.8521396000001,311.9024850999999,311.9024850999999,311.9024850999999,311.9024850999999,311.95209730000033,311.95209730000033,311.95209730000033,311.95209730000033,311.95209730000033,311.95209730000033,311.95209730000033,311.95209730000033,311.95209730000033,311.95209730000033,num_3,0.9935268999993241,312.9700290999999,312.9700290999999,None,,5,001,2025-12-17_12h28.16.823,2025C_exp1_detect,2022.2.4,59.80868398162138,
22.7,45,1,0,1,-1,0,165,165,237,312.9700290999999,312.9700290999999,313.47030380000024,313.53714059999993,313.5876215000003,313.5876215000003,313.5876215000003,313.5876215000003,313.63735050000014,313.63735050000014,313.63735050000014,313.63735050000014,313.63735050000014,313.63735050000014,313.63735050000014,313.63735050000014,313.63735050000014,313.63735050000014,num_3,0.8190892999996322,314.48785720000024,314.48785720000024,None,,5,001,2025-12-17_12h28.16.823,2025C_exp1_detect,2022.2.4,59.80868398162138,
15.7,45,0,0,1,1,0,166,166,361,314.48785720000024,314.48785720000024,314.98864030000004,315.05541730000004,315.1055355000003,315.1055355000003,315.1055355000003,315.1055355000003,315.1555744000002,315.1555744000002,315.1555744000002,315.1555744000002,315.1555744000002,315.1555744000002,315.1555744000002,315.1555744000002,315.1555744000002,315.1555744000002,num_3,0.44627449999961755,315.6225396,315.6225396,None,,5,001,2025-12-17_12h28.16.823,2025C_exp1_detect,2022.2.4,59.80868398162138,
15.7,315,0,0,-1,-1,0,167,167,154,315.6225396,315.6225396,316.1230969000003,316.1898183000003,316.24024260000033,316.24024260000033,316.24024260000033,316.24024260000033,316.2899669000003,316.2899669000003,316.2899669000003,316.2899669000003,316.2899669000003,316.2899669000003,316.2899669000003,316.2899669000003,316.2899669000003,316.2899669000003,num_3,0.6479554999996253,316.95722650000016,316.95722650000016,None,,5,001,2025-12-17_12h28.16.823,2025C_exp1_detect,2022.2.4,59.80868398162138,
22.7,315,0,1,1,1,0,168,168,408,316.95722650000016,316.95722650000016,317.45776000000023,317.5243408000001,317.5747016,317.5747016,317.5747016,317.5747016,317.62462140000025,317.62462140000025,317.62462140000025,317.62462140000025,317.62462140000025,317.62462140000025,317.62462140000025,317.62462140000025,317.62462140000025,317.62462140000025,num_1,0.6487835999996605,318.2917408000003,318.2917408000003,None,,5,001,2025-12-17_12h28.16.823,2025C_exp1_detect,2022.2.4,59.80868398162138,
42.7,315,0,1,1,0,0,169,169,125,318.2917408000003,318.2917408000003,318.7923906000001,318.85916339999994,318.90940150000006,318.90940150000006,318.90940150000006,318.90940150000006,318.9593093000003,318.9593093000003,318.9593093000003,318.9593093000003,318.9593093000003,318.9593093000003,318.9593093000003,318.9593093000003,318.9593093000003,318.9593093000003,num_1,0.6658776999997826,319.64307830000007,319.64307830000007,None,,5,001,2025-12-17_12h28.16.823,2025C_exp1_detect,2022.2.4,59.80868398162138,
19.6,315,1,0,-1,-1,0,170,170,173,319.64307830000007,319.64307830000007,320.14374910000015,320.2104432000001,320.26065560000006,320.26065560000006,320.26065560000006,320.26065560000006,320.31063829999994,320.31063829999994,320.31063829999994,320.31063829999994,320.31063829999994,320.31063829999994,320.31063829999994,320.31063829999994,320.31063829999994,320.31063829999994,num_3,0.8584306999996443,321.19451700000036,321.19451700000036,None,,5,001,2025-12-17_12h28.16.823,2025C_exp1_detect,2022.2.4,59.80868398162138,
29.4,315,1,0,1,0,0,171,171,104,321.19451700000036,321.19451700000036,321.6949963000002,321.7617375,321.81214480000017,321.81214480000017,321.81214480000017,321.81214480000017,321.86211189999995,321.86211189999995,321.86211189999995,321.86211189999995,321.86211189999995,321.86211189999995,321.86211189999995,321.86211189999995,321.86211189999995,321.86211189999995,num_3,0.8271576999995887,322.7126648000003,322.7126648000003,None,,5,001,2025-12-17_12h28.16.823,2025C_exp1_detect,2022.2.4,59.80868398162138,
29.4,315,1,1,1,0,0,172,172,140,322.7126648000003,322.7126648000003,323.21318199999996,323.28002670000023,323.3304518,323.3304518,323.3304518,323.3304518,323.38029240000014,323.38029240000014,323.38029240000014,323.38029240000014,323.38029240000014,323.38029240000014,323.38029240000014,323.38029240000014,323.38029240000014,323.38029240000014,num_1,0.6688510999997561,324.08073719999993,324.08073719999993,None,,5,001,2025-12-17_12h28.16.823,2025C_exp1_detect,2022.2.4,59.80868398162138,
22.7,45,0,0,-1,0,0,173,173,3,324.08073719999993,324.08073719999993,324.58141509999996,324.6480213,324.6982522000003,324.6982522000003,324.6982522000003,324.6982522000003,324.74810479999996,324.74810479999996,324.74810479999996,324.74810479999996,324.74810479999996,324.74810479999996,324.74810479999996,324.74810479999996,324.74810479999996,324.74810479999996,num_3,0.6452313999998296,325.4157252,325.4157252,None,,5,001,2025-12-17_12h28.16.823,2025C_exp1_detect,2022.2.4,59.80868398162138,
15.7,315,0,0,-1,1,0,174,174,298,325.4157252,325.4157252,325.9162097000003,325.98263399999996,326.0329379,326.0329379,326.0329379,326.0329379,326.08306429999993,326.08306429999993,326.08306429999993,326.08306429999993,326.08306429999993,326.08306429999993,326.08306429999993,326.08306429999993,326.08306429999993,326.08306429999993,num_3,0.5022855999995954,326.6170327,326.6170327,None,,5,001,2025-12-17_12h28.16.823,2025C_exp1_detect,2022.2.4,59.80868398162138,
15.7,45,0,1,-1,0,0,175,175,37,326.6170327,326.6170327,327.1175519000003,327.18438330000026,327.2345690000002,327.2345690000002,327.2345690000002,327.2345690000002,327.2843120000002,327.2843120000002,327.2843120000002,327.2843120000002,327.2843120000002,327.2843120000002,327.2843120000002,327.2843120000002,327.2843120000002,327.2843120000002,num_3,0.6215452999999798,327.9347783000003,327.9347783000003,None,,5,001,2025-12-17_12h28.16.823,2025C_exp1_detect,2022.2.4,59.80868398162138,
19.6,315,0,0,1,-1,0,176,176,227,327.9347783000003,327.9347783000003,328.43536040000026,328.50210930000003,328.55225280000013,328.55225280000013,328.55225280000013,328.55225280000013,328.6022829000003,328.6022829000003,328.6022829000003,328.6022829000003,328.6022829000003,328.6022829000003,328.6022829000003,328.6022829000003,328.6022829000003,328.6022829000003,num_3,0.44636339999988195,329.0691833000001,329.0691833000001,None,,5,001,2025-12-17_12h28.16.823,2025C_exp1_detect,2022.2.4,59.80868398162138,
12.1,315,1,1,-1,-1,0,177,177,207,329.0691833000001,329.0691833000001,329.5699184,329.63637530000005,329.68687050000017,329.68687050000017,329.68687050000017,329.68687050000017,329.7366151000001,329.7366151000001,329.7366151000001,329.7366151000001,329.7366151000001,329.7366151000001,329.7366151000001,329.7366151000001,329.7366151000001,329.7366151000001,num_3,0.8330771999999342,330.5873770000003,330.5873770000003,None,,5,001,2025-12-17_12h28.16.823,2025C_exp1_detect,2022.2.4,59.80868398162138,
35.3,45,1,0,-1,-1,0,178,178,168,330.5873770000003,330.5873770000003,331.0878835000003,331.1547547,331.2050663,331.2050663,331.2050663,331.2050663,331.25492600000007,331.25492600000007,331.25492600000007,331.25492600000007,331.25492600000007,331.25492600000007,331.25492600000007,331.25492600000007,331.25492600000007,331.25492600000007,num_1,0.5944449999997232,331.87216119999994,331.87216119999994,None,,5,001,2025-12-17_12h28.16.823,2025C_exp1_detect,2022.2.4,59.80868398162138,
25.5,45,0,0,-1,1,0,179,179,292,331.87216119999994,331.87216119999994,332.37270350000017,332.4393808,332.48970850000023,332.48970850000023,332.48970850000023,332.48970850000023,332.53955540000015,332.53955540000015,332.53955540000015,332.53955540000015,332.53955540000015,332.53955540000015,332.53955540000015,332.53955540000015,332.53955540000015,332.53955540000015,num_3,0.6128796999996666,333.1733081000002,333.1733081000002,None,,5,001,2025-12-17_12h28.16.823,2025C_exp1_detect,2022.2.4,59.80868398162138,
22.7,45,1,1,1,0,0,180,180,129,333.1733081000002,333.1733081000002,333.67385230000036,333.74071170000025,333.7909572000003,333.7909572000003,333.7909572000003,333.7909572000003,333.84085240000013,333.84085240000013,333.84085240000013,333.84085240000013,333.84085240000013,333.84085240000013,333.84085240000013,333.84085240000013,333.84085240000013,333.84085240000013,num_1,0.5844302999994397,334.4580513000001,334.4580513000001,None,,5,001,2025-12-17_12h28.16.823,2025C_exp1_detect,2022.2.4,59.80868398162138,
25.5,45,1,0,-1,0,0,181,181,22,334.4580513000001,334.4580513000001,334.95862220000026,335.0251956000002,335.0755303000001,335.0755303000001,335.0755303000001,335.0755303000001,335.1254162,335.1254162,335.1254162,335.1254162,335.1254162,335.1254162,335.1254162,335.1254162,335.1254162,335.1254162,num_1,0.6995277999994869,335.8425523000001,335.8425523000001,None,,5,001,2025-12-17_12h28.16.823,2025C_exp1_detect,2022.2.4,59.80868398162138,
15.7,315,0,0,1,-1,0,182,182,226,335.8425523000001,335.8425523000001,336.34334320000016,336.41006080000034,336.4604208999999,336.4604208999999,336.4604208999999,336.4604208999999,336.51024780000034,336.51024780000034,336.51024780000034,336.51024780000034,336.51024780000034,336.51024780000034,336.51024780000034,336.51024780000034,336.51024780000034,336.51024780000034,num_3,0.7542459999995117,337.29392469999993,337.29392469999993,None,,5,001,2025-12-17_12h28.16.823,2025C_exp1_detect,2022.2.4,59.80868398162138,
35.3,45,1,1,-1,1,0,183,183,348,337.29392469999993,337.29392469999993,337.79447310000023,337.86155210000015,337.9117394,337.9117394,337.9117394,337.9117394,337.9616027000002,337.9616027000002,337.9616027000002,337.9616027000002,337.9616027000002,337.9616027000002,337.9616027000002,337.9616027000002,337.9616027000002,337.9616027000002,num_1,0.542979099999684,338.5286782000003,338.5286782000003,None,,5,001,2025-12-17_12h28.16.823,2025C_exp1_detect,2022.2.4,59.80868398162138,
22.7,45,1,1,1,1,0,184,184,417,338.5286782000003,338.5286782000003,339.0293068000001,339.09605520000014,339.1462630000001,339.1462630000001,339.1462630000001,339.1462630000001,339.1962026000001,339.1962026000001,339.1962026000001,339.1962026000001,339.1962026000001,339.1962026000001,339.1962026000001,339.1962026000001,339.1962026000001,339.1962026000001,num_1,0.6770563999998558,339.8966948000002,339.8966948000002,None,,5,001,2025-12-17_12h28.16.823,2025C_exp1_detect,2022.2.4,59.80868398162138,
15.7,315,0,1,1,0,0,185,185,118,339.8966948000002,339.8966948000002,340.39722359999996,340.4639588,340.51436490000015,340.51436490000015,340.51436490000015,340.51436490000015,340.56407949999993,340.56407949999993,340.56407949999993,340.56407949999993,340.56407949999993,340.56407949999993,340.56407949999993,340.56407949999993,340.56407949999993,340.56407949999993,num_1,0.5249794999999722,341.1146831000001,341.1146831000001,None,,5,001,2025-12-17_12h28.16.823,2025C_exp1_detect,2022.2.4,59.80868398162138,
35.3,315,1,0,1,0,0,186,186,105,341.1146831000001,341.1146831000001,341.6153475000001,341.6818653,341.7322016000003,341.7322016000003,341.7322016000003,341.7322016000003,341.7820660000002,341.7820660000002,341.7820660000002,341.7820660000002,341.7820660000002,341.7820660000002,341.7820660000002,341.7820660000002,341.7820660000002,341.7820660000002,num_3,0.6996347999997852,342.4993893000001,342.4993893000001,None,,5,001,2025-12-17_12h28.16.823,2025C_exp1_detect,2022.2.4,59.80868398162138,
12.1,315,0,1,1,1,0,187,187,405,342.4993893000001,342.4993893000001,342.99985560000005,343.06665820000035,343.1169514000003,343.1169514000003,343.1169514000003,343.1169514000003,343.1668093000003,343.1668093000003,343.1668093000003,343.1668093000003,343.1668093000003,343.1668093000003,343.1668093000003,343.1668093000003,343.1668093000003,343.1668093000003,num_1,0.8979682999997749,344.0842055000003,344.0842055000003,None,,5,001,2025-12-17_12h28.16.823,2025C_exp1_detect,2022.2.4,59.80868398162138,
39.2,45,1,1,-1,-1,0,188,188,205,344.0842055000003,344.0842055000003,344.58484420000013,344.6515466999999,344.7018485000003,344.7018485000003,344.7018485000003,344.7018485000003,344.75159329999997,344.75159329999997,344.75159329999997,344.75159329999997,344.75159329999997,344.75159329999997,344.75159329999997,344.75159329999997,344.75159329999997,344.75159329999997,num_1,1.0657463999996253,345.83609190000016,345.83609190000016,None,,5,001,2025-12-17_12h28.16.823,2025C_exp1_detect,2022.2.4,59.80868398162138,
25.5,45,0,1,-1,0,0,189,189,40,345.83609190000016,345.83609190000016,346.336867,346.40356539999993,346.4538660000003,346.4538660000003,346.4538660000003,346.4538660000003,346.50359960000014,346.50359960000014,346.50359960000014,346.50359960000014,346.50359960000014,346.50359960000014,346.50359960000014,346.50359960000014,346.50359960000014,346.50359960000014,num_3,0.6736456999997245,347.20424200000025,347.20424200000025,None,,5,001,2025-12-17_12h28.16.823,2025C_exp1_detect,2022.2.4,59.80868398162138,
39.2,315,0,0,-1,-1,0,190,190,160,347.20424200000025,347.20424200000025,347.70435180000004,347.771424,347.8217536000002,347.8217536000002,347.8217536000002,347.8217536000002,347.8716118000002,347.8716118000002,347.8716118000002,347.8716118000002,347.8716118000002,347.8716118000002,347.8716118000002,347.8716118000002,347.8716118000002,347.8716118000002,num_3,0.8168078999997306,348.7055498,348.7055498,None,,5,001,2025-12-17_12h28.16.823,2025C_exp1_detect,2022.2.4,59.80868398162138,
39.2,315,1,0,1,1,0,191,191,394,348.7055498,348.7055498,349.20612530000017,349.27300570000034,349.3232769000001,349.3232769000001,349.3232769000001,349.3232769000001,349.37306720000015,349.37306720000015,349.37306720000015,349.37306720000015,349.37306720000015,349.37306720000015,349.37306720000015,349.37306720000015,349.37306720000015,349.37306720000015,num_3,0.9407446999994136,350.3405964000003,350.3405964000003,None,,5,001,2025-12-17_12h28.16.823,2025C_exp1_detect,2022.2.4,59.80868398162138,
25.5,45,1,1,-1,0,0,192,192,58,350.3405964000003,350.3405964000003,350.84078100000033,350.90751520000003,350.95779519999996,350.95779519999996,350.95779519999996,350.95779519999996,351.0076825000001,351.0076825000001,351.0076825000001,351.0076825000001,351.0076825000001,351.0076825000001,351.0076825000001,351.0076825000001,351.0076825000001,351.0076825000001,num_1,0.8094853999996303,351.8418812,351.8418812,None,,5,001,2025-12-17_12h28.16.823,2025C_exp1_detect,2022.2.4,59.80868398162138,
42.7,315,1,1,1,1,0,193,193,431,351.8418812,351.8418812,352.3424385000003,352.4090276000002,352.4593232000002,352.4593232000002,352.4593232000002,352.4593232000002,352.50926610000033,352.50926610000033,352.50926610000033,352.50926610000033,352.50926610000033,352.50926610000033,352.50926610000033,352.50926610000033,352.50926610000033,352.50926610000033,num_1,1.1870957999999519,353.7270986000003,353.7270986000003,None,,5,001,2025-12-17_12h28.16.823,2025C_exp1_detect,2022.2.4,59.80868398162138,
12.1,45,0,1,-1,-1,0,194,194,180,353.7270986000003,353.7270986000003,354.22790650000024,354.2942429,354.3445977000001,354.3445977000001,354.3445977000001,354.3445977000001,354.3944053,354.3944053,354.3944053,354.3944053,354.3944053,354.3944053,354.3944053,354.3944053,354.3944053,354.3944053,num_3,0.69471859999976,355.111719,355.111719,None,,5,001,2025-12-17_12h28.16.823,2025C_exp1_detect,2022.2.4,59.80868398162138,
42.7,45,1,1,1,0,0,195,195,134,355.111719,355.111719,355.6124874000002,355.67923610000025,355.7295759000003,355.7295759000003,355.7295759000003,355.7295759000003,355.779626,355.779626,355.779626,355.779626,355.779626,355.779626,355.779626,355.779626,355.779626,355.779626,num_1,1.1975938999999016,356.99724779999997,356.99724779999997,None,,5,001,2025-12-17_12h28.16.823,2025C_exp1_detect,2022.2.4,59.80868398162138,
25.5,315,0,0,-1,1,0,196,196,301,356.99724779999997,356.99724779999997,357.49798310000006,357.5647048999999,357.61498370000027,357.61498370000027,357.61498370000027,357.61498370000027,357.6648336000003,357.6648336000003,357.6648336000003,357.6648336000003,357.6648336000003,357.6648336000003,357.6648336000003,357.6648336000003,357.6648336000003,357.6648336000003,num_3,1.2960333999994873,358.98268910000024,358.98268910000024,None,,5,001,2025-12-17_12h28.16.823,2025C_exp1_detect,2022.2.4,59.80868398162138,
12.1,315,1,1,1,1,0,197,197,423,358.98268910000024,358.98268910000024,359.48295959999996,359.5496697000003,359.6000455000003,359.6000455000003,359.6000455000003,359.6000455000003,359.6499758,359.6499758,359.6499758,359.6499758,359.6499758,359.6499758,359.6499758,359.6499758,359.6499758,359.6499758,num_1,0.7426119999995535,360.4173359000001,360.4173359000001,None,,5,001,2025-12-17_12h28.16.823,2025C_exp1_detect,2022.2.4,59.80868398162138,
15.7,45,1,1,1,0,0,198,198,127,360.4173359000001,360.4173359000001,360.9177946,360.9845413000003,361.0349000000001,361.0349000000001,361.0349000000001,361.0349000000001,361.0847517000002,361.0847517000002,361.0847517000002,361.0847517000002,361.0847517000002,361.0847517000002,361.0847517000002,361.0847517000002,361.0847517000002,361.0847517000002,num_1,0.7240080999995371,361.83537650000017,361.83537650000017,None,,5,001,2025-12-17_12h28.16.823,2025C_exp1_detect,2022.2.4,59.80868398162138,
