contrast,ori,lefttarget,righttarget,postcue,precue,trials.thisRepN,trials.thisTrialN,trials.thisN,trials.thisIndex,fix1.started,fix2.started,precue_2.started,precue_2.stopped,left_grating.started,right_grating.started,noise_left.started,noise_right.started,fix1.stopped,fix2.stopped,left_grating.stopped,right_grating.stopped,noise_left.stopped,noise_right.stopped,key_resp.started,postcue_2.started,fix1_2.started,fix2_2.started,key_resp.keys,key_resp.rt,key_resp_2.started,break_text_2.started,key_resp_2.keys,key_resp_2.rt,participant,session,date,expName,psychopyVersion,frameRate,
12.1,45,1,0,-1,1,0,0,0,306,17.801460200000292,17.801460200000292,18.284395100000438,18.351259500000197,18.41404060000059,18.41404060000059,18.41404060000059,18.41404060000059,18.451168999999936,18.451168999999936,18.451168999999936,18.451168999999936,18.451168999999936,18.451168999999936,18.451168999999936,18.451168999999936,18.451168999999936,18.451168999999936,num_3,7.120164500000101,25.591853699999774,25.591853699999774,None,,6,001,2025-12-17_13h50.36.513,2025C_exp1_detect,2022.2.4,59.923226362248805,
42.7,315,1,0,-1,-1,0,1,1,179,25.591853699999774,25.591853699999774,26.09239020000041,26.15910260000055,26.209414699999797,26.209414699999797,26.209414699999797,26.209414699999797,26.25918989999991,26.25918989999991,26.25918989999991,26.25918989999991,26.25918989999991,26.25918989999991,26.25918989999991,26.25918989999991,26.25918989999991,26.25918989999991,num_1,0.9836256999997204,27.260445599999912,27.260445599999912,None,,6,001,2025-12-17_13h50.36.513,2025C_exp1_detect,2022.2.4,59.923226362248805,
25.5,45,1,1,-1,-1,0,2,2,202,27.260445599999912,27.260445599999912,27.760754500000075,27.827177400000437,27.87781030000042,27.87781030000042,27.87781030000042,27.87781030000042,27.927731400000084,27.927731400000084,27.927731400000084,27.927731400000084,27.927731400000084,27.927731400000084,27.927731400000084,27.927731400000084,27.927731400000084,27.927731400000084,num_1,0.8117075999989538,28.761750900000152,28.761750900000152,None,,6,001,2025-12-17_13h50.36.513,2025C_exp1_detect,2022.2.4,59.923226362248805,
15.7,45,1,1,-1,0,0,3,3,55,28.761750900000152,28.761750900000152,29.262248400000317,29.328841100000318,29.379266599999937,29.379266599999937,29.379266599999937,29.379266599999937,29.428959800000484,29.428959800000484,29.428959800000484,29.428959800000484,29.428959800000484,29.428959800000484,29.428959800000484,29.428959800000484,29.428959800000484,29.428959800000484,num_1,1.1419951999996556,30.596555900000567,30.596555900000567,None,,6,001,2025-12-17_13h50.36.513,2025C_exp1_detect,2022.2.4,59.923226362248805,
12.1,315,0,1,-1,1,0,4,4,333,30.596555900000567,30.596555900000567,31.09708219999993,31.163902100000087,31.214614299999994,31.214614299999994,31.214614299999994,31.214614299999994,31.264062000000195,31.264062000000195,31.264062000000195,31.264062000000195,31.264062000000195,31.264062000000195,31.264062000000195,31.264062000000195,31.264062000000195,31.264062000000195,num_3,3.626956799999789,34.91788910000014,34.91788910000014,None,,6,001,2025-12-17_13h50.36.513,2025C_exp1_detect,2022.2.4,59.923226362248805,
35.3,45,1,0,1,0,0,5,5,96,34.91788910000014,34.91788910000014,35.4183479000003,35.48507320000044,35.535459300000184,35.535459300000184,35.535459300000184,35.535459300000184,35.585230100000445,35.585230100000445,35.585230100000445,35.585230100000445,35.585230100000445,35.585230100000445,35.585230100000445,35.585230100000445,35.585230100000445,35.585230100000445,num_3,1.2980416999998852,36.902943300000516,36.902943300000516,None,,6,001,2025-12-17_13h50.36.513,2025C_exp1_detect,2022.2.4,59.923226362248805,
35.3,315,0,1,-1,0,0,6,6,51,36.902943300000516,36.902943300000516,37.40384450000056,37.470528800000466,37.5207362000001,37.5207362000001,37.5207362000001,37.5207362000001,37.57059490000029,37.57059490000029,37.57059490000029,37.57059490000029,37.57059490000029,37.57059490000029,37.57059490000029,37.57059490000029,37.57059490000029,37.57059490000029,num_1,1.007587699999931,38.60463789999994,38.60463789999994,None,,6,001,2025-12-17_13h50.36.513,2025C_exp1_detect,2022.2.4,59.923226362248805,
29.4,315,1,0,-1,0,0,7,7,32,38.60463789999994,38.60463789999994,39.10529180000049,39.17203830000017,39.22244260000025,39.22244260000025,39.22244260000025,39.22244260000025,39.27227270000003,39.27227270000003,39.27227270000003,39.27227270000003,39.27227270000003,39.27227270000003,39.27227270000003,39.27227270000003,39.27227270000003,39.27227270000003,num_1,39.514565099999345,78.8115287999999,78.8115287999999,None,,6,001,2025-12-17_13h50.36.513,2025C_exp1_detect,2022.2.4,59.923226362248805,
19.6,315,1,0,1,0,0,8,8,101,78.8115287999999,78.8115287999999,79.3122301000003,79.37893799999983,79.42908760000046,79.42908760000046,79.42908760000046,79.42908760000046,79.47909750000053,79.47909750000053,79.47909750000053,79.47909750000053,79.47909750000053,79.47909750000053,79.47909750000053,79.47909750000053,79.47909750000053,79.47909750000053,num_3,1.9230298000002222,81.43071940000027,81.43071940000027,None,,6,001,2025-12-17_13h50.36.513,2025C_exp1_detect,2022.2.4,59.923226362248805,
39.2,45,0,0,-1,1,0,9,9,295,81.43071940000027,81.43071940000027,81.93149630000062,81.99820100000034,82.04848959999981,82.04848959999981,82.04848959999981,82.04848959999981,82.09839069999998,82.09839069999998,82.09839069999998,82.09839069999998,82.09839069999998,82.09839069999998,82.09839069999998,82.09839069999998,82.09839069999998,82.09839069999998,num_3,1.6561780999991242,83.78313369999978,83.78313369999978,None,,6,001,2025-12-17_13h50.36.513,2025C_exp1_detect,2022.2.4,59.923226362248805,
35.3,315,1,0,1,1,0,10,10,393,83.78313369999978,83.78313369999978,84.28390750000017,84.35071849999986,84.4008988000005,84.4008988000005,84.4008988000005,84.4008988000005,84.45071980000012,84.45071980000012,84.45071980000012,84.45071980000012,84.45071980000012,84.45071980000012,84.45071980000012,84.45071980000012,84.45071980000012,84.45071980000012,num_3,2.2314589999996315,86.7027149000005,86.7027149000005,None,,6,001,2025-12-17_13h50.36.513,2025C_exp1_detect,2022.2.4,59.923226362248805,
15.7,315,0,1,-1,-1,0,11,11,190,86.7027149000005,86.7027149000005,87.20345020000059,87.2700691,87.32039500000064,87.32039500000064,87.32039500000064,87.32039500000064,87.37034959999983,87.37034959999983,87.37034959999983,87.37034959999983,87.37034959999983,87.37034959999983,87.37034959999983,87.37034959999983,87.37034959999983,87.37034959999983,num_3,1.1613281999998435,88.55475370000022,88.55475370000022,None,,6,001,2025-12-17_13h50.36.513,2025C_exp1_detect,2022.2.4,59.923226362248805,
35.3,315,0,1,1,-1,0,12,12,267,88.55475370000022,88.55475370000022,89.05527549999988,89.12200350000057,89.1723007999999,89.1723007999999,89.1723007999999,89.1723007999999,89.22215680000045,89.22215680000045,89.22215680000045,89.22215680000045,89.22215680000045,89.22215680000045,89.22215680000045,89.22215680000045,89.22215680000045,89.22215680000045,num_1,1.2119700999992347,90.45634820000032,90.45634820000032,None,,6,001,2025-12-17_13h50.36.513,2025C_exp1_detect,2022.2.4,59.923226362248805,
19.6,45,0,0,1,1,0,13,13,362,90.45634820000032,90.45634820000032,90.95699070000046,91.02379060000021,91.0739024000004,91.0739024000004,91.0739024000004,91.0739024000004,91.12379130000045,91.12379130000045,91.12379130000045,91.12379130000045,91.12379130000045,91.12379130000045,91.12379130000045,91.12379130000045,91.12379130000045,91.12379130000045,num_1,1.7273084999997081,92.8758286000002,92.8758286000002,None,,6,001,2025-12-17_13h50.36.513,2025C_exp1_detect,2022.2.4,59.923226362248805,
39.2,45,1,1,-1,1,0,14,14,349,92.8758286000002,92.8758286000002,93.37635450000016,93.4430610999998,93.49334400000043,93.49334400000043,93.49334400000043,93.49334400000043,93.54318599999988,93.54318599999988,93.54318599999988,93.54318599999988,93.54318599999988,93.54318599999988,93.54318599999988,93.54318599999988,93.54318599999988,93.54318599999988,num_1,1.4518582999999126,95.02793910000037,95.02793910000037,None,,6,001,2025-12-17_13h50.36.513,2025C_exp1_detect,2022.2.4,59.923226362248805,
35.3,45,1,1,-1,-1,0,15,15,204,95.02793910000037,95.02793910000037,95.52851569999984,95.59505069999977,95.64540029999989,95.64540029999989,95.64540029999989,95.64540029999989,95.69521570000052,95.69521570000052,95.69521570000052,95.69521570000052,95.69521570000052,95.69521570000052,95.69521570000052,95.69521570000052,95.69521570000052,95.69521570000052,num_3,0.9870690999996441,96.71270139999979,96.71270139999979,None,,6,001,2025-12-17_13h50.36.513,2025C_exp1_detect,2022.2.4,59.923226362248805,
12.1,45,0,0,1,0,0,16,16,72,96.71270139999979,96.71270139999979,97.21337790000052,97.28017610000006,97.33069630000045,97.33069630000045,97.33069630000045,97.33069630000045,97.38055660000009,97.38055660000009,97.38055660000009,97.38055660000009,97.38055660000009,97.38055660000009,97.38055660000009,97.38055660000009,97.38055660000009,97.38055660000009,num_1,1.5180212999994183,98.9148866000005,98.9148866000005,None,,6,001,2025-12-17_13h50.36.513,2025C_exp1_detect,2022.2.4,59.923226362248805,
12.1,315,0,0,-1,-1,0,17,17,153,98.9148866000005,98.9148866000005,99.41550569999981,99.4824950000002,99.53284919999987,99.53284919999987,99.53284919999987,99.53284919999987,99.5825074000004,99.5825074000004,99.5825074000004,99.5825074000004,99.5825074000004,99.5825074000004,99.5825074000004,99.5825074000004,99.5825074000004,99.5825074000004,num_1,0.8360706999992544,100.44986490000065,100.44986490000065,None,,6,001,2025-12-17_13h50.36.513,2025C_exp1_detect,2022.2.4,59.923226362248805,
15.7,45,1,0,1,-1,0,18,18,235,100.44986490000065,100.44986490000065,100.95048760000009,101.01719469999989,101.06753089999984,101.06753089999984,101.06753089999984,101.06753089999984,101.11739209999996,101.11739209999996,101.11739209999996,101.11739209999996,101.11739209999996,101.11739209999996,101.11739209999996,101.11739209999996,101.11739209999996,101.11739209999996,num_3,0.8772582999990846,102.01792790000036,102.01792790000036,None,,6,001,2025-12-17_13h50.36.513,2025C_exp1_detect,2022.2.4,59.923226362248805,
42.7,315,1,1,1,0,0,19,19,143,102.01792790000036,102.01792790000036,102.5187233000006,102.5855730000003,102.63551000000007,102.63551000000007,102.63551000000007,102.63551000000007,102.68576519999988,102.68576519999988,102.68576519999988,102.68576519999988,102.68576519999988,102.68576519999988,102.68576519999988,102.68576519999988,102.68576519999988,102.68576519999988,num_3,2.22877569999946,104.93799820000004,104.93799820000004,None,,6,001,2025-12-17_13h50.36.513,2025C_exp1_detect,2022.2.4,59.923226362248805,
25.5,315,0,0,-1,-1,0,20,20,157,104.93799820000004,104.93799820000004,105.43833360000008,105.50506320000022,105.55519120000008,105.55519120000008,105.55519120000008,105.55519120000008,105.60519620000014,105.60519620000014,105.60519620000014,105.60519620000014,105.60519620000014,105.60519620000014,105.60519620000014,105.60519620000014,105.60519620000014,105.60519620000014,num_1,0.8853767999989941,106.52273960000002,106.52273960000002,None,,6,001,2025-12-17_13h50.36.513,2025C_exp1_detect,2022.2.4,59.923226362248805,
22.7,45,0,1,-1,-1,0,21,21,183,106.52273960000002,106.52273960000002,107.02303860000029,107.08987590000015,107.14026310000008,107.14026310000008,107.14026310000008,107.14026310000008,107.19012209999983,107.19012209999983,107.19012209999983,107.19012209999983,107.19012209999983,107.19012209999983,107.19012209999983,107.19012209999983,107.19012209999983,107.19012209999983,num_3,0.8451977999993687,108.05730099999982,108.05730099999982,None,,6,001,2025-12-17_13h50.36.513,2025C_exp1_detect,2022.2.4,59.923226362248805,
19.6,315,0,1,-1,0,0,22,22,47,108.05730099999982,108.05730099999982,108.55791260000024,108.62480250000044,108.6749719999998,108.6749719999998,108.6749719999998,108.6749719999998,108.72500360000049,108.72500360000049,108.72500360000049,108.72500360000049,108.72500360000049,108.72500360000049,108.72500360000049,108.72500360000049,108.72500360000049,108.72500360000049,num_3,0.9812391999994361,109.7256852999999,109.7256852999999,None,,6,001,2025-12-17_13h50.36.513,2025C_exp1_detect,2022.2.4,59.923226362248805,
25.5,315,1,1,-1,-1,0,23,23,211,109.7256852999999,109.7256852999999,110.22642330000053,110.29310040000018,110.34342819999983,110.34342819999983,110.34342819999983,110.34342819999983,110.39329240000006,110.39329240000006,110.39329240000006,110.39329240000006,110.39329240000006,110.39329240000006,110.39329240000006,110.39329240000006,110.39329240000006,110.39329240000006,num_1,0.6808063999997103,111.0937087000002,111.0937087000002,None,,6,001,2025-12-17_13h50.36.513,2025C_exp1_detect,2022.2.4,59.923226362248805,
12.1,45,1,1,-1,0,0,24,24,54,111.0937087000002,111.0937087000002,111.59431910000058,111.66119919999983,111.71142250000048,111.71142250000048,111.71142250000048,111.71142250000048,111.76133329999993,111.76133329999993,111.76133329999993,111.76133329999993,111.76133329999993,111.76133329999993,111.76133329999993,111.76133329999993,111.76133329999993,111.76133329999993,num_1,0.6893221999989692,112.47841580000022,112.47841580000022,None,,6,001,2025-12-17_13h50.36.513,2025C_exp1_detect,2022.2.4,59.923226362248805,
25.5,45,0,0,-1,-1,0,25,25,148,112.47841580000022,112.47841580000022,112.97905760000049,113.04599940000026,113.09621010000046,113.09621010000046,113.09621010000046,113.09621010000046,113.14592730000004,113.14592730000004,113.14592730000004,113.14592730000004,113.14592730000004,113.14592730000004,113.14592730000004,113.14592730000004,113.14592730000004,113.14592730000004,num_1,0.7773846000000049,113.94657490000009,113.94657490000009,None,,6,001,2025-12-17_13h50.36.513,2025C_exp1_detect,2022.2.4,59.923226362248805,
29.4,315,0,0,1,1,0,26,26,374,113.94657490000009,113.94657490000009,114.44734100000005,114.51403530000061,114.5644886,114.5644886,114.5644886,114.5644886,114.61433300000044,114.61433300000044,114.61433300000044,114.61433300000044,114.61433300000044,114.61433300000044,114.61433300000044,114.61433300000044,114.61433300000044,114.61433300000044,num_3,0.8677161999994496,115.49827879999975,115.49827879999975,None,,6,001,2025-12-17_13h50.36.513,2025C_exp1_detect,2022.2.4,59.923226362248805,
29.4,45,0,0,-1,-1,0,27,27,149,115.49827879999975,115.49827879999975,115.99880530000064,116.06553910000002,116.11592480000036,116.11592480000036,116.11592480000036,116.11592480000036,116.16579390000061,116.16579390000061,116.16579390000061,116.16579390000061,116.16579390000061,116.16579390000061,116.16579390000061,116.16579390000061,116.16579390000061,116.16579390000061,num_1,0.8289649999987887,117.01630190000014,117.01630190000014,None,,6,001,2025-12-17_13h50.36.513,2025C_exp1_detect,2022.2.4,59.923226362248805,
22.7,45,1,0,1,0,0,28,28,93,117.01630190000014,117.01630190000014,117.51702440000008,117.58373709999978,117.63390309999977,117.63390309999977,117.63390309999977,117.63390309999977,117.68384520000018,117.68384520000018,117.68384520000018,117.68384520000018,117.68384520000018,117.68384520000018,117.68384520000018,117.68384520000018,117.68384520000018,117.68384520000018,num_3,0.9437886999994589,118.65141820000008,118.65141820000008,None,,6,001,2025-12-17_13h50.36.513,2025C_exp1_detect,2022.2.4,59.923226362248805,
42.7,315,0,1,-1,1,0,29,29,341,118.65141820000008,118.65141820000008,119.15171310000005,119.2187358000001,119.26888370000052,119.26888370000052,119.26888370000052,119.26888370000052,119.31871980000051,119.31871980000051,119.31871980000051,119.31871980000051,119.31871980000051,119.31871980000051,119.31871980000051,119.31871980000051,119.31871980000051,119.31871980000051,num_3,1.3632394999995086,120.70322889999989,120.70322889999989,None,,6,001,2025-12-17_13h50.36.513,2025C_exp1_detect,2022.2.4,59.923226362248805,
25.5,45,1,1,1,1,0,30,30,418,120.70322889999989,120.70322889999989,121.20378510000046,121.27047940000011,121.32076610000058,121.32076610000058,121.32076610000058,121.32076610000058,121.37071960000048,121.37071960000048,121.37071960000048,121.37071960000048,121.37071960000048,121.37071960000048,121.37071960000048,121.37071960000048,121.37071960000048,121.37071960000048,num_1,0.7200605999996696,122.12151200000062,122.12151200000062,None,,6,001,2025-12-17_13h50.36.513,2025C_exp1_detect,2022.2.4,59.923226362248805,
12.1,315,1,1,1,0,0,31,31,135,122.12151200000062,122.12151200000062,122.62195229999998,122.68891480000002,122.73928849999993,122.73928849999993,122.73928849999993,122.73928849999993,122.78913170000033,122.78913170000033,122.78913170000033,122.78913170000033,122.78913170000033,122.78913170000033,122.78913170000033,122.78913170000033,122.78913170000033,122.78913170000033,num_1,0.8459919999995691,123.65624519999983,123.65624519999983,None,,6,001,2025-12-17_13h50.36.513,2025C_exp1_detect,2022.2.4,59.923226362248805,
29.4,315,0,1,1,-1,0,32,32,266,123.65624519999983,123.65624519999983,124.15705290000096,124.22366950000014,124.27405350000026,124.27405350000026,124.27405350000026,124.27405350000026,124.32385710000108,124.32385710000108,124.32385710000108,124.32385710000108,124.32385710000108,124.32385710000108,124.32385710000108,124.32385710000108,124.32385710000108,124.32385710000108,num_1,0.7426170999997339,125.09101959999953,125.09101959999953,None,,6,001,2025-12-17_13h50.36.513,2025C_exp1_detect,2022.2.4,59.923226362248805,
22.7,45,1,1,1,1,0,33,33,417,125.09101959999953,125.09101959999953,125.59177399999953,125.65848959999948,125.70873080000001,125.70873080000001,125.70873080000001,125.70873080000001,125.75865939999949,125.75865939999949,125.75865939999949,125.75865939999949,125.75865939999949,125.75865939999949,125.75865939999949,125.75865939999949,125.75865939999949,125.75865939999949,num_3,0.844415199998366,126.6259441000011,126.6259441000011,None,,6,001,2025-12-17_13h50.36.513,2025C_exp1_detect,2022.2.4,59.923226362248805,
15.7,45,0,1,-1,1,0,34,34,325,126.6259441000011,126.6259441000011,127.12662879999971,127.19339040000068,127.24367110000003,127.24367110000003,127.24367110000003,127.24367110000003,127.29350480000085,127.29350480000085,127.29350480000085,127.29350480000085,127.29350480000085,127.29350480000085,127.29350480000085,127.29350480000085,127.29350480000085,127.29350480000085,num_3,0.8210361999981615,128.1441707999993,128.1441707999993,None,,6,001,2025-12-17_13h50.36.513,2025C_exp1_detect,2022.2.4,59.923226362248805,
19.6,45,0,0,-1,-1,0,35,35,146,128.1441707999993,128.1441707999993,128.6447016000011,128.71143240000038,128.761826500001,128.761826500001,128.761826500001,128.761826500001,128.81146239999998,128.81146239999998,128.81146239999998,128.81146239999998,128.81146239999998,128.81146239999998,128.81146239999998,128.81146239999998,128.81146239999998,128.81146239999998,num_3,1.2641558999994231,130.1204131000004,130.1204131000004,None,,6,001,2025-12-17_13h50.36.513,2025C_exp1_detect,2022.2.4,59.923226362248805,
15.7,315,0,1,-1,0,0,36,36,46,130.1204131000004,130.1204131000004,130.59696060000078,130.66350970000076,130.71394319999945,130.71394319999945,130.71394319999945,130.71394319999945,130.76366510000025,130.76366510000025,130.76366510000025,130.76366510000025,130.76366510000025,130.76366510000025,130.79721080000036,130.79721080000036,130.79721080000036,130.79721080000036,num_3,0.68514629999936,131.5143409000002,131.5143409000002,None,,6,001,2025-12-17_13h50.36.513,2025C_exp1_detect,2022.2.4,59.923226362248805,
12.1,315,0,1,1,0,0,37,37,117,131.5143409000002,131.5143409000002,132.0151453999997,132.08187219999945,132.13214620000053,132.13214620000053,132.13214620000053,132.13214620000053,132.18178030000036,132.18178030000036,132.18178030000036,132.18178030000036,132.18178030000036,132.18178030000036,132.18178030000036,132.18178030000036,132.18178030000036,132.18178030000036,num_1,1.2770592000006218,133.48300860000109,133.48300860000109,None,,6,001,2025-12-17_13h50.36.513,2025C_exp1_detect,2022.2.4,59.923226362248805,
19.6,45,1,0,1,0,0,38,38,92,133.48300860000109,133.48300860000109,133.98346589999983,134.05020710000008,134.10051280000062,134.10051280000062,134.10051280000062,134.10051280000062,134.1503791999994,134.1503791999994,134.1503791999994,134.1503791999994,134.1503791999994,134.1503791999994,134.1503791999994,134.1503791999994,134.1503791999994,134.1503791999994,num_3,2.3795851000004404,136.55270210000072,136.55270210000072,None,,6,001,2025-12-17_13h50.36.513,2025C_exp1_detect,2022.2.4,59.923226362248805,
35.3,45,1,0,-1,-1,0,39,39,168,136.55270210000072,136.55270210000072,137.05315220000102,137.11996780000027,137.17028599999958,137.17028599999958,137.17028599999958,137.17028599999958,137.2200703999997,137.2200703999997,137.2200703999997,137.2200703999997,137.2200703999997,137.2200703999997,137.2200703999997,137.2200703999997,137.2200703999997,137.2200703999997,num_1,0.6632103000001734,137.90387920000012,137.90387920000012,None,,6,001,2025-12-17_13h50.36.513,2025C_exp1_detect,2022.2.4,59.923226362248805,
22.7,315,1,0,-1,1,0,40,40,318,137.90387920000012,137.90387920000012,138.40468249999958,138.4713569000005,138.52159739999934,138.52159739999934,138.52159739999934,138.52159739999934,138.57152080000105,138.57152080000105,138.57152080000105,138.57152080000105,138.57152080000105,138.57152080000105,138.57152080000105,138.57152080000105,138.57152080000105,138.57152080000105,num_1,0.5831921999988481,139.17164560000037,139.17164560000037,None,,6,001,2025-12-17_13h50.36.513,2025C_exp1_detect,2022.2.4,59.923226362248805,
22.7,315,0,1,1,0,0,41,41,120,139.17164560000037,139.17164560000037,139.6724851000008,139.73920289999933,139.7892425,139.7892425,139.7892425,139.7892425,139.8391242000007,139.8391242000007,139.8391242000007,139.8391242000007,139.8391242000007,139.8391242000007,139.8391242000007,139.8391242000007,139.8391242000007,139.8391242000007,num_1,0.6273018000001684,140.4897121999993,140.4897121999993,None,,6,001,2025-12-17_13h50.36.513,2025C_exp1_detect,2022.2.4,59.923226362248805,
12.1,45,1,1,-1,1,0,42,42,342,140.4897121999993,140.4897121999993,140.9905772000011,141.05735539999932,141.10764740000104,141.10764740000104,141.10764740000104,141.10764740000104,141.1573641999994,141.1573641999994,141.1573641999994,141.1573641999994,141.1573641999994,141.1573641999994,141.1573641999994,141.1573641999994,141.1573641999994,141.1573641999994,num_1,0.6615523999998913,141.8411533999997,141.8411533999997,None,,6,001,2025-12-17_13h50.36.513,2025C_exp1_detect,2022.2.4,59.923226362248805,
15.7,315,0,0,-1,1,0,43,43,298,141.8411533999997,141.8411533999997,142.34185519999937,142.4086954000004,142.45901569999933,142.45901569999933,142.45901569999933,142.45901569999933,142.50886179999998,142.50886179999998,142.50886179999998,142.50886179999998,142.50886179999998,142.50886179999998,142.50886179999998,142.50886179999998,142.50886179999998,142.50886179999998,num_1,0.7655206999997972,143.2925081000003,143.2925081000003,None,,6,001,2025-12-17_13h50.36.513,2025C_exp1_detect,2022.2.4,59.923226362248805,
12.1,45,0,1,-1,0,0,44,44,36,143.2925081000003,143.2925081000003,143.79326420000052,143.85975380000036,143.91018540000096,143.91018540000096,143.91018540000096,143.91018540000096,143.95992390000083,143.95992390000083,143.95992390000083,143.95992390000083,143.95992390000083,143.95992390000083,143.95992390000083,143.95992390000083,143.95992390000083,143.95992390000083,num_3,0.7953721999992922,144.7773217999993,144.7773217999993,None,,6,001,2025-12-17_13h50.36.513,2025C_exp1_detect,2022.2.4,59.923226362248805,
42.7,315,0,1,-1,0,0,45,45,53,144.7773217999993,144.7773217999993,145.2781060999996,145.3448660999993,145.39507440000034,145.39507440000034,145.39507440000034,145.39507440000034,145.44499430000087,145.44499430000087,145.44499430000087,145.44499430000087,145.44499430000087,145.44499430000087,145.44499430000087,145.44499430000087,145.44499430000087,145.44499430000087,num_3,0.6450637999996616,146.1122602000005,146.1122602000005,None,,6,001,2025-12-17_13h50.36.513,2025C_exp1_detect,2022.2.4,59.923226362248805,
12.1,315,1,1,1,-1,0,46,46,279,146.1122602000005,146.1122602000005,146.61267400000088,146.67936559999998,146.72982970000066,146.72982970000066,146.72982970000066,146.72982970000066,146.77969650000068,146.77969650000068,146.77969650000068,146.77969650000068,146.77969650000068,146.77969650000068,146.77969650000068,146.77969650000068,146.77969650000068,146.77969650000068,num_3,1.6943610999978773,148.49779919999946,148.49779919999946,None,,6,001,2025-12-17_13h50.36.513,2025C_exp1_detect,2022.2.4,59.923226362248805,
19.6,45,1,0,1,-1,0,47,47,236,148.49779919999946,148.49779919999946,148.99852120000014,149.06512770000063,149.11547859999973,149.11547859999973,149.11547859999973,149.11547859999973,149.16535130000102,149.16535130000102,149.16535130000102,149.16535130000102,149.16535130000102,149.16535130000102,149.16535130000102,149.16535130000102,149.16535130000102,149.16535130000102,num_3,1.1885572999990472,150.38287489999948,150.38287489999948,None,,6,001,2025-12-17_13h50.36.513,2025C_exp1_detect,2022.2.4,59.923226362248805,
42.7,45,1,0,-1,1,0,48,48,314,150.38287489999948,150.38287489999948,150.88340479999988,150.95024939999985,151.00045480000063,151.00045480000063,151.00045480000063,151.00045480000063,151.05029399999967,151.05029399999967,151.05029399999967,151.05029399999967,151.05029399999967,151.05029399999967,151.05029399999967,151.05029399999967,151.05029399999967,151.05029399999967,num_1,0.7838837000008425,151.85109920000014,151.85109920000014,None,,6,001,2025-12-17_13h50.36.513,2025C_exp1_detect,2022.2.4,59.923226362248805,
42.7,45,1,0,1,-1,0,49,49,242,151.85109920000014,151.85109920000014,152.35153609999998,152.41826719999972,152.46864899999946,152.46864899999946,152.46864899999946,152.46864899999946,152.51844459999938,152.51844459999938,152.51844459999938,152.51844459999938,152.51844459999938,152.51844459999938,152.51844459999938,152.51844459999938,152.51844459999938,152.51844459999938,num_3,1.3717177999997148,153.91999529999975,153.91999529999975,None,,6,001,2025-12-17_13h50.36.513,2025C_exp1_detect,2022.2.4,59.923226362248805,
25.5,45,1,1,-1,1,0,50,50,346,153.91999529999975,153.91999529999975,154.42073710000022,154.48743270000068,154.5377359999993,154.5377359999993,154.5377359999993,154.5377359999993,154.5874986000008,154.5874986000008,154.5874986000008,154.5874986000008,154.5874986000008,154.5874986000008,154.5874986000008,154.5874986000008,154.5874986000008,154.5874986000008,num_1,0.8229811999999583,155.43799789999957,155.43799789999957,None,,6,001,2025-12-17_13h50.36.513,2025C_exp1_detect,2022.2.4,59.923226362248805,
29.4,315,1,0,1,-1,0,51,51,248,155.43799789999957,155.43799789999957,155.93848929999967,156.00541740000062,156.05573950000053,156.05573950000053,156.05573950000053,156.05573950000053,156.10560630000055,156.10560630000055,156.10560630000055,156.10560630000055,156.10560630000055,156.10560630000055,156.10560630000055,156.10560630000055,156.10560630000055,156.10560630000055,num_1,1.7767292999988058,157.90713600000072,157.90713600000072,None,,6,001,2025-12-17_13h50.36.513,2025C_exp1_detect,2022.2.4,59.923226362248805,
19.6,45,1,1,-1,0,0,52,52,56,157.90713600000072,157.90713600000072,158.4078531999994,158.47431860000052,158.5248762000001,158.5248762000001,158.5248762000001,158.5248762000001,158.5749351000004,158.5749351000004,158.5749351000004,158.5749351000004,158.5749351000004,158.5749351000004,158.5749351000004,158.5749351000004,158.5749351000004,158.5749351000004,num_1,0.6841196999985186,159.2751902000009,159.2751902000009,None,,6,001,2025-12-17_13h50.36.513,2025C_exp1_detect,2022.2.4,59.923226362248805,
29.4,45,1,0,1,-1,0,53,53,239,159.2751902000009,159.2751902000009,159.77590490000057,159.84281190000092,159.89291309999953,159.89291309999953,159.89291309999953,159.89291309999953,159.94281239999964,159.94281239999964,159.94281239999964,159.94281239999964,159.94281239999964,159.94281239999964,159.94281239999964,159.94281239999964,159.94281239999964,159.94281239999964,num_3,1.044239200001357,161.01044360000105,161.01044360000105,None,,6,001,2025-12-17_13h50.36.513,2025C_exp1_detect,2022.2.4,59.923226362248805,
35.3,45,1,1,-1,0,0,54,54,60,161.01044360000105,161.01044360000105,161.5110964000005,161.57789710000088,161.62809040000047,161.62809040000047,161.62809040000047,161.62809040000047,161.67811399999937,161.67811399999937,161.67811399999937,161.67811399999937,161.67811399999937,161.67811399999937,161.67811399999937,161.67811399999937,161.67811399999937,161.67811399999937,num_1,0.6842313999995895,162.37831730000016,162.37831730000016,None,,6,001,2025-12-17_13h50.36.513,2025C_exp1_detect,2022.2.4,59.923226362248805,
25.5,315,1,0,-1,0,0,55,55,31,162.37831730000016,162.37831730000016,162.87920550000035,162.94573310000033,162.99606120000044,162.99606120000044,162.99606120000044,162.99606120000044,163.045913500001,163.045913500001,163.045913500001,163.045913500001,163.045913500001,163.045913500001,163.045913500001,163.045913500001,163.045913500001,163.045913500001,num_1,0.6773418000002493,163.7462598000011,163.7462598000011,None,,6,001,2025-12-17_13h50.36.513,2025C_exp1_detect,2022.2.4,59.923226362248805,
25.5,315,1,1,1,0,0,56,56,139,163.7462598000011,163.7462598000011,164.24717220000002,164.3139237000005,164.36418400000093,164.36418400000093,164.36418400000093,164.36418400000093,164.41409180000028,164.41409180000028,164.41409180000028,164.41409180000028,164.41409180000028,164.41409180000028,164.41409180000028,164.41409180000028,164.41409180000028,164.41409180000028,num_3,0.6848171999999977,165.13122010000097,165.13122010000097,None,,6,001,2025-12-17_13h50.36.513,2025C_exp1_detect,2022.2.4,59.923226362248805,
19.6,315,0,0,-1,-1,0,57,57,155,165.13122010000097,165.13122010000097,165.63177240000095,165.69851180000023,165.74883450000107,165.74883450000107,165.74883450000107,165.74883450000107,165.7985608000008,165.7985608000008,165.7985608000008,165.7985608000008,165.7985608000008,165.7985608000008,165.7985608000008,165.7985608000008,165.7985608000008,165.7985608000008,num_3,1.1315433000008852,166.94953160000023,166.94953160000023,None,,6,001,2025-12-17_13h50.36.513,2025C_exp1_detect,2022.2.4,59.923226362248805,
25.5,45,1,0,1,0,0,58,58,94,166.94953160000023,166.94953160000023,167.45039450000058,167.5171135999999,167.56740230000014,167.56740230000014,167.56740230000014,167.56740230000014,167.61731340000097,167.61731340000097,167.61731340000097,167.61731340000097,167.61731340000097,167.61731340000097,167.61731340000097,167.61731340000097,167.61731340000097,167.61731340000097,num_3,1.057965699998931,168.70127330000014,168.70127330000014,None,,6,001,2025-12-17_13h50.36.513,2025C_exp1_detect,2022.2.4,59.923226362248805,
22.7,45,1,1,1,-1,0,59,59,273,168.70127330000014,168.70127330000014,169.20202110000082,169.26873539999997,169.31913729999997,169.31913729999997,169.31913729999997,169.31913729999997,169.36871689999953,169.36871689999953,169.36871689999953,169.36871689999953,169.36871689999953,169.36871689999953,169.36871689999953,169.36871689999953,169.36871689999953,169.36871689999953,num_1,0.5702549000006911,169.9691759999996,169.9691759999996,None,,6,001,2025-12-17_13h50.36.513,2025C_exp1_detect,2022.2.4,59.923226362248805,
12.1,315,1,1,1,1,0,60,60,423,169.9691759999996,169.9691759999996,170.46994050000012,170.53655420000086,170.5869257000004,170.5869257000004,170.5869257000004,170.5869257000004,170.63670340000044,170.63670340000044,170.63670340000044,170.63670340000044,170.63670340000044,170.63670340000044,170.63670340000044,170.63670340000044,170.63670340000044,170.63670340000044,num_1,0.6463989999983824,171.3039036,171.3039036,None,,6,001,2025-12-17_13h50.36.513,2025C_exp1_detect,2022.2.4,59.923226362248805,
42.7,45,1,0,-1,0,0,61,61,26,171.3039036,171.3039036,171.80458529999942,171.8711845000007,171.92163920000075,171.92163920000075,171.92163920000075,171.92163920000075,171.97147239999958,171.97147239999958,171.97147239999958,171.97147239999958,171.97147239999958,171.97147239999958,171.97147239999958,171.97147239999958,171.97147239999958,171.97147239999958,num_1,0.6394927000010284,172.6385025999998,172.6385025999998,None,,6,001,2025-12-17_13h50.36.513,2025C_exp1_detect,2022.2.4,59.923226362248805,
39.2,45,0,1,1,0,0,62,62,115,172.6385025999998,172.6385025999998,173.1394807000006,173.20621140000094,173.2565239000005,173.2565239000005,173.2565239000005,173.2565239000005,173.30626510000093,173.30626510000093,173.30626510000093,173.30626510000093,173.30626510000093,173.30626510000093,173.30626510000093,173.30626510000093,173.30626510000093,173.30626510000093,num_1,0.5688699000011184,173.9066664000011,173.9066664000011,None,,6,001,2025-12-17_13h50.36.513,2025C_exp1_detect,2022.2.4,59.923226362248805,
29.4,45,1,1,1,-1,0,63,63,275,173.9066664000011,173.9066664000011,174.40723780000098,174.47411360000024,174.52439610000056,174.52439610000056,174.52439610000056,174.52439610000056,174.5741398,174.5741398,174.5741398,174.5741398,174.5741398,174.5741398,174.5741398,174.5741398,174.5741398,174.5741398,num_1,0.6356760000007853,175.24116679999952,175.24116679999952,None,,6,001,2025-12-17_13h50.36.513,2025C_exp1_detect,2022.2.4,59.923226362248805,
19.6,45,0,1,1,0,0,64,64,110,175.24116679999952,175.24116679999952,175.7417243000009,175.80856539999968,175.85889410000073,175.85889410000073,175.85889410000073,175.85889410000073,175.90876750000007,175.90876750000007,175.90876750000007,175.90876750000007,175.90876750000007,175.90876750000007,175.90876750000007,175.90876750000007,175.90876750000007,175.90876750000007,num_1,0.6698723999988943,176.6092830000007,176.6092830000007,None,,6,001,2025-12-17_13h50.36.513,2025C_exp1_detect,2022.2.4,59.923226362248805,
25.5,45,1,0,1,1,0,65,65,382,176.6092830000007,176.6092830000007,177.10993270000017,177.17634760000055,177.22686499999963,177.22686499999963,177.22686499999963,177.22686499999963,177.27681770000072,177.27681770000072,177.27681770000072,177.27681770000072,177.27681770000072,177.27681770000072,177.27681770000072,177.27681770000072,177.27681770000072,177.27681770000072,num_3,1.1175534999993033,178.4110025,178.4110025,None,,6,001,2025-12-17_13h50.36.513,2025C_exp1_detect,2022.2.4,59.923226362248805,
12.1,45,1,1,1,1,0,66,66,414,178.4110025,178.4110025,178.9117348000009,178.978450900001,179.02876410000044,179.02876410000044,179.02876410000044,179.02876410000044,179.0783375000001,179.0783375000001,179.0783375000001,179.0783375000001,179.0783375000001,179.0783375000001,179.0783375000001,179.0783375000001,179.0783375000001,179.0783375000001,num_1,1.0198252999989563,180.12970039999982,180.12970039999982,None,,6,001,2025-12-17_13h50.36.513,2025C_exp1_detect,2022.2.4,59.923226362248805,
29.4,45,0,0,1,0,0,67,67,77,180.12970039999982,180.12970039999982,180.6297712000005,180.6974433000005,180.7470927000004,180.7470927000004,180.7470927000004,180.7470927000004,180.79669920000106,180.79669920000106,180.79669920000106,180.79669920000106,180.79669920000106,180.79669920000106,180.79669920000106,180.79669920000106,180.79669920000106,180.79669920000106,num_1,0.5417744999986098,181.36384610000005,181.36384610000005,None,,6,001,2025-12-17_13h50.36.513,2025C_exp1_detect,2022.2.4,59.923226362248805,
12.1,45,0,1,-1,1,0,68,68,324,181.36384610000005,181.36384610000005,181.86440350000066,181.93105519999972,181.9813763000011,181.9813763000011,181.9813763000011,181.9813763000011,182.0313752000011,182.0313752000011,182.0313752000011,182.0313752000011,182.0313752000011,182.0313752000011,182.0313752000011,182.0313752000011,182.0313752000011,182.0313752000011,num_3,0.9147918000007849,182.96573910000097,182.96573910000097,None,,6,001,2025-12-17_13h50.36.513,2025C_exp1_detect,2022.2.4,59.923226362248805,
22.7,315,0,0,-1,-1,0,69,69,156,182.96573910000097,182.96573910000097,183.46635390000029,183.5328617999994,183.58327410000038,183.58327410000038,183.58327410000038,183.58327410000038,183.6329152999997,183.6329152999997,183.6329152999997,183.6329152999997,183.6329152999997,183.6329152999997,183.6329152999997,183.6329152999997,183.6329152999997,183.6329152999997,num_3,0.6335920000010447,184.28350820000105,184.28350820000105,None,,6,001,2025-12-17_13h50.36.513,2025C_exp1_detect,2022.2.4,59.923226362248805,
42.7,45,0,0,1,0,0,70,70,80,184.28350820000105,184.28350820000105,184.78412939999998,184.8509494,184.90112540000064,184.90112540000064,184.90112540000064,184.90112540000064,184.95113179999953,184.95113179999953,184.95113179999953,184.95113179999953,184.95113179999953,184.95113179999953,184.95113179999953,184.95113179999953,184.95113179999953,184.95113179999953,num_1,0.5631158999995023,185.5348922000003,185.5348922000003,None,,6,001,2025-12-17_13h50.36.513,2025C_exp1_detect,2022.2.4,59.923226362248805,
42.7,45,0,1,1,1,0,71,71,404,185.5348922000003,185.5348922000003,186.03546580000057,186.10201119999965,186.15247089999957,186.15247089999957,186.15247089999957,186.15247089999957,186.20236290000048,186.20236290000048,186.20236290000048,186.20236290000048,186.20236290000048,186.20236290000048,186.20236290000048,186.20236290000048,186.20236290000048,186.20236290000048,num_1,0.5452195000007123,186.76954250000108,186.76954250000108,None,,6,001,2025-12-17_13h50.36.513,2025C_exp1_detect,2022.2.4,59.923226362248805,
15.7,45,1,0,1,0,0,72,72,91,186.76954250000108,186.76954250000108,187.26998060000096,187.33671779999986,187.38713130000087,187.38713130000087,187.38713130000087,187.38713130000087,187.43687249999948,187.43687249999948,187.43687249999948,187.43687249999948,187.43687249999948,187.43687249999948,187.43687249999948,187.43687249999948,187.43687249999948,187.43687249999948,num_1,0.6377310999987458,188.10402700000031,188.10402700000031,None,,6,001,2025-12-17_13h50.36.513,2025C_exp1_detect,2022.2.4,59.923226362248805,
42.7,315,1,1,-1,-1,0,73,73,215,188.10402700000031,188.10402700000031,188.60439060000044,188.67116459999943,188.72144460000072,188.72144460000072,188.72144460000072,188.72144460000072,188.7714093000004,188.7714093000004,188.7714093000004,188.7714093000004,188.7714093000004,188.7714093000004,188.7714093000004,188.7714093000004,188.7714093000004,188.7714093000004,num_1,0.6076005000004443,189.4053152000006,189.4053152000006,None,,6,001,2025-12-17_13h50.36.513,2025C_exp1_detect,2022.2.4,59.923226362248805,
42.7,315,0,0,-1,0,0,74,74,17,189.4053152000006,189.4053152000006,189.90628890000062,189.97284470000068,190.02330789999996,190.02330789999996,190.02330789999996,190.02330789999996,190.07302430000072,190.07302430000072,190.07302430000072,190.07302430000072,190.07302430000072,190.07302430000072,190.07302430000072,190.07302430000072,190.07302430000072,190.07302430000072,num_1,0.4247702999991816,190.5231687000005,190.5231687000005,None,,6,001,2025-12-17_13h50.36.513,2025C_exp1_detect,2022.2.4,59.923226362248805,
15.7,315,0,0,1,0,0,75,75,82,190.5231687000005,190.5231687000005,191.02379270000074,191.0904961999995,191.14079740000034,191.14079740000034,191.14079740000034,191.14079740000034,191.19058459999997,191.19058459999997,191.19058459999997,191.19058459999997,191.19058459999997,191.19058459999997,191.19058459999997,191.19058459999997,191.19058459999997,191.19058459999997,num_1,0.6434477999982846,191.8577792999995,191.8577792999995,None,,6,001,2025-12-17_13h50.36.513,2025C_exp1_detect,2022.2.4,59.923226362248805,
12.1,45,0,1,1,0,0,76,76,108,191.8577792999995,191.8577792999995,192.3584675000011,192.4250605999996,192.4754722000007,192.4754722000007,192.4754722000007,192.4754722000007,192.52508519999992,192.52508519999992,192.52508519999992,192.52508519999992,192.52508519999992,192.52508519999992,192.52508519999992,192.52508519999992,192.52508519999992,192.52508519999992,num_1,0.5896463999988555,193.14232730000094,193.14232730000094,None,,6,001,2025-12-17_13h50.36.513,2025C_exp1_detect,2022.2.4,59.923226362248805,
29.4,315,0,0,1,-1,0,77,77,230,193.14232730000094,193.14232730000094,193.64314660000036,193.70983009999964,193.76022009999997,193.76022009999997,193.76022009999997,193.76022009999997,193.809747100001,193.809747100001,193.809747100001,193.809747100001,193.809747100001,193.809747100001,193.809747100001,193.809747100001,193.809747100001,193.809747100001,num_1,0.4328105999984473,194.26014289999966,194.26014289999966,None,,6,001,2025-12-17_13h50.36.513,2025C_exp1_detect,2022.2.4,59.923226362248805,
19.6,45,1,1,-1,1,0,78,78,344,194.26014289999966,194.26014289999966,194.76085909999983,194.8273777000004,194.87789470000007,194.87789470000007,194.87789470000007,194.87789470000007,194.92777070000102,194.92777070000102,194.92777070000102,194.92777070000102,194.92777070000102,194.92777070000102,194.92777070000102,194.92777070000102,194.92777070000102,194.92777070000102,num_1,0.5862116999987848,195.54471049999938,195.54471049999938,None,,6,001,2025-12-17_13h50.36.513,2025C_exp1_detect,2022.2.4,59.923226362248805,
29.4,315,0,0,1,0,0,79,79,86,195.54471049999938,195.54471049999938,196.04541300000074,196.11219419999998,196.1624684999997,196.1624684999997,196.1624684999997,196.1624684999997,196.2123899999997,196.2123899999997,196.2123899999997,196.2123899999997,196.2123899999997,196.2123899999997,196.2123899999997,196.2123899999997,196.2123899999997,196.2123899999997,num_1,0.6535744999991948,196.89612949999992,196.89612949999992,None,,6,001,2025-12-17_13h50.36.513,2025C_exp1_detect,2022.2.4,59.923226362248805,
15.7,45,0,0,-1,1,0,80,80,289,196.89612949999992,196.89612949999992,197.3968458999998,197.4635877999999,197.51383590000023,197.51383590000023,197.51383590000023,197.51383590000023,197.5637240999995,197.5637240999995,197.5637240999995,197.5637240999995,197.5637240999995,197.5637240999995,197.5637240999995,197.5637240999995,197.5637240999995,197.5637240999995,num_3,1.2390229000002364,198.83145310000054,198.83145310000054,None,,6,001,2025-12-17_13h50.36.513,2025C_exp1_detect,2022.2.4,59.923226362248805,
15.7,45,0,1,-1,-1,0,81,81,181,198.83145310000054,198.83145310000054,199.33221429999958,199.39897110000038,199.4491282000008,199.4491282000008,199.4491282000008,199.4491282000008,199.49898810000104,199.49898810000104,199.49898810000104,199.49898810000104,199.49898810000104,199.49898810000104,199.49898810000104,199.49898810000104,199.49898810000104,199.49898810000104,num_3,0.7192368000005445,200.2497168,200.2497168,None,,6,001,2025-12-17_13h50.36.513,2025C_exp1_detect,2022.2.4,59.923226362248805,
22.7,45,1,0,1,-1,0,82,82,237,200.2497168,200.2497168,200.7502099000003,200.8168169999999,200.8672147999996,200.8672147999996,200.8672147999996,200.8672147999996,200.9171193000011,200.9171193000011,200.9171193000011,200.9171193000011,200.9171193000011,200.9171193000011,200.9171193000011,200.9171193000011,200.9171193000011,200.9171193000011,num_3,0.7175550999991174,201.6508077999997,201.6508077999997,None,,6,001,2025-12-17_13h50.36.513,2025C_exp1_detect,2022.2.4,59.923226362248805,
42.7,315,0,1,-1,-1,0,83,83,197,201.6508077999997,201.6508077999997,202.15130580000096,202.21824500000093,202.26857459999974,202.26857459999974,202.26857459999974,202.26857459999974,202.31849779999993,202.31849779999993,202.31849779999993,202.31849779999993,202.31849779999993,202.31849779999993,202.31849779999993,202.31849779999993,202.31849779999993,202.31849779999993,num_3,1.164137099999607,203.50267290000102,203.50267290000102,None,,6,001,2025-12-17_13h50.36.513,2025C_exp1_detect,2022.2.4,59.923226362248805,
42.7,45,0,1,-1,-1,0,84,84,188,203.50267290000102,203.50267290000102,204.00346120000086,204.07018340000013,204.1201800000008,204.1201800000008,204.1201800000008,204.1201800000008,204.17011750000074,204.17011750000074,204.17011750000074,204.17011750000074,204.17011750000074,204.17011750000074,204.17011750000074,204.17011750000074,204.17011750000074,204.17011750000074,num_3,0.8731402999992497,205.07090069999958,205.07090069999958,None,,6,001,2025-12-17_13h50.36.513,2025C_exp1_detect,2022.2.4,59.923226362248805,
42.7,315,1,1,-1,1,0,85,85,359,205.07090069999958,205.07090069999958,205.5717106000002,205.63846149999972,205.6885895000005,205.6885895000005,205.6885895000005,205.6885895000005,205.73859240000002,205.73859240000002,205.73859240000002,205.73859240000002,205.73859240000002,205.73859240000002,205.73859240000002,205.73859240000002,205.73859240000002,205.73859240000002,num_1,0.6475022000004174,206.40587569999934,206.40587569999934,None,,6,001,2025-12-17_13h50.36.513,2025C_exp1_detect,2022.2.4,59.923226362248805,
35.3,315,1,0,-1,0,0,86,86,33,206.40587569999934,206.40587569999934,206.90633400000024,206.97304089999943,207.02334419999988,207.02334419999988,207.02334419999988,207.02334419999988,207.0731894999999,207.0731894999999,207.0731894999999,207.0731894999999,207.0731894999999,207.0731894999999,207.0731894999999,207.0731894999999,207.0731894999999,207.0731894999999,num_1,0.5217987999994875,207.62360119999994,207.62360119999994,None,,6,001,2025-12-17_13h50.36.513,2025C_exp1_detect,2022.2.4,59.923226362248805,
39.2,45,1,0,1,0,0,87,87,97,207.62360119999994,207.62360119999994,208.1241997999996,208.19103559999985,208.24137559999963,208.24137559999963,208.24137559999963,208.24137559999963,208.29116540000086,208.29116540000086,208.29116540000086,208.29116540000086,208.29116540000086,208.29116540000086,208.29116540000086,208.29116540000086,208.29116540000086,208.29116540000086,num_3,0.9192391000005955,209.24182399999972,209.24182399999972,None,,6,001,2025-12-17_13h50.36.513,2025C_exp1_detect,2022.2.4,59.923226362248805,
29.4,45,0,1,1,1,0,88,88,401,209.24182399999972,209.24182399999972,209.74218399999972,209.8089657999999,209.85926100000052,209.85926100000052,209.85926100000052,209.85926100000052,209.90925569999945,209.90925569999945,209.90925569999945,209.90925569999945,209.90925569999945,209.90925569999945,209.90925569999945,209.90925569999945,209.90925569999945,209.90925569999945,num_1,0.5011899999999514,210.44286100000045,210.44286100000045,None,,6,001,2025-12-17_13h50.36.513,2025C_exp1_detect,2022.2.4,59.923226362248805,
25.5,45,1,1,1,0,0,89,89,130,210.44286100000045,210.44286100000045,210.94341290000102,211.01021409999976,211.060523000001,211.060523000001,211.060523000001,211.060523000001,211.11044599999968,211.11044599999968,211.11044599999968,211.11044599999968,211.11044599999968,211.11044599999968,211.11044599999968,211.11044599999968,211.11044599999968,211.11044599999968,num_1,0.5396948999996312,211.6775373999999,211.6775373999999,None,,6,001,2025-12-17_13h50.36.513,2025C_exp1_detect,2022.2.4,59.923226362248805,
35.3,45,0,0,1,0,0,90,90,78,211.6775373999999,211.6775373999999,212.17793849999998,212.24467699999968,212.2949849000006,212.2949849000006,212.2949849000006,212.2949849000006,212.34484690000045,212.34484690000045,212.34484690000045,212.34484690000045,212.34484690000045,212.34484690000045,212.34484690000045,212.34484690000045,212.34484690000045,212.34484690000045,num_1,0.6656161000000793,213.02878169999985,213.02878169999985,None,,6,001,2025-12-17_13h50.36.513,2025C_exp1_detect,2022.2.4,59.923226362248805,
39.2,315,0,1,1,0,0,91,91,124,213.02878169999985,213.02878169999985,213.52960819999953,213.5963182000005,213.64664240000002,213.64664240000002,213.64664240000002,213.64664240000002,213.69651590000012,213.69651590000012,213.69651590000012,213.69651590000012,213.69651590000012,213.69651590000012,213.69651590000012,213.69651590000012,213.69651590000012,213.69651590000012,num_1,0.521398699999736,214.24672460000056,214.24672460000056,None,,6,001,2025-12-17_13h50.36.513,2025C_exp1_detect,2022.2.4,59.923226362248805,
15.7,315,1,0,-1,-1,0,92,92,172,214.24672460000056,214.24672460000056,214.7476704999999,214.81435239999973,214.86459209999975,214.86459209999975,214.86459209999975,214.86459209999975,214.9141069999996,214.9141069999996,214.9141069999996,214.9141069999996,214.9141069999996,214.9141069999996,214.9141069999996,214.9141069999996,214.9141069999996,214.9141069999996,num_1,0.6645822000000408,215.59812669999974,215.59812669999974,None,,6,001,2025-12-17_13h50.36.513,2025C_exp1_detect,2022.2.4,59.923226362248805,
29.4,45,0,1,-1,-1,0,93,93,185,215.59812669999974,215.59812669999974,216.09873160000006,216.1655708999997,216.21575799999937,216.21575799999937,216.21575799999937,216.21575799999937,216.26574569999957,216.26574569999957,216.26574569999957,216.26574569999957,216.26574569999957,216.26574569999957,216.26574569999957,216.26574569999957,216.26574569999957,216.26574569999957,num_3,1.1529722000004767,217.44990919999964,217.44990919999964,None,,6,001,2025-12-17_13h50.36.513,2025C_exp1_detect,2022.2.4,59.923226362248805,
35.3,315,0,0,1,-1,0,94,94,231,217.44990919999964,217.44990919999964,217.95091369999955,218.01762320000034,218.06785109999964,218.06785109999964,218.06785109999964,218.06785109999964,218.11771599999975,218.11771599999975,218.11771599999975,218.11771599999975,218.11771599999975,218.11771599999975,218.11771599999975,218.11771599999975,218.11771599999975,218.11771599999975,num_1,0.7484422999996241,218.8847066999997,218.8847066999997,None,,6,001,2025-12-17_13h50.36.513,2025C_exp1_detect,2022.2.4,59.923226362248805,
29.4,45,1,1,1,0,0,95,95,131,218.8847066999997,218.8847066999997,219.38530880000053,219.45213670000066,219.50246199999947,219.50246199999947,219.50246199999947,219.50246199999947,219.55235470000025,219.55235470000025,219.55235470000025,219.55235470000025,219.55235470000025,219.55235470000025,219.55235470000025,219.55235470000025,219.55235470000025,219.55235470000025,num_1,0.6415766999989501,220.21953669999948,220.21953669999948,None,,6,001,2025-12-17_13h50.36.513,2025C_exp1_detect,2022.2.4,59.923226362248805,
39.2,315,1,0,-1,-1,0,96,96,178,220.21953669999948,220.21953669999948,220.71989640000083,220.78670479999982,220.83736500000032,220.83736500000032,220.83736500000032,220.83736500000032,220.88716680000016,220.88716680000016,220.88716680000016,220.88716680000016,220.88716680000016,220.88716680000016,220.88716680000016,220.88716680000016,220.88716680000016,220.88716680000016,num_1,0.6118073999996341,221.52080750000005,221.52080750000005,None,,6,001,2025-12-17_13h50.36.513,2025C_exp1_detect,2022.2.4,59.923226362248805,
12.1,315,1,0,1,-1,0,97,97,243,221.52080750000005,221.52080750000005,222.02149610000106,222.08826660000068,222.13858030000029,222.13858030000029,222.13858030000029,222.13858030000029,222.1883267000003,222.1883267000003,222.1883267000003,222.1883267000003,222.1883267000003,222.1883267000003,222.1883267000003,222.1883267000003,222.1883267000003,222.1883267000003,num_3,1.0540528999999879,223.27271709999968,223.27271709999968,None,,6,001,2025-12-17_13h50.36.513,2025C_exp1_detect,2022.2.4,59.923226362248805,
12.1,315,0,1,1,-1,0,98,98,261,223.27271709999968,223.27271709999968,223.77319350000016,223.83987790000083,223.89017759999933,223.89017759999933,223.89017759999933,223.89017759999933,223.93998209999972,223.93998209999972,223.93998209999972,223.93998209999972,223.93998209999972,223.93998209999972,223.93998209999972,223.93998209999972,223.93998209999972,223.93998209999972,num_1,0.734458399999312,224.69088830000055,224.69088830000055,None,,6,001,2025-12-17_13h50.36.513,2025C_exp1_detect,2022.2.4,59.923226362248805,
15.7,315,0,0,1,-1,0,99,99,226,224.69088830000055,224.69088830000055,225.19109579999986,225.25795560000097,225.30830239999977,225.30830239999977,225.30830239999977,225.30830239999977,225.35814590000064,225.35814590000064,225.35814590000064,225.35814590000064,225.35814590000064,225.35814590000064,225.35814590000064,225.35814590000064,225.35814590000064,225.35814590000064,num_1,2.0277869999999893,227.41015050000078,227.41015050000078,None,,6,001,2025-12-17_13h50.36.513,2025C_exp1_detect,2022.2.4,59.923226362248805,
22.7,315,0,1,1,1,0,100,100,408,227.41015050000078,227.41015050000078,227.91047630000048,227.97737599999982,228.02765959999942,228.02765959999942,228.02765959999942,228.02765959999942,228.07756670000072,228.07756670000072,228.07756670000072,228.07756670000072,228.07756670000072,228.07756670000072,228.07756670000072,228.07756670000072,228.07756670000072,228.07756670000072,num_1,0.5735619999986739,228.67806760000076,228.67806760000076,None,,6,001,2025-12-17_13h50.36.513,2025C_exp1_detect,2022.2.4,59.923226362248805,
35.3,315,1,1,1,1,0,101,101,429,228.67806760000076,228.67806760000076,229.1784130999995,229.24529449999955,229.29560439999932,229.29560439999932,229.29560439999932,229.29560439999932,229.34545809999963,229.34545809999963,229.34545809999963,229.34545809999963,229.34545809999963,229.34545809999963,229.34545809999963,229.34545809999963,229.34545809999963,229.34545809999963,num_1,0.5045051000006424,229.87930599999981,229.87930599999981,None,,6,001,2025-12-17_13h50.36.513,2025C_exp1_detect,2022.2.4,59.923226362248805,
15.7,45,0,0,1,0,0,102,102,73,229.87930599999981,229.87930599999981,230.37980169999992,230.4466323000006,230.4969615,230.4969615,230.4969615,230.4969615,230.54671529999996,230.54671529999996,230.54671529999996,230.54671529999996,230.54671529999996,230.54671529999996,230.54671529999996,230.54671529999996,230.54671529999996,230.54671529999996,num_1,0.5999342999994042,231.1637252999999,231.1637252999999,None,,6,001,2025-12-17_13h50.36.513,2025C_exp1_detect,2022.2.4,59.923226362248805,
22.7,45,0,0,1,-1,0,103,103,219,231.1637252999999,231.1637252999999,231.66441469999972,231.73113260000082,231.78148199999941,231.78148199999941,231.78148199999941,231.78148199999941,231.8312933999996,231.8312933999996,231.8312933999996,231.8312933999996,231.8312933999996,231.8312933999996,231.8312933999996,231.8312933999996,231.8312933999996,231.8312933999996,num_3,2.883572699999604,234.73413580000033,234.73413580000033,None,,6,001,2025-12-17_13h50.36.513,2025C_exp1_detect,2022.2.4,59.923226362248805,
42.7,315,1,0,1,-1,0,104,104,251,234.73413580000033,234.73413580000033,235.23476890000074,235.30121770000096,235.3513310999997,235.3513310999997,235.3513310999997,235.3513310999997,235.40138770000067,235.40138770000067,235.40138770000067,235.40138770000067,235.40138770000067,235.40138770000067,235.40138770000067,235.40138770000067,235.40138770000067,235.40138770000067,num_3,0.8655150999993566,236.28581469999972,236.28581469999972,None,,6,001,2025-12-17_13h50.36.513,2025C_exp1_detect,2022.2.4,59.923226362248805,
15.7,45,0,0,1,-1,0,105,105,217,236.28581469999972,236.28581469999972,236.78645140000026,236.85315309999987,236.90342970000074,236.90342970000074,236.90342970000074,236.90342970000074,236.95308600000044,236.95308600000044,236.95308600000044,236.95308600000044,236.95308600000044,236.95308600000044,236.95308600000044,236.95308600000044,236.95308600000044,236.95308600000044,num_1,0.8327113000004829,237.80390490000082,237.80390490000082,None,,6,001,2025-12-17_13h50.36.513,2025C_exp1_detect,2022.2.4,59.923226362248805,
42.7,45,0,1,1,-1,0,106,106,260,237.80390490000082,237.80390490000082,238.3043970000008,238.37104110000018,238.42141039999933,238.42141039999933,238.42141039999933,238.42141039999933,238.47113489999992,238.47113489999992,238.47113489999992,238.47113489999992,238.47113489999992,238.47113489999992,238.47113489999992,238.47113489999992,238.47113489999992,238.47113489999992,num_1,0.6272376999995686,239.12176230000023,239.12176230000023,None,,6,001,2025-12-17_13h50.36.513,2025C_exp1_detect,2022.2.4,59.923226362248805,
22.7,315,1,0,-1,-1,0,107,107,174,239.12176230000023,239.12176230000023,239.62259790000007,239.689293800001,239.73932440000044,239.73932440000044,239.73932440000044,239.73932440000044,239.78918430000067,239.78918430000067,239.78918430000067,239.78918430000067,239.78918430000067,239.78918430000067,239.78918430000067,239.78918430000067,239.78918430000067,239.78918430000067,num_1,0.6689632000006895,240.48982390000037,240.48982390000037,space,57.75290009999935,6,001,2025-12-17_13h50.36.513,2025C_exp1_detect,2022.2.4,59.923226362248805,
35.3,45,0,0,-1,-1,0,108,108,150,298.2644535999998,298.2644535999998,298.76461629999994,298.83145520000016,298.8817540000009,298.8817540000009,298.8817540000009,298.8817540000009,298.9316525999993,298.9316525999993,298.9316525999993,298.9316525999993,298.9316525999993,298.9316525999993,298.9316525999993,298.9316525999993,298.9316525999993,298.9316525999993,num_1,0.5345535999995263,299.49881899999946,299.49881899999946,None,,6,001,2025-12-17_13h50.36.513,2025C_exp1_detect,2022.2.4,59.923226362248805,
25.5,45,0,1,-1,0,0,109,109,40,299.49881899999946,299.49881899999946,299.99903730000096,300.066055100001,300.1160334999995,300.1160334999995,300.1160334999995,300.1160334999995,300.165890700001,300.165890700001,300.165890700001,300.165890700001,300.165890700001,300.165890700001,300.165890700001,300.165890700001,300.165890700001,300.165890700001,num_3,1.15616239999963,301.35032030000093,301.35032030000093,None,,6,001,2025-12-17_13h50.36.513,2025C_exp1_detect,2022.2.4,59.923226362248805,
39.2,315,0,0,-1,-1,0,110,110,160,301.35032030000093,301.35032030000093,301.8508124000009,301.91768540000066,301.9687199000009,301.9687199000009,301.9687199000009,301.9687199000009,302.01772600000095,302.01772600000095,302.01772600000095,302.01772600000095,302.01772600000095,302.01772600000095,302.01772600000095,302.01772600000095,302.01772600000095,302.01772600000095,num_3,0.6241333000007216,302.6683294000004,302.6683294000004,None,,6,001,2025-12-17_13h50.36.513,2025C_exp1_detect,2022.2.4,59.923226362248805,
42.7,45,0,0,-1,0,0,111,111,8,302.6683294000004,302.6683294000004,303.1691443000009,303.2358135000004,303.28607029999966,303.28607029999966,303.28607029999966,303.28607029999966,303.3360399000003,303.3360399000003,303.3360399000003,303.3360399000003,303.3360399000003,303.3360399000003,303.3360399000003,303.3360399000003,303.3360399000003,303.3360399000003,num_3,0.6113694000005125,303.97006109999984,303.97006109999984,None,,6,001,2025-12-17_13h50.36.513,2025C_exp1_detect,2022.2.4,59.923226362248805,
39.2,315,1,1,1,1,0,112,112,430,303.97006109999984,303.97006109999984,304.47051890000057,304.5372782000004,304.5875753999999,304.5875753999999,304.5875753999999,304.5875753999999,304.6373272999999,304.6373272999999,304.6373272999999,304.6373272999999,304.6373272999999,304.6373272999999,304.6373272999999,304.6373272999999,304.6373272999999,304.6373272999999,num_1,0.5404669000008653,305.2043598999999,305.2043598999999,None,,6,001,2025-12-17_13h50.36.513,2025C_exp1_detect,2022.2.4,59.923226362248805,
22.7,45,1,0,-1,-1,0,113,113,165,305.2043598999999,305.2043598999999,305.7048925000008,305.7717555999998,305.82172919999994,305.82172919999994,305.82172919999994,305.82172919999994,305.87178480000057,305.87178480000057,305.87178480000057,305.87178480000057,305.87178480000057,305.87178480000057,305.87178480000057,305.87178480000057,305.87178480000057,305.87178480000057,num_1,0.41931100000056176,306.3225914000004,306.3225914000004,None,,6,001,2025-12-17_13h50.36.513,2025C_exp1_detect,2022.2.4,59.923226362248805,
22.7,45,0,1,1,0,0,114,114,111,306.3225914000004,306.3225914000004,306.82261949999975,306.8895502000005,306.9396674999998,306.9396674999998,306.9396674999998,306.9396674999998,306.9896842999997,306.9896842999997,306.9896842999997,306.9896842999997,306.9896842999997,306.9896842999997,306.9896842999997,306.9896842999997,306.9896842999997,306.9896842999997,num_1,0.3965745999985302,307.4065681000002,307.4065681000002,None,,6,001,2025-12-17_13h50.36.513,2025C_exp1_detect,2022.2.4,59.923226362248805,
19.6,45,0,1,-1,-1,0,115,115,182,307.4065681000002,307.4065681000002,307.90691869999955,307.9736232000005,308.0242666999993,308.0242666999993,308.0242666999993,308.0242666999993,308.0742627000009,308.0742627000009,308.0742627000009,308.0742627000009,308.0742627000009,308.0742627000009,308.0742627000009,308.0742627000009,308.0742627000009,308.0742627000009,num_3,0.6807847999998557,308.77477199999976,308.77477199999976,None,,6,001,2025-12-17_13h50.36.513,2025C_exp1_detect,2022.2.4,59.923226362248805,
35.3,315,1,1,1,-1,0,116,116,285,308.77477199999976,308.77477199999976,309.2752972999997,309.3420952999995,309.39222269999937,309.39222269999937,309.39222269999937,309.39222269999937,309.4421890000003,309.4421890000003,309.4421890000003,309.4421890000003,309.4421890000003,309.4421890000003,309.4421890000003,309.4421890000003,309.4421890000003,309.4421890000003,num_1,0.5049253999995926,309.9756490000009,309.9756490000009,None,,6,001,2025-12-17_13h50.36.513,2025C_exp1_detect,2022.2.4,59.923226362248805,
35.3,45,0,0,-1,0,0,117,117,6,309.9756490000009,309.9756490000009,310.47646780000014,310.54315580000093,310.5934048000008,310.5934048000008,310.5934048000008,310.5934048000008,310.6432183000006,310.6432183000006,310.6432183000006,310.6432183000006,310.6432183000006,310.6432183000006,310.6432183000006,310.6432183000006,310.6432183000006,310.6432183000006,num_3,0.6314403000005768,311.2938946000004,311.2938946000004,None,,6,001,2025-12-17_13h50.36.513,2025C_exp1_detect,2022.2.4,59.923226362248805,
39.2,45,0,1,-1,0,0,118,118,43,311.2938946000004,311.2938946000004,311.79458950000026,311.8612053000006,311.9114421000004,311.9114421000004,311.9114421000004,311.9114421000004,311.9612145000001,311.9612145000001,311.9612145000001,311.9612145000001,311.9612145000001,311.9612145000001,311.9612145000001,311.9612145000001,311.9612145000001,311.9612145000001,num_3,0.6259228999997504,312.6122038000003,312.6122038000003,None,,6,001,2025-12-17_13h50.36.513,2025C_exp1_detect,2022.2.4,59.923226362248805,
35.3,315,1,0,1,-1,0,119,119,249,312.6122038000003,312.6122038000003,313.11240050000106,313.1791196000004,313.2296804000007,313.2296804000007,313.2296804000007,313.2296804000007,313.2795967000011,313.2795967000011,313.2795967000011,313.2795967000011,313.2795967000011,313.2795967000011,313.2795967000011,313.2795967000011,313.2795967000011,313.2795967000011,num_3,0.5545107999996617,313.86342460000105,313.86342460000105,None,,6,001,2025-12-17_13h50.36.513,2025C_exp1_detect,2022.2.4,59.923226362248805,
39.2,315,0,0,-1,0,0,120,120,16,313.86342460000105,313.86342460000105,314.3636539000008,314.4302899000004,314.48071869999967,314.48071869999967,314.48071869999967,314.48071869999967,314.5305641999994,314.5305641999994,314.5305641999994,314.5305641999994,314.5305641999994,314.5305641999994,314.5305641999994,314.5305641999994,314.5305641999994,314.5305641999994,num_3,0.9194247000004907,315.481309400001,315.481309400001,None,,6,001,2025-12-17_13h50.36.513,2025C_exp1_detect,2022.2.4,59.923226362248805,
22.7,315,1,1,1,0,0,121,121,138,315.481309400001,315.481309400001,315.98186910000095,316.04868500000066,316.09886300000016,316.09886300000016,316.09886300000016,316.09886300000016,316.14886170000045,316.14886170000045,316.14886170000045,316.14886170000045,316.14886170000045,316.14886170000045,316.14886170000045,316.14886170000045,316.14886170000045,316.14886170000045,num_1,0.4851563999991413,316.6658393000007,316.6658393000007,None,,6,001,2025-12-17_13h50.36.513,2025C_exp1_detect,2022.2.4,59.923226362248805,
29.4,315,1,1,-1,-1,0,122,122,212,316.6658393000007,316.6658393000007,317.16649830000006,317.23320520000107,317.2834995000003,317.2834995000003,317.2834995000003,317.2834995000003,317.3332610000007,317.3332610000007,317.3332610000007,317.3332610000007,317.3332610000007,317.3332610000007,317.3332610000007,317.3332610000007,317.3332610000007,317.3332610000007,num_1,0.5008814999991955,317.8505044000003,317.8505044000003,None,,6,001,2025-12-17_13h50.36.513,2025C_exp1_detect,2022.2.4,59.923226362248805,
19.6,45,1,0,-1,0,0,123,123,20,317.8505044000003,317.8505044000003,318.3510018999996,318.4179123999993,318.46823270000004,318.46823270000004,318.46823270000004,318.46823270000004,318.51796990000094,318.51796990000094,318.51796990000094,318.51796990000094,318.51796990000094,318.51796990000094,318.51796990000094,318.51796990000094,318.51796990000094,318.51796990000094,num_1,0.4042054999999891,318.95174280000083,318.95174280000083,None,,6,001,2025-12-17_13h50.36.513,2025C_exp1_detect,2022.2.4,59.923226362248805,
42.7,45,0,1,-1,0,0,124,124,44,318.95174280000083,318.95174280000083,319.4521899000001,319.5189994000002,319.56935579999936,319.56935579999936,319.56935579999936,319.56935579999936,319.61909000000105,319.61909000000105,319.61909000000105,319.61909000000105,319.61909000000105,319.61909000000105,319.61909000000105,319.61909000000105,319.61909000000105,319.61909000000105,num_3,0.9439174999997704,320.5865696999999,320.5865696999999,None,,6,001,2025-12-17_13h50.36.513,2025C_exp1_detect,2022.2.4,59.923226362248805,
29.4,45,1,0,1,0,0,125,125,95,320.5865696999999,320.5865696999999,321.08715570000004,321.15379739999935,321.2039178999994,321.2039178999994,321.2039178999994,321.2039178999994,321.25388549999934,321.25388549999934,321.25388549999934,321.25388549999934,321.25388549999934,321.25388549999934,321.25388549999934,321.25388549999934,321.25388549999934,321.25388549999934,num_3,0.6198160999983884,321.90452129999994,321.90452129999994,None,,6,001,2025-12-17_13h50.36.513,2025C_exp1_detect,2022.2.4,59.923226362248805,
15.7,315,1,0,1,1,0,126,126,388,321.90452129999994,321.90452129999994,322.4050572999995,322.4715528000006,322.52182749999974,322.52182749999974,322.52182749999974,322.52182749999974,322.5719390000004,322.5719390000004,322.5719390000004,322.5719390000004,322.5719390000004,322.5719390000004,322.5719390000004,322.5719390000004,322.5719390000004,322.5719390000004,num_3,1.7427560999994967,324.3401922000003,324.3401922000003,None,,6,001,2025-12-17_13h50.36.513,2025C_exp1_detect,2022.2.4,59.923226362248805,
25.5,45,0,1,1,1,0,127,127,400,324.3401922000003,324.3401922000003,324.84078409999984,324.9074993999993,324.9578109999993,324.9578109999993,324.9578109999993,324.9578109999993,325.00754309999957,325.00754309999957,325.00754309999957,325.00754309999957,325.00754309999957,325.00754309999957,325.00754309999957,325.00754309999957,325.00754309999957,325.00754309999957,num_1,0.4669287999995504,325.4912682999993,325.4912682999993,None,,6,001,2025-12-17_13h50.36.513,2025C_exp1_detect,2022.2.4,59.923226362248805,
35.3,45,0,0,1,-1,0,128,128,222,325.4912682999993,325.4912682999993,325.9920695999999,326.05866610000066,326.1091096000009,326.1091096000009,326.1091096000009,326.1091096000009,326.1589885000003,326.1589885000003,326.1589885000003,326.1589885000003,326.1589885000003,326.1589885000003,326.1589885000003,326.1589885000003,326.1589885000003,326.1589885000003,num_1,0.627114600000823,326.809695500001,326.809695500001,None,,6,001,2025-12-17_13h50.36.513,2025C_exp1_detect,2022.2.4,59.923226362248805,
15.7,45,0,0,1,1,0,129,129,361,326.809695500001,326.809695500001,327.3097695999995,327.3765150999998,327.4268767000003,327.4268767000003,327.4268767000003,327.4268767000003,327.4768030000005,327.4768030000005,327.4768030000005,327.4768030000005,327.4768030000005,327.4768030000005,327.4768030000005,327.4768030000005,327.4768030000005,327.4768030000005,num_1,0.4773474999992686,327.97694499999943,327.97694499999943,None,,6,001,2025-12-17_13h50.36.513,2025C_exp1_detect,2022.2.4,59.923226362248805,
22.7,315,0,0,-1,0,0,130,130,12,327.97694499999943,327.97694499999943,328.4777535000003,328.5444701000006,328.59479510000074,328.59479510000074,328.59479510000074,328.59479510000074,328.6446664999994,328.6446664999994,328.6446664999994,328.6446664999994,328.6446664999994,328.6446664999994,328.6446664999994,328.6446664999994,328.6446664999994,328.6446664999994,num_3,0.589890700000069,329.26189070000055,329.26189070000055,None,,6,001,2025-12-17_13h50.36.513,2025C_exp1_detect,2022.2.4,59.923226362248805,
15.7,315,1,1,1,1,0,131,131,424,329.26189070000055,329.26189070000055,329.7624463000002,329.82883429999947,329.87908979999975,329.87908979999975,329.87908979999975,329.87908979999975,329.9289558999999,329.9289558999999,329.9289558999999,329.9289558999999,329.9289558999999,329.9289558999999,329.9289558999999,329.9289558999999,329.9289558999999,329.9289558999999,num_1,0.5212191999989955,330.4794516000011,330.4794516000011,None,,6,001,2025-12-17_13h50.36.513,2025C_exp1_detect,2022.2.4,59.923226362248805,
29.4,45,1,1,1,1,0,132,132,419,330.4794516000011,330.4794516000011,330.9801404,331.0466643999998,331.0969740999999,331.0969740999999,331.0969740999999,331.0969740999999,331.14686990000064,331.14686990000064,331.14686990000064,331.14686990000064,331.14686990000064,331.14686990000064,331.14686990000064,331.14686990000064,331.14686990000064,331.14686990000064,num_1,0.4307400999996389,331.597223400001,331.597223400001,None,,6,001,2025-12-17_13h50.36.513,2025C_exp1_detect,2022.2.4,59.923226362248805,
35.3,45,1,0,1,-1,0,133,133,240,331.597223400001,331.597223400001,332.09776189999957,332.16448220000075,332.2147642000009,332.2147642000009,332.2147642000009,332.2147642000009,332.2646341999998,332.2646341999998,332.2646341999998,332.2646341999998,332.2646341999998,332.2646341999998,332.2646341999998,332.2646341999998,332.2646341999998,332.2646341999998,num_3,0.6576235000002271,332.94881070000065,332.94881070000065,None,,6,001,2025-12-17_13h50.36.513,2025C_exp1_detect,2022.2.4,59.923226362248805,
39.2,45,1,1,1,0,0,134,134,133,332.94881070000065,332.94881070000065,333.44916529999955,333.51628810000057,333.56664100000035,333.56664100000035,333.56664100000035,333.56664100000035,333.61653620000016,333.61653620000016,333.61653620000016,333.61653620000016,333.61653620000016,333.61653620000016,333.61653620000016,333.61653620000016,333.61653620000016,333.61653620000016,num_1,0.4743732999986605,334.11701079999966,334.11701079999966,None,,6,001,2025-12-17_13h50.36.513,2025C_exp1_detect,2022.2.4,59.923226362248805,
39.2,45,1,0,1,1,0,135,135,385,334.11701079999966,334.11701079999966,334.61742180000056,334.68408700000055,334.7345049000005,334.7345049000005,334.7345049000005,334.7345049000005,334.7841369000007,334.7841369000007,334.7841369000007,334.7841369000007,334.7841369000007,334.7841369000007,334.7841369000007,334.7841369000007,334.7841369000007,334.7841369000007,num_3,1.698902499999349,336.50231299999996,336.50231299999996,None,,6,001,2025-12-17_13h50.36.513,2025C_exp1_detect,2022.2.4,59.923226362248805,
29.4,315,1,0,1,1,0,136,136,392,336.50231299999996,336.50231299999996,337.0028253999999,337.06938290000016,337.1199824999994,337.1199824999994,337.1199824999994,337.1199824999994,337.1698746000011,337.1698746000011,337.1698746000011,337.1698746000011,337.1698746000011,337.1698746000011,337.1698746000011,337.1698746000011,337.1698746000011,337.1698746000011,num_3,0.7202245999988008,337.9204799000008,337.9204799000008,None,,6,001,2025-12-17_13h50.36.513,2025C_exp1_detect,2022.2.4,59.923226362248805,
19.6,315,0,0,-1,1,0,137,137,299,337.9204799000008,337.9204799000008,338.4210494000008,338.4878548000006,338.5381778000001,338.5381778000001,338.5381778000001,338.5381778000001,338.58804409999993,338.58804409999993,338.58804409999993,338.58804409999993,338.58804409999993,338.58804409999993,338.58804409999993,338.58804409999993,338.58804409999993,338.58804409999993,num_3,0.830513099998825,339.4387271000005,339.4387271000005,None,,6,001,2025-12-17_13h50.36.513,2025C_exp1_detect,2022.2.4,59.923226362248805,
42.7,315,0,0,1,1,0,138,138,377,339.4387271000005,339.4387271000005,339.9392101000003,340.0059014999997,340.0564863999998,340.0564863999998,340.0564863999998,340.0564863999998,340.1062747999995,340.1062747999995,340.1062747999995,340.1062747999995,340.1062747999995,340.1062747999995,340.1062747999995,340.1062747999995,340.1062747999995,340.1062747999995,num_3,0.8726207999998223,341.0067310000004,341.0067310000004,None,,6,001,2025-12-17_13h50.36.513,2025C_exp1_detect,2022.2.4,59.923226362248805,
35.3,45,0,1,1,1,0,139,139,402,341.0067310000004,341.0067310000004,341.5073562999996,341.57419519999985,341.6242038999999,341.6242038999999,341.6242038999999,341.6242038999999,341.6742669999994,341.6742669999994,341.6742669999994,341.6742669999994,341.6742669999994,341.6742669999994,341.6742669999994,341.6742669999994,341.6742669999994,341.6742669999994,num_1,0.4317596999999296,342.12473860000046,342.12473860000046,None,,6,001,2025-12-17_13h50.36.513,2025C_exp1_detect,2022.2.4,59.923226362248805,
29.4,315,1,1,1,0,0,140,140,140,342.12473860000046,342.12473860000046,342.6252508000007,342.6919375000007,342.74236239999937,342.74236239999937,342.74236239999937,342.74236239999937,342.7920161000011,342.7920161000011,342.7920161000011,342.7920161000011,342.7920161000011,342.7920161000011,342.7920161000011,342.7920161000011,342.7920161000011,342.7920161000011,num_1,0.48243319999983214,343.2925695999993,343.2925695999993,None,,6,001,2025-12-17_13h50.36.513,2025C_exp1_detect,2022.2.4,59.923226362248805,
29.4,45,0,1,1,0,0,141,141,113,343.2925695999993,343.2925695999993,343.7930358000003,343.8597770000006,343.90994369999953,343.90994369999953,343.90994369999953,343.90994369999953,343.9599558,343.9599558,343.9599558,343.9599558,343.9599558,343.9599558,343.9599558,343.9599558,343.9599558,343.9599558,num_1,0.46666949999871576,344.4437136000006,344.4437136000006,None,,6,001,2025-12-17_13h50.36.513,2025C_exp1_detect,2022.2.4,59.923226362248805,
25.5,315,0,0,-1,0,0,142,142,13,344.4437136000006,344.4437136000006,344.94425239999964,345.0109203000002,345.0612374000002,345.0612374000002,345.0612374000002,345.0612374000002,345.1111243999994,345.1111243999994,345.1111243999994,345.1111243999994,345.1111243999994,345.1111243999994,345.1111243999994,345.1111243999994,345.1111243999994,345.1111243999994,num_3,0.6432838000009724,345.7784225000005,345.7784225000005,None,,6,001,2025-12-17_13h50.36.513,2025C_exp1_detect,2022.2.4,59.923226362248805,
35.3,315,0,0,-1,-1,0,143,143,159,345.7784225000005,345.7784225000005,346.27886359999957,346.3456114999999,346.3958573000009,346.3958573000009,346.3958573000009,346.3958573000009,346.445739400001,346.445739400001,346.445739400001,346.445739400001,346.445739400001,346.445739400001,346.445739400001,346.445739400001,346.445739400001,346.445739400001,num_3,0.5572887999996965,347.0296447999999,347.0296447999999,None,,6,001,2025-12-17_13h50.36.513,2025C_exp1_detect,2022.2.4,59.923226362248805,
35.3,45,0,1,-1,0,0,144,144,42,347.0296447999999,347.0296447999999,347.5298845999996,347.5967042000002,347.6470280000003,347.6470280000003,347.6470280000003,347.6470280000003,347.69683519999944,347.69683519999944,347.69683519999944,347.69683519999944,347.69683519999944,347.69683519999944,347.69683519999944,347.69683519999944,347.69683519999944,347.69683519999944,num_3,0.593811599998844,348.3142546000008,348.3142546000008,None,,6,001,2025-12-17_13h50.36.513,2025C_exp1_detect,2022.2.4,59.923226362248805,
35.3,45,1,0,-1,0,0,145,145,24,348.3142546000008,348.3142546000008,348.81501970000045,348.88173560000087,348.9320405999997,348.9320405999997,348.9320405999997,348.9320405999997,348.98179120000077,348.98179120000077,348.98179120000077,348.98179120000077,348.98179120000077,348.98179120000077,348.98179120000077,348.98179120000077,348.98179120000077,348.98179120000077,num_1,0.44557110000005196,349.4489846000006,349.4489846000006,None,,6,001,2025-12-17_13h50.36.513,2025C_exp1_detect,2022.2.4,59.923226362248805,
42.7,45,0,0,1,1,0,146,146,368,349.4489846000006,349.4489846000006,349.9492070999995,350.0158569999994,350.0662373999994,350.0662373999994,350.0662373999994,350.0662373999994,350.11611510000057,350.11611510000057,350.11611510000057,350.11611510000057,350.11611510000057,350.11611510000057,350.11611510000057,350.11611510000057,350.11611510000057,350.11611510000057,num_1,0.461637299999893,350.59982559999935,350.59982559999935,None,,6,001,2025-12-17_13h50.36.513,2025C_exp1_detect,2022.2.4,59.923226362248805,
39.2,45,0,1,1,1,0,147,147,403,350.59982559999935,350.59982559999935,351.10034879999967,351.16721170000073,351.2175023000009,351.2175023000009,351.2175023000009,351.2175023000009,351.2672814000007,351.2672814000007,351.2672814000007,351.2672814000007,351.2672814000007,351.2672814000007,351.2672814000007,351.2672814000007,351.2672814000007,351.2672814000007,num_1,0.3593561999996382,351.6509085000007,351.6509085000007,None,,6,001,2025-12-17_13h50.36.513,2025C_exp1_detect,2022.2.4,59.923226362248805,
35.3,45,0,0,1,1,0,148,148,366,351.6509085000007,351.6509085000007,352.1515836999997,352.218207500001,352.2683731999996,352.2683731999996,352.2683731999996,352.2683731999996,352.31821539999964,352.31821539999964,352.31821539999964,352.31821539999964,352.31821539999964,352.31821539999964,352.31821539999964,352.31821539999964,352.31821539999964,352.31821539999964,num_1,0.38085899999805406,352.7184767000008,352.7184767000008,None,,6,001,2025-12-17_13h50.36.513,2025C_exp1_detect,2022.2.4,59.923226362248805,
29.4,45,1,0,-1,-1,0,149,149,167,352.7184767000008,352.7184767000008,353.21913080000104,353.2859006000008,353.33617239999967,353.33617239999967,353.33617239999967,353.33617239999967,353.38602099999935,353.38602099999935,353.38602099999935,353.38602099999935,353.38602099999935,353.38602099999935,353.38602099999935,353.38602099999935,353.38602099999935,353.38602099999935,num_1,0.431660399998691,353.8362771000002,353.8362771000002,None,,6,001,2025-12-17_13h50.36.513,2025C_exp1_detect,2022.2.4,59.923226362248805,
39.2,45,0,0,-1,0,0,150,150,7,353.8362771000002,353.8362771000002,354.3369967000008,354.4037180000005,354.4539028999998,354.4539028999998,354.4539028999998,354.4539028999998,354.50389579999955,354.50389579999955,354.50389579999955,354.50389579999955,354.50389579999955,354.50389579999955,354.50389579999955,354.50389579999955,354.50389579999955,354.50389579999955,num_3,0.7391985999993267,355.2710983999996,355.2710983999996,None,,6,001,2025-12-17_13h50.36.513,2025C_exp1_detect,2022.2.4,59.923226362248805,
22.7,45,0,1,-1,1,0,151,151,327,355.2710983999996,355.2710983999996,355.7717433000007,355.8382367000004,355.88865030000034,355.88865030000034,355.88865030000034,355.88865030000034,355.93854060000103,355.93854060000103,355.93854060000103,355.93854060000103,355.93854060000103,355.93854060000103,355.93854060000103,355.93854060000103,355.93854060000103,355.93854060000103,num_3,0.647638099998403,356.6058619000005,356.6058619000005,None,,6,001,2025-12-17_13h50.36.513,2025C_exp1_detect,2022.2.4,59.923226362248805,
15.7,45,1,0,-1,0,0,152,152,19,356.6058619000005,356.6058619000005,357.10635020000063,357.17310350000025,357.22338690000015,357.22338690000015,357.22338690000015,357.22338690000015,357.27324529999987,357.27324529999987,357.27324529999987,357.27324529999987,357.27324529999987,357.27324529999987,357.27324529999987,357.27324529999987,357.27324529999987,357.27324529999987,num_3,0.5766241999981503,357.87349579999955,357.87349579999955,None,,6,001,2025-12-17_13h50.36.513,2025C_exp1_detect,2022.2.4,59.923226362248805,
35.3,315,0,1,1,1,0,153,153,411,357.87349579999955,357.87349579999955,358.3739851,358.44126380000034,358.4914682999997,358.4914682999997,358.4914682999997,358.4914682999997,358.5412974000001,358.5412974000001,358.5412974000001,358.5412974000001,358.5412974000001,358.5412974000001,358.5412974000001,358.5412974000001,358.5412974000001,358.5412974000001,num_1,0.3414903000002596,358.90824259999954,358.90824259999954,None,,6,001,2025-12-17_13h50.36.513,2025C_exp1_detect,2022.2.4,59.923226362248805,
22.7,315,1,1,1,1,0,154,154,426,358.90824259999954,358.90824259999954,359.4087176000003,359.47549940000044,359.52581759999975,359.52581759999975,359.52581759999975,359.52581759999975,359.57552040000064,359.57552040000064,359.57552040000064,359.57552040000064,359.57552040000064,359.57552040000064,359.57552040000064,359.57552040000064,359.57552040000064,359.57552040000064,num_1,0.3860685999979978,359.99234680000063,359.99234680000063,None,,6,001,2025-12-17_13h50.36.513,2025C_exp1_detect,2022.2.4,59.923226362248805,
19.6,315,1,1,1,-1,0,155,155,281,359.99234680000063,359.99234680000063,360.4928394000008,360.55947789999937,360.60977189999994,360.60977189999994,360.60977189999994,360.60977189999994,360.6596655000003,360.6596655000003,360.6596655000003,360.6596655000003,360.6596655000003,360.6596655000003,360.6596655000003,360.6596655000003,360.6596655000003,360.6596655000003,num_1,0.44675159999951575,361.1268336000003,361.1268336000003,None,,6,001,2025-12-17_13h50.36.513,2025C_exp1_detect,2022.2.4,59.923226362248805,
39.2,45,1,1,1,-1,0,156,156,277,361.1268336000003,361.1268336000003,361.62728270000025,361.69451890000073,361.74425640000027,361.74425640000027,361.74425640000027,361.74425640000027,361.7943982000006,361.7943982000006,361.7943982000006,361.7943982000006,361.7943982000006,361.7943982000006,361.7943982000006,361.7943982000006,361.7943982000006,361.7943982000006,num_1,0.4236202999991292,362.2445802000011,362.2445802000011,None,,6,001,2025-12-17_13h50.36.513,2025C_exp1_detect,2022.2.4,59.923226362248805,
35.3,45,0,1,1,0,0,157,157,114,362.2445802000011,362.2445802000011,362.7450381999997,362.8120110000009,362.8624957000002,362.8624957000002,362.8624957000002,362.8624957000002,362.91220780000094,362.91220780000094,362.91220780000094,362.91220780000094,362.91220780000094,362.91220780000094,362.91220780000094,362.91220780000094,362.91220780000094,362.91220780000094,num_1,0.3936101999997845,363.3292394000009,363.3292394000009,None,,6,001,2025-12-17_13h50.36.513,2025C_exp1_detect,2022.2.4,59.923226362248805,
35.3,315,1,0,1,0,0,158,158,105,363.3292394000009,363.3292394000009,363.82973720000064,363.8964848000005,363.9467469000001,363.9467469000001,363.9467469000001,363.9467469000001,363.9964790999993,363.9964790999993,363.9964790999993,363.9964790999993,363.9964790999993,363.9964790999993,363.9964790999993,363.9964790999993,363.9964790999993,363.9964790999993,num_3,0.5665587000012238,364.58068449999973,364.58068449999973,None,,6,001,2025-12-17_13h50.36.513,2025C_exp1_detect,2022.2.4,59.923226362248805,
12.1,315,1,0,1,1,0,159,159,387,364.58068449999973,364.58068449999973,365.08126960000027,365.1478201,365.19811460000074,365.19811460000074,365.19811460000074,365.19811460000074,365.248121900001,365.248121900001,365.248121900001,365.248121900001,365.248121900001,365.248121900001,365.248121900001,365.248121900001,365.248121900001,365.248121900001,num_3,1.0106528999995135,366.28217909999967,366.28217909999967,None,,6,001,2025-12-17_13h50.36.513,2025C_exp1_detect,2022.2.4,59.923226362248805,
42.7,315,1,0,1,0,0,160,160,107,366.28217909999967,366.28217909999967,366.7826307000005,366.8494111000009,366.89971590000005,366.89971590000005,366.89971590000005,366.89971590000005,366.9496071000003,366.9496071000003,366.9496071000003,366.9496071000003,366.9496071000003,366.9496071000003,366.9496071000003,366.9496071000003,366.9496071000003,366.9496071000003,num_3,0.62822640000104,367.6000742999995,367.6000742999995,None,,6,001,2025-12-17_13h50.36.513,2025C_exp1_detect,2022.2.4,59.923226362248805,
12.1,315,1,0,1,0,0,161,161,99,367.6000742999995,367.6000742999995,368.1003621000009,368.16738410000016,368.2174621000004,368.2174621000004,368.2174621000004,368.2174621000004,368.26726300000064,368.26726300000064,368.26726300000064,368.26726300000064,368.26726300000064,368.26726300000064,368.26726300000064,368.26726300000064,368.26726300000064,368.26726300000064,num_3,0.5670751999996355,368.8514036000006,368.8514036000006,None,,6,001,2025-12-17_13h50.36.513,2025C_exp1_detect,2022.2.4,59.923226362248805,
12.1,45,1,1,1,0,0,162,162,126,368.8514036000006,368.8514036000006,369.3520558000009,369.4187804000003,369.4690677000008,369.4690677000008,369.4690677000008,369.4690677000008,369.51896170000055,369.51896170000055,369.51896170000055,369.51896170000055,369.51896170000055,369.51896170000055,369.51896170000055,369.51896170000055,369.51896170000055,369.51896170000055,num_1,0.5480660999992324,370.08597699999973,370.08597699999973,None,,6,001,2025-12-17_13h50.36.513,2025C_exp1_detect,2022.2.4,59.923226362248805,
29.4,45,1,1,-1,-1,0,163,163,203,370.08597699999973,370.08597699999973,370.5862284999994,370.6532242000003,370.7035643999998,370.7035643999998,370.7035643999998,370.7035643999998,370.7533179000011,370.7533179000011,370.7533179000011,370.7533179000011,370.7533179000011,370.7533179000011,370.7533179000011,370.7533179000011,370.7533179000011,370.7533179000011,num_3,0.5937840999986292,371.3705873000008,371.3705873000008,None,,6,001,2025-12-17_13h50.36.513,2025C_exp1_detect,2022.2.4,59.923226362248805,
29.4,315,1,1,-1,1,0,164,164,356,371.3705873000008,371.3705873000008,371.87109820000023,371.93784549999964,371.9880710000007,371.9880710000007,371.9880710000007,371.9880710000007,372.03801830000066,372.03801830000066,372.03801830000066,372.03801830000066,372.03801830000066,372.03801830000066,372.03801830000066,372.03801830000066,372.03801830000066,372.03801830000066,num_1,0.9090222999993784,372.97215419999975,372.97215419999975,None,,6,001,2025-12-17_13h50.36.513,2025C_exp1_detect,2022.2.4,59.923226362248805,
19.6,315,1,0,-1,1,0,165,165,317,372.97215419999975,372.97215419999975,373.47268709999935,373.5394308999994,373.5897226999996,373.5897226999996,373.5897226999996,373.5897226999996,373.6395779000004,373.6395779000004,373.6395779000004,373.6395779000004,373.6395779000004,373.6395779000004,373.6395779000004,373.6395779000004,373.6395779000004,373.6395779000004,num_1,0.5307423999993262,374.19005600000037,374.19005600000037,None,,6,001,2025-12-17_13h50.36.513,2025C_exp1_detect,2022.2.4,59.923226362248805,
39.2,315,0,1,-1,1,0,166,166,340,374.19005600000037,374.19005600000037,374.6906200000003,374.75733130000026,374.80763670000033,374.80763670000033,374.80763670000033,374.80763670000033,374.85751210000035,374.85751210000035,374.85751210000035,374.85751210000035,374.85751210000035,374.85751210000035,374.85751210000035,374.85751210000035,374.85751210000035,374.85751210000035,num_3,0.729269899999963,375.60817340000085,375.60817340000085,None,,6,001,2025-12-17_13h50.36.513,2025C_exp1_detect,2022.2.4,59.923226362248805,
19.6,315,0,1,1,1,0,167,167,407,375.60817340000085,375.60817340000085,376.1085680999995,376.1753101000004,376.2256991999993,376.2256991999993,376.2256991999993,376.2256991999993,376.2754310999999,376.2754310999999,376.2754310999999,376.2754310999999,376.2754310999999,376.2754310999999,376.2754310999999,376.2754310999999,376.2754310999999,376.2754310999999,num_1,0.42223869999997987,376.72606840000026,376.72606840000026,None,,6,001,2025-12-17_13h50.36.513,2025C_exp1_detect,2022.2.4,59.923226362248805,
12.1,45,0,0,1,-1,0,168,168,216,376.72606840000026,376.72606840000026,377.22672929999953,377.2934159000006,377.3437163000008,377.3437163000008,377.3437163000008,377.3437163000008,377.39309539999977,377.39309539999977,377.39309539999977,377.39309539999977,377.39309539999977,377.39309539999977,377.39309539999977,377.39309539999977,377.39309539999977,377.39309539999977,num_3,0.8574486999996225,378.2775188000005,378.2775188000005,None,,6,001,2025-12-17_13h50.36.513,2025C_exp1_detect,2022.2.4,59.923226362248805,
12.1,45,1,1,1,-1,0,169,169,270,378.2775188000005,378.2775188000005,378.7782266999993,378.8449716999994,378.8952550999993,378.8952550999993,378.8952550999993,378.8952550999993,378.94512959999975,378.94512959999975,378.94512959999975,378.94512959999975,378.94512959999975,378.94512959999975,378.94512959999975,378.94512959999975,378.94512959999975,378.94512959999975,num_1,0.4410708000004888,379.41218299999946,379.41218299999946,None,,6,001,2025-12-17_13h50.36.513,2025C_exp1_detect,2022.2.4,59.923226362248805,
15.7,315,1,0,1,-1,0,170,170,244,379.41218299999946,379.41218299999946,379.91271250000045,379.97946350000075,380.0297376000008,380.0297376000008,380.0297376000008,380.0297376000008,380.07948470000065,380.07948470000065,380.07948470000065,380.07948470000065,380.07948470000065,380.07948470000065,380.07948470000065,380.07948470000065,380.07948470000065,380.07948470000065,num_3,0.9147184000003108,381.01356059999944,381.01356059999944,None,,6,001,2025-12-17_13h50.36.513,2025C_exp1_detect,2022.2.4,59.923226362248805,
15.7,45,0,1,1,0,0,171,171,109,381.01356059999944,381.01356059999944,381.5140624000005,381.58082150000064,381.6312141999997,381.6312141999997,381.6312141999997,381.6312141999997,381.6811012999997,381.6811012999997,381.6811012999997,381.6811012999997,381.6811012999997,381.6811012999997,381.6811012999997,381.6811012999997,381.6811012999997,381.6811012999997,num_1,0.4412628999989465,382.14803590000065,382.14803590000065,None,,6,001,2025-12-17_13h50.36.513,2025C_exp1_detect,2022.2.4,59.923226362248805,
29.4,315,1,1,1,-1,0,172,172,284,382.14803590000065,382.14803590000065,382.6485444,382.7149524999995,382.76541839999936,382.76541839999936,382.76541839999936,382.76541839999936,382.81542490000083,382.81542490000083,382.81542490000083,382.81542490000083,382.81542490000083,382.81542490000083,382.81542490000083,382.81542490000083,382.81542490000083,382.81542490000083,num_1,0.41032999999970343,383.248991200001,383.248991200001,None,,6,001,2025-12-17_13h50.36.513,2025C_exp1_detect,2022.2.4,59.923226362248805,
42.7,45,0,1,1,0,0,173,173,116,383.248991200001,383.248991200001,383.74964180000006,383.81635130000086,383.8666733,383.8666733,383.8666733,383.8666733,383.9165450999999,383.9165450999999,383.9165450999999,383.9165450999999,383.9165450999999,383.9165450999999,383.9165450999999,383.9165450999999,383.9165450999999,383.9165450999999,num_1,0.32528329999968264,384.26665650000086,384.26665650000086,None,,6,001,2025-12-17_13h50.36.513,2025C_exp1_detect,2022.2.4,59.923226362248805,
22.7,315,1,0,1,-1,0,174,174,246,384.26665650000086,384.26665650000086,384.76718019999953,384.8337196000002,384.88434210000105,384.88434210000105,384.88434210000105,384.88434210000105,384.93421709999984,384.93421709999984,384.93421709999984,384.93421709999984,384.93421709999984,384.93421709999984,384.93421709999984,384.93421709999984,384.93421709999984,384.93421709999984,num_3,0.6518092999986038,385.6181819000003,385.6181819000003,None,,6,001,2025-12-17_13h50.36.513,2025C_exp1_detect,2022.2.4,59.923226362248805,
15.7,315,1,1,-1,-1,0,175,175,208,385.6181819000003,385.6181819000003,386.1186712000008,386.18536179999955,386.23559380000097,386.23559380000097,386.23559380000097,386.23559380000097,386.28556320000007,386.28556320000007,386.28556320000007,386.28556320000007,386.28556320000007,386.28556320000007,386.28556320000007,386.28556320000007,386.28556320000007,386.28556320000007,num_3,0.6844608000001244,387.00273990000005,387.00273990000005,None,,6,001,2025-12-17_13h50.36.513,2025C_exp1_detect,2022.2.4,59.923226362248805,
25.5,315,1,0,-1,-1,0,176,176,175,387.00273990000005,387.00273990000005,387.50325500000054,387.5701025999997,387.62033079999946,387.62033079999946,387.62033079999946,387.62033079999946,387.6702013000004,387.6702013000004,387.6702013000004,387.6702013000004,387.6702013000004,387.6702013000004,387.6702013000004,387.6702013000004,387.6702013000004,387.6702013000004,num_1,0.4604891000008138,388.15399720000005,388.15399720000005,None,,6,001,2025-12-17_13h50.36.513,2025C_exp1_detect,2022.2.4,59.923226362248805,
15.7,45,0,1,1,1,0,177,177,397,388.15399720000005,388.15399720000005,388.65441270000065,388.7214156,388.771678600001,388.771678600001,388.771678600001,388.771678600001,388.82137729999977,388.82137729999977,388.82137729999977,388.82137729999977,388.82137729999977,388.82137729999977,388.82137729999977,388.82137729999977,388.82137729999977,388.82137729999977,num_1,0.3809417000002213,389.2219008000002,389.2219008000002,None,,6,001,2025-12-17_13h50.36.513,2025C_exp1_detect,2022.2.4,59.923226362248805,
42.7,315,0,0,1,-1,0,178,178,233,389.2219008000002,389.2219008000002,389.72228579999955,389.7890916999995,389.8391087000009,389.8391087000009,389.8391087000009,389.8391087000009,389.8889752999994,389.8889752999994,389.8889752999994,389.8889752999994,389.8889752999994,389.8889752999994,389.8889752999994,389.8889752999994,389.8889752999994,389.8889752999994,num_3,0.9852983000009772,390.90673850000076,390.90673850000076,None,,6,001,2025-12-17_13h50.36.513,2025C_exp1_detect,2022.2.4,59.923226362248805,
12.1,45,1,0,1,1,0,179,179,378,390.90673850000076,390.90673850000076,391.40699869999935,391.47375310000007,391.5239965999999,391.5239965999999,391.5239965999999,391.5239965999999,391.5738900999995,391.5738900999995,391.5738900999995,391.5738900999995,391.5738900999995,391.5738900999995,391.5738900999995,391.5738900999995,391.5738900999995,391.5738900999995,num_3,0.6520282000010411,392.2578480000002,392.2578480000002,None,,6,001,2025-12-17_13h50.36.513,2025C_exp1_detect,2022.2.4,59.923226362248805,
39.2,315,0,1,-1,-1,0,180,180,196,392.2578480000002,392.2578480000002,392.75834309999937,392.82521390000056,392.87581260000024,392.87581260000024,392.87581260000024,392.87581260000024,392.9256675000006,392.9256675000006,392.9256675000006,392.9256675000006,392.9256675000006,392.9256675000006,392.9256675000006,392.9256675000006,392.9256675000006,392.9256675000006,num_3,0.6048908000002484,393.5595490000005,393.5595490000005,None,,6,001,2025-12-17_13h50.36.513,2025C_exp1_detect,2022.2.4,59.923226362248805,
15.7,45,1,0,-1,1,0,181,181,307,393.5595490000005,393.5595490000005,394.0599847000003,394.1265548000001,394.1769241000011,394.1769241000011,394.1769241000011,394.1769241000011,394.22672560000046,394.22672560000046,394.22672560000046,394.22672560000046,394.22672560000046,394.22672560000046,394.22672560000046,394.22672560000046,394.22672560000046,394.22672560000046,num_3,0.5598442999989857,394.81051240000033,394.81051240000033,None,,6,001,2025-12-17_13h50.36.513,2025C_exp1_detect,2022.2.4,59.923226362248805,
39.2,45,0,0,1,0,0,182,182,79,394.81051240000033,394.81051240000033,395.31121110000004,395.3779320000003,395.42826239999977,395.42826239999977,395.42826239999977,395.42826239999977,395.4780989000001,395.4780989000001,395.4780989000001,395.4780989000001,395.4780989000001,395.4780989000001,395.4780989000001,395.4780989000001,395.4780989000001,395.4780989000001,num_3,0.6676603999994768,396.16201889999957,396.16201889999957,None,,6,001,2025-12-17_13h50.36.513,2025C_exp1_detect,2022.2.4,59.923226362248805,
35.3,315,1,1,-1,-1,0,183,183,213,396.16201889999957,396.16201889999957,396.6624230000007,396.72927570000047,396.7795947000004,396.7795947000004,396.7795947000004,396.7795947000004,396.8294283999994,396.8294283999994,396.8294283999994,396.8294283999994,396.8294283999994,396.8294283999994,396.8294283999994,396.8294283999994,396.8294283999994,396.8294283999994,num_3,0.6847608999987642,397.54676109999946,397.54676109999946,None,,6,001,2025-12-17_13h50.36.513,2025C_exp1_detect,2022.2.4,59.923226362248805,
25.5,45,0,0,1,0,0,184,184,76,397.54676109999946,397.54676109999946,398.0472533000002,398.1141189,398.16432579999946,398.16432579999946,398.16432579999946,398.16432579999946,398.21419590000096,398.21419590000096,398.21419590000096,398.21419590000096,398.21419590000096,398.21419590000096,398.21419590000096,398.21419590000096,398.21419590000096,398.21419590000096,num_3,0.6443568000004234,398.88145110000096,398.88145110000096,None,,6,001,2025-12-17_13h50.36.513,2025C_exp1_detect,2022.2.4,59.923226362248805,
22.7,315,0,1,-1,-1,0,185,185,192,398.88145110000096,398.88145110000096,399.38170420000006,399.4485298999998,399.49896379999973,399.49896379999973,399.49896379999973,399.49896379999973,399.5488212999999,399.5488212999999,399.5488212999999,399.5488212999999,399.5488212999999,399.5488212999999,399.5488212999999,399.5488212999999,399.5488212999999,399.5488212999999,num_3,0.5741796000011163,400.1493295999999,400.1493295999999,None,,6,001,2025-12-17_13h50.36.513,2025C_exp1_detect,2022.2.4,59.923226362248805,
19.6,315,0,0,1,1,0,186,186,371,400.1493295999999,400.1493295999999,400.6498657000002,400.71665570000096,400.766875100001,400.766875100001,400.766875100001,400.766875100001,400.8167347000008,400.8167347000008,400.8167347000008,400.8167347000008,400.8167347000008,400.8167347000008,400.8167347000008,400.8167347000008,400.8167347000008,400.8167347000008,num_3,0.5463747000003423,401.38402340000084,401.38402340000084,None,,6,001,2025-12-17_13h50.36.513,2025C_exp1_detect,2022.2.4,59.923226362248805,
25.5,315,0,1,1,1,0,187,187,409,401.38402340000084,401.38402340000084,401.8845523000009,401.95113720000063,402.00144439999985,402.00144439999985,402.00144439999985,402.00144439999985,402.0513251000002,402.0513251000002,402.0513251000002,402.0513251000002,402.0513251000002,402.0513251000002,402.0513251000002,402.0513251000002,402.0513251000002,402.0513251000002,num_1,0.4142137000008006,402.48500259999946,402.48500259999946,None,,6,001,2025-12-17_13h50.36.513,2025C_exp1_detect,2022.2.4,59.923226362248805,
42.7,315,0,1,1,0,0,188,188,125,402.48500259999946,402.48500259999946,402.9855252999996,403.05227749999995,403.1024292000011,403.1024292000011,403.1024292000011,403.1024292000011,403.1523356000007,403.1523356000007,403.1523356000007,403.1523356000007,403.1523356000007,403.1523356000007,403.1523356000007,403.1523356000007,403.1523356000007,403.1523356000007,num_1,0.4174692000005962,403.6024929999994,403.6024929999994,None,,6,001,2025-12-17_13h50.36.513,2025C_exp1_detect,2022.2.4,59.923226362248805,
19.6,315,1,0,-1,-1,0,189,189,173,403.6024929999994,403.6024929999994,404.1035156000007,404.170030100001,404.22047810000095,404.22047810000095,404.22047810000095,404.22047810000095,404.2703302,404.2703302,404.2703302,404.2703302,404.2703302,404.2703302,404.2703302,404.2703302,404.2703302,404.2703302,num_1,0.564116999998987,404.8540449000002,404.8540449000002,None,,6,001,2025-12-17_13h50.36.513,2025C_exp1_detect,2022.2.4,59.923226362248805,
35.3,45,1,1,1,0,0,190,190,132,404.8540449000002,404.8540449000002,405.3546021000011,405.42131319999953,405.4716312999999,405.4716312999999,405.4716312999999,405.4716312999999,405.5213709999998,405.5213709999998,405.5213709999998,405.5213709999998,405.5213709999998,405.5213709999998,405.5213709999998,405.5213709999998,405.5213709999998,405.5213709999998,num_1,0.5616338999998334,406.105285300001,406.105285300001,None,,6,001,2025-12-17_13h50.36.513,2025C_exp1_detect,2022.2.4,59.923226362248805,
22.7,45,1,1,1,0,0,191,191,129,406.105285300001,406.105285300001,406.6057886999997,406.6725163000001,406.7228115000007,406.7228115000007,406.7228115000007,406.7228115000007,406.7725724000002,406.7725724000002,406.7725724000002,406.7725724000002,406.7725724000002,406.7725724000002,406.7725724000002,406.7725724000002,406.7725724000002,406.7725724000002,num_1,0.5010415000006105,407.30652850000024,407.30652850000024,None,,6,001,2025-12-17_13h50.36.513,2025C_exp1_detect,2022.2.4,59.923226362248805,
39.2,45,0,0,1,-1,0,192,192,223,407.30652850000024,407.30652850000024,407.8069977999994,407.8736118000006,407.92401019999943,407.92401019999943,407.92401019999943,407.92401019999943,407.9739063999996,407.9739063999996,407.9739063999996,407.9739063999996,407.9739063999996,407.9739063999996,407.9739063999996,407.9739063999996,407.9739063999996,407.9739063999996,num_1,0.4602437999992617,408.45755010000084,408.45755010000084,None,,6,001,2025-12-17_13h50.36.513,2025C_exp1_detect,2022.2.4,59.923226362248805,
19.6,315,1,1,1,1,0,193,193,425,408.45755010000084,408.45755010000084,408.95814080000036,409.02479740000035,409.0751687000002,409.0751687000002,409.0751687000002,409.0751687000002,409.1249564,409.1249564,409.1249564,409.1249564,409.1249564,409.1249564,409.1249564,409.1249564,409.1249564,409.1249564,num_1,0.49401269999998476,409.6421773000011,409.6421773000011,None,,6,001,2025-12-17_13h50.36.513,2025C_exp1_detect,2022.2.4,59.923226362248805,
35.3,315,1,0,-1,-1,0,194,194,177,409.6421773000011,409.6421773000011,410.1426968000005,410.2094138000002,410.25974080000105,410.25974080000105,410.25974080000105,410.25974080000105,410.30959390000044,410.30959390000044,410.30959390000044,410.30959390000044,410.30959390000044,410.30959390000044,410.30959390000044,410.30959390000044,410.30959390000044,410.30959390000044,num_1,0.6286203999998179,410.96013460000086,410.96013460000086,None,,6,001,2025-12-17_13h50.36.513,2025C_exp1_detect,2022.2.4,59.923226362248805,
22.7,45,0,1,1,-1,0,195,195,255,410.96013460000086,410.96013460000086,411.46062939999956,411.52735269999994,411.5778223999996,411.5778223999996,411.5778223999996,411.5778223999996,411.6275852000008,411.6275852000008,411.6275852000008,411.6275852000008,411.6275852000008,411.6275852000008,411.6275852000008,411.6275852000008,411.6275852000008,411.6275852000008,num_1,0.49425199999950564,412.1446917000003,412.1446917000003,None,,6,001,2025-12-17_13h50.36.513,2025C_exp1_detect,2022.2.4,59.923226362248805,
