contrast,ori,side,precue,trials.thisRepN,trials.thisTrialN,trials.thisN,trials.thisIndex,fix1.started,fix2.started,precue_2.started,precue_2.stopped,left_grating.started,right_grating.started,noise_left2.started,noise_right2.started,fix1.stopped,fix2.stopped,left_grating.stopped,right_grating.stopped,noise_left2.stopped,noise_right2.stopped,key_resp.started,fix1_2.started,fix2_2.started,key_resp.keys,key_resp.rt,key_resp_2.started,break_text_2.started,key_resp_2.keys,key_resp_2.rt,participant,session,date,expName,psychopyVersion,frameRate,
12.1,315,-1,-1,0,0,0,81,36.135194199999205,36.135194199999205,36.612710599999446,36.6794562999994,36.742708999999195,36.742708999999195,36.742708999999195,36.742708999999195,36.77955219999967,36.77955219999967,36.77955219999967,36.77955219999967,36.77955219999967,36.77955219999967,36.79625549999946,36.79625549999946,36.79625549999946,right,6.366979299999912,43.186021999999866,43.186021999999866,None,,6,001,2025-12-17_13h08.42.043,2025C_exp1_comp,2022.2.4,59.925273184112505,
42.7,315,1,0,0,1,1,35,43.186021999999866,43.186021999999866,43.686460899999474,43.75325799999973,43.80357019999974,43.80357019999974,43.80357019999974,43.80357019999974,43.853260599999885,43.853260599999885,43.853260599999885,43.853260599999885,43.853260599999885,43.853260599999885,43.853260599999885,43.853260599999885,43.853260599999885,right,1.5015082999998413,45.37204939999992,45.37204939999992,None,,6,001,2025-12-17_13h08.42.043,2025C_exp1_comp,2022.2.4,59.925273184112505,
12.1,315,-1,0,0,2,2,9,45.37204939999992,45.37204939999992,45.87193849999949,45.93869629999972,45.988963999999214,45.988963999999214,45.988963999999214,45.988963999999214,46.03889309999977,46.03889309999977,46.03889309999977,46.03889309999977,46.03889309999977,46.03889309999977,46.03889309999977,46.03889309999977,46.03889309999977,right,0.9474471000003177,47.00656859999981,47.00656859999981,None,,6,001,2025-12-17_13h08.42.043,2025C_exp1_comp,2022.2.4,59.925273184112505,
35.3,45,-1,0,0,3,3,6,47.00656859999981,47.00656859999981,47.50693069999943,47.57378249999965,47.62420889999976,47.62420889999976,47.62420889999976,47.62420889999976,47.6743577999996,47.6743577999996,47.6743577999996,47.6743577999996,47.6743577999996,47.6743577999996,47.6743577999996,47.6743577999996,47.6743577999996,left,0.6001288000006753,48.2912495999999,48.2912495999999,None,,6,001,2025-12-17_13h08.42.043,2025C_exp1_comp,2022.2.4,59.925273184112505,
35.3,45,1,-1,0,4,4,96,48.2912495999999,48.2912495999999,48.791807399999925,48.8582964999996,48.9084157999996,48.9084157999996,48.9084157999996,48.9084157999996,48.95847659999981,48.95847659999981,48.95847659999981,48.95847659999981,48.95847659999981,48.95847659999981,48.95847659999981,48.95847659999981,48.95847659999981,left,54.908750799999325,103.89672989999963,103.89672989999963,None,,6,001,2025-12-17_13h08.42.043,2025C_exp1_comp,2022.2.4,59.925273184112505,
42.7,315,-1,-1,0,5,5,89,103.89672989999963,103.89672989999963,104.39720249999937,104.46403889999965,104.51407789999939,104.51407789999939,104.51407789999939,104.51407789999939,104.56392229999983,104.56392229999983,104.56392229999983,104.56392229999983,104.56392229999983,104.56392229999983,104.56392229999983,104.56392229999983,104.56392229999983,right,1.0470941000003222,105.63167329999942,105.63167329999942,None,,6,001,2025-12-17_13h08.42.043,2025C_exp1_comp,2022.2.4,59.925273184112505,
29.4,45,1,0,0,6,6,23,105.63167329999942,105.63167329999942,106.13221009999961,106.19890869999927,106.24921059999997,106.24921059999997,106.24921059999997,106.24921059999997,106.29953969999951,106.29953969999951,106.29953969999951,106.29953969999951,106.29953969999951,106.29953969999951,106.29953969999951,106.29953969999951,106.29953969999951,right,1.015298299999813,107.3334290999992,107.3334290999992,None,,6,001,2025-12-17_13h08.42.043,2025C_exp1_comp,2022.2.4,59.925273184112505,
22.7,315,1,1,0,7,7,66,107.3334290999992,107.3334290999992,107.83401019999928,107.90060379999977,107.95092149999982,107.95092149999982,107.95092149999982,107.95092149999982,108.0007741999998,108.0007741999998,108.0007741999998,108.0007741999998,108.0007741999998,108.0007741999998,108.0007741999998,108.0007741999998,108.0007741999998,left,1.4822229000001244,109.50223939999978,109.50223939999978,None,,6,001,2025-12-17_13h08.42.043,2025C_exp1_comp,2022.2.4,59.925273184112505,
39.2,315,-1,0,0,8,8,16,109.50223939999978,109.50223939999978,110.00270209999962,110.0694442999993,110.11974649999956,110.11974649999956,110.11974649999956,110.11974649999956,110.16967079999995,110.16967079999995,110.16967079999995,110.16967079999995,110.16967079999995,110.16967079999995,110.16967079999995,110.16967079999995,110.16967079999995,right,0.7695981999995638,110.97044099999948,110.97044099999948,None,,6,001,2025-12-17_13h08.42.043,2025C_exp1_comp,2022.2.4,59.925273184112505,
39.2,315,1,0,0,9,9,34,110.97044099999948,110.97044099999948,111.47083289999955,111.53769929999999,111.58807919999981,111.58807919999981,111.58807919999981,111.58807919999981,111.63765479999984,111.63765479999984,111.63765479999984,111.63765479999984,111.63765479999984,111.63765479999984,111.63765479999984,111.63765479999984,111.63765479999984,left,0.7973469999997178,112.45516939999925,112.45516939999925,None,,6,001,2025-12-17_13h08.42.043,2025C_exp1_comp,2022.2.4,59.925273184112505,
15.7,315,-1,1,0,10,10,46,112.45516939999925,112.45516939999925,112.95547979999992,113.02218069999981,113.07254569999986,113.07254569999986,113.07254569999986,113.07254569999986,113.12250679999943,113.12250679999943,113.12250679999943,113.12250679999943,113.12250679999943,113.12250679999943,113.12250679999943,113.12250679999943,113.12250679999943,right,0.8084660000004078,113.9571305999998,113.9571305999998,None,,6,001,2025-12-17_13h08.42.043,2025C_exp1_comp,2022.2.4,59.925273184112505,
25.5,315,1,0,0,11,11,31,113.9571305999998,113.9571305999998,114.4577234999997,114.52432259999932,114.57433169999968,114.57433169999968,114.57433169999968,114.57433169999968,114.62402769999971,114.62402769999971,114.62402769999971,114.62402769999971,114.62402769999971,114.62402769999971,114.62402769999971,114.62402769999971,114.62402769999971,left,0.87509080000018,115.52499379999972,115.52499379999972,None,,6,001,2025-12-17_13h08.42.043,2025C_exp1_comp,2022.2.4,59.925273184112505,
25.5,45,-1,1,0,12,12,40,115.52499379999972,115.52499379999972,116.02568470000006,116.09224649999942,116.14241299999958,116.14241299999958,116.14241299999958,116.14241299999958,116.19229019999966,116.19229019999966,116.19229019999966,116.19229019999966,116.19229019999966,116.19229019999966,116.19229019999966,116.19229019999966,116.19229019999966,right,0.8584807999995974,117.07640790000005,117.07640790000005,None,,6,001,2025-12-17_13h08.42.043,2025C_exp1_comp,2022.2.4,59.925273184112505,
12.1,45,1,0,0,13,13,18,117.07640790000005,117.07640790000005,117.57695259999946,117.64382639999985,117.69418640000004,117.69418640000004,117.69418640000004,117.69418640000004,117.7437516,117.7437516,117.7437516,117.7437516,117.7437516,117.7437516,117.7437516,117.7437516,117.7437516,left,0.9550699999999779,118.72806289999971,118.72806289999971,None,,6,001,2025-12-17_13h08.42.043,2025C_exp1_comp,2022.2.4,59.925273184112505,
22.7,315,-1,-1,0,14,14,84,118.72806289999971,118.72806289999971,119.22860199999923,119.2953263999998,119.34605620000002,119.34605620000002,119.34605620000002,119.34605620000002,119.39541409999947,119.39541409999947,119.39541409999947,119.39541409999947,119.39541409999947,119.39541409999947,119.39541409999947,119.39541409999947,119.39541409999947,right,0.9190668999999616,120.34637539999949,120.34637539999949,None,,6,001,2025-12-17_13h08.42.043,2025C_exp1_comp,2022.2.4,59.925273184112505,
35.3,315,-1,-1,0,15,15,87,120.34637539999949,120.34637539999949,120.84694760000002,120.91367179999997,120.96395129999928,120.96395129999928,120.96395129999928,120.96395129999928,121.0136494999997,121.0136494999997,121.0136494999997,121.0136494999997,121.0136494999997,121.0136494999997,121.0136494999997,121.0136494999997,121.0136494999997,left,1.2213921000002301,122.26505829999951,122.26505829999951,None,,6,001,2025-12-17_13h08.42.043,2025C_exp1_comp,2022.2.4,59.925273184112505,
15.7,315,-1,0,0,16,16,10,122.26505829999951,122.26505829999951,122.7654636999996,122.83217960000002,122.88254589999997,122.88254589999997,122.88254589999997,122.88254589999997,122.93232439999974,122.93232439999974,122.93232439999974,122.93232439999974,122.93232439999974,122.93232439999974,122.93232439999974,122.93232439999974,122.93232439999974,right,0.7504026000005979,123.6996780999998,123.6996780999998,None,,6,001,2025-12-17_13h08.42.043,2025C_exp1_comp,2022.2.4,59.925273184112505,
42.7,45,1,0,0,17,17,26,123.6996780999998,123.6996780999998,124.20020619999923,124.26693949999935,124.31729219999943,124.31729219999943,124.31729219999943,124.31729219999943,124.36717839999983,124.36717839999983,124.36717839999983,124.36717839999983,124.36717839999983,124.36717839999983,124.36717839999983,124.36717839999983,124.36717839999983,left,0.8832607999993343,125.26792409999962,125.26792409999962,None,,6,001,2025-12-17_13h08.42.043,2025C_exp1_comp,2022.2.4,59.925273184112505,
19.6,315,1,1,0,18,18,65,125.26792409999962,125.26792409999962,125.76861649999955,125.83515119999993,125.88557779999974,125.88557779999974,125.88557779999974,125.88557779999974,125.93529809999927,125.93529809999927,125.93529809999927,125.93529809999927,125.93529809999927,125.93529809999927,125.93529809999927,125.93529809999927,125.93529809999927,left,1.0514972000000853,127.01969349999945,127.01969349999945,None,,6,001,2025-12-17_13h08.42.043,2025C_exp1_comp,2022.2.4,59.925273184112505,
15.7,45,-1,-1,0,19,19,73,127.01969349999945,127.01969349999945,127.52025609999964,127.58722949999992,127.63760379999985,127.63760379999985,127.63760379999985,127.63760379999985,127.6870274999992,127.6870274999992,127.6870274999992,127.6870274999992,127.6870274999992,127.6870274999992,127.6870274999992,127.6870274999992,127.6870274999992,left,1.5232856000002357,129.23865839999962,129.23865839999962,None,,6,001,2025-12-17_13h08.42.043,2025C_exp1_comp,2022.2.4,59.925273184112505,
12.1,45,-1,1,0,20,20,36,129.23865839999962,129.23865839999962,129.73915639999996,129.80588910000006,129.85631479999938,129.85631479999938,129.85631479999938,129.85631479999938,129.90719759999956,129.90719759999956,129.90719759999956,129.90719759999956,129.90719759999956,129.90719759999956,129.90719759999956,129.90719759999956,129.90719759999956,right,1.095294599999761,131.0240729999996,131.0240729999996,None,,6,001,2025-12-17_13h08.42.043,2025C_exp1_comp,2022.2.4,59.925273184112505,
29.4,45,-1,0,0,21,21,5,131.0240729999996,131.0240729999996,131.52426689999993,131.59094499999992,131.64195199999995,131.64195199999995,131.64195199999995,131.64195199999995,131.69110619999992,131.69110619999992,131.69110619999992,131.69110619999992,131.69110619999992,131.69110619999992,131.69110619999992,131.69110619999992,131.69110619999992,left,0.8793274999998175,132.59216639999977,132.59216639999977,None,,6,001,2025-12-17_13h08.42.043,2025C_exp1_comp,2022.2.4,59.925273184112505,
22.7,45,1,-1,0,22,22,93,132.59216639999977,132.59216639999977,133.09258079999927,133.15946519999943,133.2095663,133.2095663,133.2095663,133.2095663,133.2591438999998,133.2591438999998,133.2591438999998,133.2591438999998,133.2591438999998,133.2591438999998,133.2591438999998,133.2591438999998,133.2591438999998,left,1.1276914000000033,134.4104355999998,134.4104355999998,None,,6,001,2025-12-17_13h08.42.043,2025C_exp1_comp,2022.2.4,59.925273184112505,
25.5,45,1,0,0,23,23,22,134.4104355999998,134.4104355999998,134.9109426999994,134.9776456999998,135.0280828999994,135.0280828999994,135.0280828999994,135.0280828999994,135.0778522999999,135.0778522999999,135.0778522999999,135.0778522999999,135.0778522999999,135.0778522999999,135.0778522999999,135.0778522999999,135.0778522999999,left,0.8126667999995334,135.91191509999953,135.91191509999953,None,,6,001,2025-12-17_13h08.42.043,2025C_exp1_comp,2022.2.4,59.925273184112505,
19.6,315,-1,-1,0,24,24,83,135.91191509999953,135.91191509999953,136.41248149999956,136.47914519999995,136.52945399999953,136.52945399999953,136.52945399999953,136.52945399999953,136.57923409999967,136.57923409999967,136.57923409999967,136.57923409999967,136.57923409999967,136.57923409999967,136.57923409999967,136.57923409999967,136.57923409999967,right,1.9752558999998655,138.58123179999984,138.58123179999984,None,,6,001,2025-12-17_13h08.42.043,2025C_exp1_comp,2022.2.4,59.925273184112505,
22.7,315,1,0,0,25,25,30,138.58123179999984,138.58123179999984,139.08185269999922,139.14890149999974,139.19884060000004,139.19884060000004,139.19884060000004,139.19884060000004,139.2485898999994,139.2485898999994,139.2485898999994,139.2485898999994,139.2485898999994,139.2485898999994,139.2485898999994,139.2485898999994,139.2485898999994,left,0.8897668999998132,140.1663740999993,140.1663740999993,None,,6,001,2025-12-17_13h08.42.043,2025C_exp1_comp,2022.2.4,59.925273184112505,
19.6,45,-1,1,0,26,26,38,140.1663740999993,140.1663740999993,140.6668411999999,140.73338169999988,140.78388079999968,140.78388079999968,140.78388079999968,140.78388079999968,140.83359130000008,140.83359130000008,140.83359130000008,140.83359130000008,140.83359130000008,140.83359130000008,140.83359130000008,140.83359130000008,140.83359130000008,right,0.9214544999995269,141.78467659999933,141.78467659999933,None,,6,001,2025-12-17_13h08.42.043,2025C_exp1_comp,2022.2.4,59.925273184112505,
29.4,45,-1,1,0,27,27,41,141.78467659999933,141.78467659999933,142.2849742999997,142.35172079999938,142.40218789999926,142.40218789999926,142.40218789999926,142.40218789999926,142.45176769999944,142.45176769999944,142.45176769999944,142.45176769999944,142.45176769999944,142.45176769999944,142.45176769999944,142.45176769999944,142.45176769999944,left,0.8871196999998574,143.36945639999976,143.36945639999976,None,,6,001,2025-12-17_13h08.42.043,2025C_exp1_comp,2022.2.4,59.925273184112505,
22.7,315,1,-1,0,28,28,102,143.36945639999976,143.36945639999976,143.8701449,143.93658999999934,143.9869117999997,143.9869117999997,143.9869117999997,143.9869117999997,144.03671349999968,144.03671349999968,144.03671349999968,144.03671349999968,144.03671349999968,144.03671349999968,144.03671349999968,144.03671349999968,144.03671349999968,left,0.8055082999999286,144.87180889999945,144.87180889999945,None,,6,001,2025-12-17_13h08.42.043,2025C_exp1_comp,2022.2.4,59.925273184112505,
25.5,45,1,1,0,29,29,58,144.87180889999945,144.87180889999945,145.37137269999948,145.43831950000003,145.48936890000004,145.48936890000004,145.48936890000004,145.48936890000004,145.53894760000003,145.53894760000003,145.53894760000003,145.53894760000003,145.53894760000003,145.53894760000003,145.53894760000003,145.53894760000003,145.53894760000003,left,0.9357258000000002,146.5063479999999,146.5063479999999,None,,6,001,2025-12-17_13h08.42.043,2025C_exp1_comp,2022.2.4,59.925273184112505,
12.1,315,1,0,0,30,30,27,146.5063479999999,146.5063479999999,147.0073909999992,147.0739412999992,147.12403730000005,147.12403730000005,147.12403730000005,147.12403730000005,147.17369439999948,147.17369439999948,147.17369439999948,147.17369439999948,147.17369439999948,147.17369439999948,147.17369439999948,147.17369439999948,147.17369439999948,left,0.8534410000002026,148.0584046999993,148.0584046999993,None,,6,001,2025-12-17_13h08.42.043,2025C_exp1_comp,2022.2.4,59.925273184112505,
29.4,45,1,-1,0,31,31,95,148.0584046999993,148.0584046999993,148.5587321999992,148.62539709999965,148.6759487999998,148.6759487999998,148.6759487999998,148.6759487999998,148.72493639999993,148.72493639999993,148.72493639999993,148.72493639999993,148.72493639999993,148.72493639999993,148.72493639999993,148.72493639999993,148.72493639999993,left,1.0380393000004915,149.7930311,149.7930311,None,,6,001,2025-12-17_13h08.42.043,2025C_exp1_comp,2022.2.4,59.925273184112505,
15.7,45,1,0,0,32,32,19,149.7930311,149.7930311,150.29340279999997,150.3602478999992,150.4099886999993,150.4099886999993,150.4099886999993,150.4099886999993,150.46010819999992,150.46010819999992,150.46010819999992,150.46010819999992,150.46010819999992,150.46010819999992,150.46010819999992,150.46010819999992,150.46010819999992,left,1.1350391000005402,151.61133209999934,151.61133209999934,None,,6,001,2025-12-17_13h08.42.043,2025C_exp1_comp,2022.2.4,59.925273184112505,
12.1,45,1,1,0,33,33,54,151.61133209999934,151.61133209999934,152.11175060000005,152.17839000000004,152.22924280000007,152.22924280000007,152.22924280000007,152.22924280000007,152.27838989999964,152.27838989999964,152.27838989999964,152.27838989999964,152.27838989999964,152.27838989999964,152.27838989999964,152.27838989999964,152.27838989999964,left,1.1083300999998755,153.4127510999997,153.4127510999997,None,,6,001,2025-12-17_13h08.42.043,2025C_exp1_comp,2022.2.4,59.925273184112505,
15.7,315,-1,-1,0,34,34,82,153.4127510999997,153.4127510999997,153.9136501999992,153.9800749999995,154.03061629999956,154.03061629999956,154.03061629999956,154.03061629999956,154.08044619999964,154.08044619999964,154.08044619999964,154.08044619999964,154.08044619999964,154.08044619999964,154.08044619999964,154.08044619999964,154.08044619999964,right,0.8184673000005205,154.93101789999946,154.93101789999946,None,,6,001,2025-12-17_13h08.42.043,2025C_exp1_comp,2022.2.4,59.925273184112505,
39.2,45,-1,0,0,35,35,7,154.93101789999946,154.93101789999946,155.4318835999993,155.49857089999932,155.54847149999932,155.54847149999932,155.54847149999932,155.54847149999932,155.59844969999995,155.59844969999995,155.59844969999995,155.59844969999995,155.59844969999995,155.59844969999995,155.59844969999995,155.59844969999995,155.59844969999995,left,0.9164455999998609,156.53290669999933,156.53290669999933,None,,6,001,2025-12-17_13h08.42.043,2025C_exp1_comp,2022.2.4,59.925273184112505,
42.7,45,-1,0,0,36,36,8,156.53290669999933,156.53290669999933,157.03305920000003,157.10022189999927,157.15062689999922,157.15062689999922,157.15062689999922,157.15062689999922,157.2000251999998,157.2000251999998,157.2000251999998,157.2000251999998,157.2000251999998,157.2000251999998,157.2000251999998,157.2000251999998,157.2000251999998,left,0.8749379000000772,158.10105739999926,158.10105739999926,None,,6,001,2025-12-17_13h08.42.043,2025C_exp1_comp,2022.2.4,59.925273184112505,
29.4,315,1,1,0,37,37,68,158.10105739999926,158.10105739999926,158.6012381999999,158.6679839999997,158.7184215999996,158.7184215999996,158.7184215999996,158.7184215999996,158.7682132,158.7682132,158.7682132,158.7682132,158.7682132,158.7682132,158.7682132,158.7682132,158.7682132,left,0.9702396000002409,159.76906149999922,159.76906149999922,None,,6,001,2025-12-17_13h08.42.043,2025C_exp1_comp,2022.2.4,59.925273184112505,
22.7,45,-1,0,0,38,38,3,159.76906149999922,159.76906149999922,160.26974829999926,160.3363320999997,160.38658269999996,160.38658269999996,160.38658269999996,160.38658269999996,160.43643100000008,160.43643100000008,160.43643100000008,160.43643100000008,160.43643100000008,160.43643100000008,160.43643100000008,160.43643100000008,160.43643100000008,left,0.8701277999998638,161.33749709999938,161.33749709999938,None,,6,001,2025-12-17_13h08.42.043,2025C_exp1_comp,2022.2.4,59.925273184112505,
22.7,45,-1,1,0,39,39,39,161.33749709999938,161.33749709999938,161.83796749999965,161.90467649999937,161.95504569999957,161.95504569999957,161.95504569999957,161.95504569999957,162.0050782999997,162.0050782999997,162.0050782999997,162.0050782999997,162.0050782999997,162.0050782999997,162.0050782999997,162.0050782999997,162.0050782999997,left,0.9418906000000788,162.97901459999957,162.97901459999957,None,,6,001,2025-12-17_13h08.42.043,2025C_exp1_comp,2022.2.4,59.925273184112505,
35.3,315,-1,0,0,40,40,15,162.97901459999957,162.97901459999957,163.47317070000008,163.53972109999995,163.5903034999992,163.5903034999992,163.5903034999992,163.5903034999992,163.63998319999973,163.63998319999973,163.63998319999973,163.63998319999973,163.63998319999973,163.63998319999973,163.6575968999996,163.6575968999996,163.6575968999996,left,0.9210643999995227,164.60725359999924,164.60725359999924,None,,6,001,2025-12-17_13h08.42.043,2025C_exp1_comp,2022.2.4,59.925273184112505,
22.7,315,-1,1,0,41,41,48,164.60725359999924,164.60725359999924,165.10775119999926,165.1750562999996,165.22477869999966,165.22477869999966,165.22477869999966,165.22477869999966,165.27459959999942,165.27459959999942,165.27459959999942,165.27459959999942,165.27459959999942,165.27459959999942,165.27459959999942,165.27459959999942,165.27459959999942,left,0.9441864000000351,166.2421429999995,166.2421429999995,None,,6,001,2025-12-17_13h08.42.043,2025C_exp1_comp,2022.2.4,59.925273184112505,
19.6,315,1,0,0,42,42,29,166.2421429999995,166.2421429999995,166.7427829999997,166.8095461999992,166.85973139999987,166.85973139999987,166.85973139999987,166.85973139999987,166.90956209999968,166.90956209999968,166.90956209999968,166.90956209999968,166.90956209999968,166.90956209999968,166.90956209999968,166.90956209999968,166.90956209999968,left,0.733418900000288,167.6603101999999,167.6603101999999,None,,6,001,2025-12-17_13h08.42.043,2025C_exp1_comp,2022.2.4,59.925273184112505,
29.4,315,1,-1,0,43,43,104,167.6603101999999,167.6603101999999,168.16079679999984,168.22781209999994,168.27800599999955,168.27800599999955,168.27800599999955,168.27800599999955,168.3276449999994,168.3276449999994,168.3276449999994,168.3276449999994,168.3276449999994,168.3276449999994,168.3276449999994,168.3276449999994,168.3276449999994,left,0.9713051999997333,169.32848769999964,169.32848769999964,None,,6,001,2025-12-17_13h08.42.043,2025C_exp1_comp,2022.2.4,59.925273184112505,
15.7,45,-1,1,0,44,44,37,169.32848769999964,169.32848769999964,169.82916769999974,169.89601419999963,169.94632359999923,169.94632359999923,169.94632359999923,169.94632359999923,169.99593579999964,169.99593579999964,169.99593579999964,169.99593579999964,169.99593579999964,169.99593579999964,169.99593579999964,169.99593579999964,169.99593579999964,right,0.8306432999997924,170.84676969999964,170.84676969999964,None,,6,001,2025-12-17_13h08.42.043,2025C_exp1_comp,2022.2.4,59.925273184112505,
19.6,315,-1,1,0,45,45,47,170.84676969999964,170.84676969999964,171.34728369999993,171.41397959999995,171.46428219999962,171.46428219999962,171.46428219999962,171.46428219999962,171.51414419999946,171.51414419999946,171.51414419999946,171.51414419999946,171.51414419999946,171.51414419999946,171.51414419999946,171.51414419999946,171.51414419999946,right,1.0327886000004582,172.56571259999964,172.56571259999964,None,,6,001,2025-12-17_13h08.42.043,2025C_exp1_comp,2022.2.4,59.925273184112505,
39.2,45,1,1,0,46,46,61,172.56571259999964,172.56571259999964,173.06571819999954,173.13242850000006,173.18293169999924,173.18293169999924,173.18293169999924,173.18293169999924,173.2325095999995,173.2325095999995,173.2325095999995,173.2325095999995,173.2325095999995,173.2325095999995,173.2325095999995,173.2325095999995,173.2325095999995,left,2.265748199999507,175.51810729999943,175.51810729999943,None,,6,001,2025-12-17_13h08.42.043,2025C_exp1_comp,2022.2.4,59.925273184112505,
42.7,45,1,-1,0,47,47,98,175.51810729999943,175.51810729999943,176.0186219999996,176.08533799999987,176.13563579999936,176.13563579999936,176.13563579999936,176.13563579999936,176.18548949999968,176.18548949999968,176.18548949999968,176.18548949999968,176.18548949999968,176.18548949999968,176.18548949999968,176.18548949999968,176.18548949999968,left,0.9616045000002487,177.16975879999973,177.16975879999973,None,,6,001,2025-12-17_13h08.42.043,2025C_exp1_comp,2022.2.4,59.925273184112505,
19.6,45,1,1,0,48,48,56,177.16975879999973,177.16975879999973,177.6703250999999,177.73699969999961,177.78757099999984,177.78757099999984,177.78757099999984,177.78757099999984,177.8372563999992,177.8372563999992,177.8372563999992,177.8372563999992,177.8372563999992,177.8372563999992,177.8372563999992,177.8372563999992,177.8372563999992,left,0.8136406000003262,178.6714082999997,178.6714082999997,None,,6,001,2025-12-17_13h08.42.043,2025C_exp1_comp,2022.2.4,59.925273184112505,
15.7,45,-1,0,0,49,49,1,178.6714082999997,178.6714082999997,179.17202329999964,179.2385752,179.28875160000007,179.28875160000007,179.28875160000007,179.28875160000007,179.33887109999978,179.33887109999978,179.33887109999978,179.33887109999978,179.33887109999978,179.33887109999978,179.33887109999978,179.33887109999978,179.33887109999978,right,0.8238670999999158,180.18954630000007,180.18954630000007,None,,6,001,2025-12-17_13h08.42.043,2025C_exp1_comp,2022.2.4,59.925273184112505,
15.7,315,1,-1,0,50,50,100,180.18954630000007,180.18954630000007,180.69017449999956,180.75670289999925,180.80695119999928,180.80695119999928,180.80695119999928,180.80695119999928,180.8568921999995,180.8568921999995,180.8568921999995,180.8568921999995,180.8568921999995,180.8568921999995,180.8568921999995,180.8568921999995,180.8568921999995,left,0.9455250000000888,181.82440899999983,181.82440899999983,None,,6,001,2025-12-17_13h08.42.043,2025C_exp1_comp,2022.2.4,59.925273184112505,
25.5,315,-1,-1,0,51,51,85,181.82440899999983,181.82440899999983,182.3249036999996,182.39169579999998,182.44200619999992,182.44200619999992,182.44200619999992,182.44200619999992,182.49173879999944,182.49173879999944,182.49173879999944,182.49173879999944,182.49173879999944,182.49173879999944,182.49173879999944,182.49173879999944,182.49173879999944,left,0.8948833000004015,183.4093395,183.4093395,None,,6,001,2025-12-17_13h08.42.043,2025C_exp1_comp,2022.2.4,59.925273184112505,
15.7,315,1,1,0,52,52,64,183.4093395,183.4093395,183.90985769999952,183.97658429999956,184.0272514999997,184.0272514999997,184.0272514999997,184.0272514999997,184.0769092999999,184.0769092999999,184.0769092999999,184.0769092999999,184.0769092999999,184.0769092999999,184.0769092999999,184.0769092999999,184.0769092999999,left,1.0219122999997126,185.12814679999974,185.12814679999974,None,,6,001,2025-12-17_13h08.42.043,2025C_exp1_comp,2022.2.4,59.925273184112505,
39.2,315,-1,1,0,53,53,52,185.12814679999974,185.12814679999974,185.62835819999964,185.6949823999994,185.74528439999995,185.74528439999995,185.74528439999995,185.74528439999995,185.79508729999998,185.79508729999998,185.79508729999998,185.79508729999998,185.79508729999998,185.79508729999998,185.79508729999998,185.79508729999998,185.79508729999998,right,0.9513215999995737,186.7793600999994,186.7793600999994,None,,6,001,2025-12-17_13h08.42.043,2025C_exp1_comp,2022.2.4,59.925273184112505,
12.1,45,1,-1,0,54,54,90,186.7793600999994,186.7793600999994,187.28045819999988,187.34667099999933,187.39692389999982,187.39692389999982,187.39692389999982,187.39692389999982,187.44692919999943,187.44692919999943,187.44692919999943,187.44692919999943,187.44692919999943,187.44692919999943,187.44692919999943,187.44692919999943,187.44692919999943,left,0.8591772999998284,188.33091029999923,188.33091029999923,None,,6,001,2025-12-17_13h08.42.043,2025C_exp1_comp,2022.2.4,59.925273184112505,
25.5,45,1,-1,0,55,55,94,188.33091029999923,188.33091029999923,188.8315795999997,188.89848829999937,188.94856469999922,188.94856469999922,188.94856469999922,188.94856469999922,188.99829429999954,188.99829429999954,188.99829429999954,188.99829429999954,188.99829429999954,188.99829429999954,188.99829429999954,188.99829429999954,188.99829429999954,left,0.8368906000005154,189.86581209999986,189.86581209999986,None,,6,001,2025-12-17_13h08.42.043,2025C_exp1_comp,2022.2.4,59.925273184112505,
12.1,315,-1,1,0,56,56,45,189.86581209999986,189.86581209999986,190.36634219999996,190.4330156999995,190.48336479999944,190.48336479999944,190.48336479999944,190.48336479999944,190.5331772999998,190.5331772999998,190.5331772999998,190.5331772999998,190.5331772999998,190.5331772999998,190.5331772999998,190.5331772999998,190.5331772999998,right,0.9178128000003198,191.4675105999995,191.4675105999995,None,,6,001,2025-12-17_13h08.42.043,2025C_exp1_comp,2022.2.4,59.925273184112505,
22.7,45,-1,-1,0,57,57,75,191.4675105999995,191.4675105999995,191.9679569,192.03466949999984,192.0849537999993,192.0849537999993,192.0849537999993,192.0849537999993,192.13507859999936,192.13507859999936,192.13507859999936,192.13507859999936,192.13507859999936,192.13507859999936,192.13507859999936,192.13507859999936,192.13507859999936,right,2.187065499999335,194.3535807999997,194.3535807999997,None,,6,001,2025-12-17_13h08.42.043,2025C_exp1_comp,2022.2.4,59.925273184112505,
42.7,45,-1,1,0,58,58,44,194.3535807999997,194.3535807999997,194.85424019999937,194.92097449999983,194.97123089999968,194.97123089999968,194.97123089999968,194.97123089999968,195.02095849999932,195.02095849999932,195.02095849999932,195.02095849999932,195.02095849999932,195.02095849999932,195.02095849999932,195.02095849999932,195.02095849999932,left,1.2376853999994637,196.28895049999937,196.28895049999937,None,,6,001,2025-12-17_13h08.42.043,2025C_exp1_comp,2022.2.4,59.925273184112505,
25.5,315,-1,1,0,59,59,49,196.28895049999937,196.28895049999937,196.78939999999966,196.85645829999976,196.90652789999967,196.90652789999967,196.90652789999967,196.90652789999967,196.9562277999994,196.9562277999994,196.9562277999994,196.9562277999994,196.9562277999994,196.9562277999994,196.9562277999994,196.9562277999994,196.9562277999994,left,0.7668358999999327,197.74043729999994,197.74043729999994,None,,6,001,2025-12-17_13h08.42.043,2025C_exp1_comp,2022.2.4,59.925273184112505,
39.2,45,1,0,0,60,60,25,197.74043729999994,197.74043729999994,198.24122819999957,198.3076177999992,198.35810739999943,198.35810739999943,198.35810739999943,198.35810739999943,198.40779799999927,198.40779799999927,198.40779799999927,198.40779799999927,198.40779799999927,198.40779799999927,198.40779799999927,198.40779799999927,198.40779799999927,left,1.0431743999997707,199.47582309999962,199.47582309999962,None,,6,001,2025-12-17_13h08.42.043,2025C_exp1_comp,2022.2.4,59.925273184112505,
19.6,45,-1,-1,0,61,61,74,199.47582309999962,199.47582309999962,199.97605829999975,200.0427241999996,200.0930114999992,200.0930114999992,200.0930114999992,200.0930114999992,200.1428307999995,200.1428307999995,200.1428307999995,200.1428307999995,200.1428307999995,200.1428307999995,200.1428307999995,200.1428307999995,200.1428307999995,left,0.9721424999997907,201.1437653999992,201.1437653999992,None,,6,001,2025-12-17_13h08.42.043,2025C_exp1_comp,2022.2.4,59.925273184112505,
42.7,45,1,1,0,62,62,62,201.1437653999992,201.1437653999992,201.6441247999992,201.7109765999994,201.76127730000007,201.76127730000007,201.76127730000007,201.76127730000007,201.81137809999927,201.81137809999927,201.81137809999927,201.81137809999927,201.81137809999927,201.81137809999927,201.81137809999927,201.81137809999927,201.81137809999927,left,1.0473491000002468,202.8789428,202.8789428,None,,6,001,2025-12-17_13h08.42.043,2025C_exp1_comp,2022.2.4,59.925273184112505,
39.2,45,-1,1,0,63,63,43,202.8789428,202.8789428,203.3793840999997,203.44606459999977,203.49668199999996,203.49668199999996,203.49668199999996,203.49668199999996,203.54625099999976,203.54625099999976,203.54625099999976,203.54625099999976,203.54625099999976,203.54625099999976,203.54625099999976,203.54625099999976,203.54625099999976,left,1.0719928000007712,204.64734429999953,204.64734429999953,None,,6,001,2025-12-17_13h08.42.043,2025C_exp1_comp,2022.2.4,59.925273184112505,
42.7,315,1,1,0,64,64,71,204.64734429999953,204.64734429999953,205.14793099999952,205.21481659999972,205.26488599999993,205.26488599999993,205.26488599999993,205.26488599999993,205.3145224,205.3145224,205.3145224,205.3145224,205.3145224,205.3145224,205.3145224,205.3145224,205.3145224,left,1.0725107000007483,206.4156422999995,206.4156422999995,None,,6,001,2025-12-17_13h08.42.043,2025C_exp1_comp,2022.2.4,59.925273184112505,
35.3,315,1,0,0,65,65,33,206.4156422999995,206.4156422999995,206.91615939999974,206.98289849999946,207.03322339999977,207.03322339999977,207.03322339999977,207.03322339999977,207.08333309999944,207.08333309999944,207.08333309999944,207.08333309999944,207.08333309999944,207.08333309999944,207.08333309999944,207.08333309999944,207.08333309999944,left,1.0795142000006308,208.18411250000008,208.18411250000008,None,,6,001,2025-12-17_13h08.42.043,2025C_exp1_comp,2022.2.4,59.925273184112505,
39.2,45,1,-1,0,66,66,97,208.18411250000008,208.18411250000008,208.68481780000002,208.7513457999994,208.80165709999983,208.80165709999983,208.80165709999983,208.80165709999983,208.8516467999998,208.8516467999998,208.8516467999998,208.8516467999998,208.8516467999998,208.8516467999998,208.8516467999998,208.8516467999998,208.8516467999998,left,1.0552096000001256,209.93616629999997,209.93616629999997,None,,6,001,2025-12-17_13h08.42.043,2025C_exp1_comp,2022.2.4,59.925273184112505,
12.1,45,-1,-1,0,67,67,72,209.93616629999997,209.93616629999997,210.43648179999946,210.50306379999984,210.55347789999996,210.55347789999996,210.55347789999996,210.55347789999996,210.6031637999995,210.6031637999995,210.6031637999995,210.6031637999995,210.6031637999995,210.6031637999995,210.6031637999995,210.6031637999995,210.6031637999995,left,1.3350208000001658,211.9711875999992,211.9711875999992,None,,6,001,2025-12-17_13h08.42.043,2025C_exp1_comp,2022.2.4,59.925273184112505,
12.1,315,1,-1,0,68,68,99,211.9711875999992,211.9711875999992,212.47171639999942,212.53843340000003,212.5887071999996,212.5887071999996,212.5887071999996,212.5887071999996,212.63837409999996,212.63837409999996,212.63837409999996,212.63837409999996,212.63837409999996,212.63837409999996,212.63837409999996,212.63837409999996,212.63837409999996,left,0.8280500000000757,213.48937859999933,213.48937859999933,None,,6,001,2025-12-17_13h08.42.043,2025C_exp1_comp,2022.2.4,59.925273184112505,
22.7,45,1,0,0,69,69,21,213.48937859999933,213.48937859999933,213.9898908999994,214.0565902999997,214.10686429999987,214.10686429999987,214.10686429999987,214.10686429999987,214.15673629999947,214.15673629999947,214.15673629999947,214.15673629999947,214.15673629999947,214.15673629999947,214.15673629999947,214.15673629999947,214.15673629999947,left,0.7986004999993384,214.97418079999989,214.97418079999989,None,,6,001,2025-12-17_13h08.42.043,2025C_exp1_comp,2022.2.4,59.925273184112505,
35.3,45,-1,-1,0,70,70,78,214.97418079999989,214.97418079999989,215.47477549999985,215.5414243999994,215.59173569999984,215.59173569999984,215.59173569999984,215.59173569999984,215.64159849999942,215.64159849999942,215.64159849999942,215.64159849999942,215.64159849999942,215.64159849999942,215.64159849999942,215.64159849999942,215.64159849999942,left,1.064826599999833,216.72597139999925,216.72597139999925,None,,6,001,2025-12-17_13h08.42.043,2025C_exp1_comp,2022.2.4,59.925273184112505,
29.4,315,1,0,0,71,71,32,216.72597139999925,216.72597139999925,217.22661919999973,217.29352289999952,217.3434955999992,217.3434955999992,217.3434955999992,217.3434955999992,217.39326689999962,217.39326689999962,217.39326689999962,217.39326689999962,217.39326689999962,217.39326689999962,217.39326689999962,217.39326689999962,217.39326689999962,right,1.1448632999999973,218.5611597999996,218.5611597999996,None,,6,001,2025-12-17_13h08.42.043,2025C_exp1_comp,2022.2.4,59.925273184112505,
42.7,315,-1,1,0,72,72,53,218.5611597999996,218.5611597999996,219.0616301,219.1284796,219.17872289999923,219.17872289999923,219.17872289999923,219.17872289999923,219.22845249999955,219.22845249999955,219.22845249999955,219.22845249999955,219.22845249999955,219.22845249999955,219.22845249999955,219.22845249999955,219.22845249999955,left,1.0056350000004386,220.26289579999957,220.26289579999957,None,,6,001,2025-12-17_13h08.42.043,2025C_exp1_comp,2022.2.4,59.925273184112505,
29.4,45,1,1,0,73,73,59,220.26289579999957,220.26289579999957,220.7633538,220.83007679999992,220.88039279999975,220.88039279999975,220.88039279999975,220.88039279999975,220.93003429999953,220.93003429999953,220.93003429999953,220.93003429999953,220.93003429999953,220.93003429999953,220.93003429999953,220.93003429999953,220.93003429999953,left,1.2323749999995925,222.1813572000001,222.1813572000001,None,,6,001,2025-12-17_13h08.42.043,2025C_exp1_comp,2022.2.4,59.925273184112505,
19.6,315,1,-1,0,74,74,101,222.1813572000001,222.1813572000001,222.6819734999999,222.74867709999944,222.7989189,222.7989189,222.7989189,222.7989189,222.84871010000006,222.84871010000006,222.84871010000006,222.84871010000006,222.84871010000006,222.84871010000006,222.84871010000006,222.84871010000006,222.84871010000006,left,0.8504241000000548,223.71634730000005,223.71634730000005,None,,6,001,2025-12-17_13h08.42.043,2025C_exp1_comp,2022.2.4,59.925273184112505,
29.4,315,-1,-1,0,75,75,86,223.71634730000005,223.71634730000005,224.2167813999995,224.2834811999992,224.33380289999968,224.33380289999968,224.33380289999968,224.33380289999968,224.3836029999993,224.3836029999993,224.3836029999993,224.3836029999993,224.3836029999993,224.3836029999993,224.3836029999993,224.3836029999993,224.3836029999993,left,1.0029941999991934,225.41800849999981,225.41800849999981,None,,6,001,2025-12-17_13h08.42.043,2025C_exp1_comp,2022.2.4,59.925273184112505,
25.5,45,-1,-1,0,76,76,76,225.41800849999981,225.41800849999981,225.91853589999937,225.98538329999974,226.03544409999995,226.03544409999995,226.03544409999995,226.03544409999995,226.0852675999995,226.0852675999995,226.0852675999995,226.0852675999995,226.0852675999995,226.0852675999995,226.0852675999995,226.0852675999995,226.0852675999995,left,1.0294207000006281,227.13648569999987,227.13648569999987,None,,6,001,2025-12-17_13h08.42.043,2025C_exp1_comp,2022.2.4,59.925273184112505,
29.4,315,-1,1,0,77,77,50,227.13648569999987,227.13648569999987,227.6369464999998,227.70353689999956,227.75387449999926,227.75387449999926,227.75387449999926,227.75387449999926,227.80379659999926,227.80379659999926,227.80379659999926,227.80379659999926,227.80379659999926,227.80379659999926,227.80379659999926,227.80379659999926,227.80379659999926,left,0.9186709000005067,228.75464029999966,228.75464029999966,None,,6,001,2025-12-17_13h08.42.043,2025C_exp1_comp,2022.2.4,59.925273184112505,
19.6,315,-1,0,0,78,78,11,228.75464029999966,228.75464029999966,229.2550870999994,229.32202299999972,229.37235669999973,229.37235669999973,229.37235669999973,229.37235669999973,229.42197289999967,229.42197289999967,229.42197289999967,229.42197289999967,229.42197289999967,229.42197289999967,229.42197289999967,229.42197289999967,229.42197289999967,left,1.3248502000005828,230.77340579999964,230.77340579999964,None,,6,001,2025-12-17_13h08.42.043,2025C_exp1_comp,2022.2.4,59.925273184112505,
39.2,45,-1,-1,0,79,79,79,230.77340579999964,230.77340579999964,231.27390979999927,231.34054680000008,231.39086079999925,231.39086079999925,231.39086079999925,231.39086079999925,231.44064679999974,231.44064679999974,231.44064679999974,231.44064679999974,231.44064679999974,231.44064679999974,231.44064679999974,231.44064679999974,231.44064679999974,left,0.9617439999992712,232.4251303000001,232.4251303000001,None,,6,001,2025-12-17_13h08.42.043,2025C_exp1_comp,2022.2.4,59.925273184112505,
19.6,45,-1,0,0,80,80,2,232.4251303000001,232.4251303000001,232.92566449999958,232.99225639999986,233.04250389999925,233.04250389999925,233.04250389999925,233.04250389999925,233.09232900000006,233.09232900000006,233.09232900000006,233.09232900000006,233.09232900000006,233.09232900000006,233.09232900000006,233.09232900000006,233.09232900000006,left,3.462522799999533,236.57900399999926,236.57900399999926,None,,6,001,2025-12-17_13h08.42.043,2025C_exp1_comp,2022.2.4,59.925273184112505,
12.1,45,-1,0,0,81,81,0,236.57900399999926,236.57900399999926,237.07961989999967,237.14631409999947,237.19674119999945,237.19674119999945,237.19674119999945,237.19674119999945,237.24642820000008,237.24642820000008,237.24642820000008,237.24642820000008,237.24642820000008,237.24642820000008,237.24642820000008,237.24642820000008,237.24642820000008,right,0.7398219000006065,238.0138881999992,238.0138881999992,None,,6,001,2025-12-17_13h08.42.043,2025C_exp1_comp,2022.2.4,59.925273184112505,
39.2,315,1,1,0,82,82,70,238.0138881999992,238.0138881999992,238.51467929999944,238.58113759999924,238.6314868999998,238.6314868999998,238.6314868999998,238.6314868999998,238.68123680000008,238.68123680000008,238.68123680000008,238.68123680000008,238.68123680000008,238.68123680000008,238.68123680000008,238.68123680000008,238.68123680000008,left,0.9537439000005179,239.66577289999987,239.66577289999987,None,,6,001,2025-12-17_13h08.42.043,2025C_exp1_comp,2022.2.4,59.925273184112505,
22.7,45,1,1,0,83,83,57,239.66577289999987,239.66577289999987,240.16615759999968,240.23277439999947,240.2830729999996,240.2830729999996,240.2830729999996,240.2830729999996,240.33351419999963,240.33351419999963,240.33351419999963,240.33351419999963,240.33351419999963,240.33351419999963,240.33351419999963,240.33351419999963,240.33351419999963,left,0.6611903999992137,241.01688279999962,241.01688279999962,None,,6,001,2025-12-17_13h08.42.043,2025C_exp1_comp,2022.2.4,59.925273184112505,
25.5,315,1,-1,0,84,84,103,241.01688279999962,241.01688279999962,241.5177191999992,241.58407549999993,241.6344597999996,241.6344597999996,241.6344597999996,241.6344597999996,241.6841904999992,241.6841904999992,241.6841904999992,241.6841904999992,241.6841904999992,241.6841904999992,241.6841904999992,241.6841904999992,241.6841904999992,left,1.1186880999994173,242.83538749999934,242.83538749999934,None,,6,001,2025-12-17_13h08.42.043,2025C_exp1_comp,2022.2.4,59.925273184112505,
35.3,315,-1,1,0,85,85,51,242.83538749999934,242.83538749999934,243.33594959999937,243.40263109999978,243.45289890000004,243.45289890000004,243.45289890000004,243.45289890000004,243.50272909999967,243.50272909999967,243.50272909999967,243.50272909999967,243.50272909999967,243.50272909999967,243.50272909999967,243.50272909999967,243.50272909999967,right,0.9398432999996658,244.47032729999955,244.47032729999955,None,,6,001,2025-12-17_13h08.42.043,2025C_exp1_comp,2022.2.4,59.925273184112505,
25.5,315,1,1,0,86,86,67,244.47032729999955,244.47032729999955,244.97086109999964,245.0375602999993,245.08783760000006,245.08783760000006,245.08783760000006,245.08783760000006,245.1376836999998,245.1376836999998,245.1376836999998,245.1376836999998,245.1376836999998,245.1376836999998,245.1376836999998,245.1376836999998,245.1376836999998,right,1.3609598000002734,246.52239849999933,246.52239849999933,None,,6,001,2025-12-17_13h08.42.043,2025C_exp1_comp,2022.2.4,59.925273184112505,
15.7,45,1,-1,0,87,87,91,246.52239849999933,246.52239849999933,247.02288979999958,247.08964130000004,247.13993799999935,247.13993799999935,247.13993799999935,247.13993799999935,247.1897661999992,247.1897661999992,247.1897661999992,247.1897661999992,247.1897661999992,247.1897661999992,247.1897661999992,247.1897661999992,247.1897661999992,left,0.8848281999999017,248.10729999999967,248.10729999999967,None,,6,001,2025-12-17_13h08.42.043,2025C_exp1_comp,2022.2.4,59.925273184112505,
19.6,45,1,0,0,88,88,20,248.10729999999967,248.10729999999967,248.60784289999992,248.6745895999993,248.7250697999998,248.7250697999998,248.7250697999998,248.7250697999998,248.77460709999923,248.77460709999923,248.77460709999923,248.77460709999923,248.77460709999923,248.77460709999923,248.77460709999923,248.77460709999923,248.77460709999923,left,0.9241765000006126,249.72598930000004,249.72598930000004,None,,6,001,2025-12-17_13h08.42.043,2025C_exp1_comp,2022.2.4,59.925273184112505,
15.7,315,1,0,0,89,89,28,249.72598930000004,249.72598930000004,250.22627919999923,250.2927923999996,250.34377439999935,250.34377439999935,250.34377439999935,250.34377439999935,250.39291299999968,250.39291299999968,250.39291299999968,250.39291299999968,250.39291299999968,250.39291299999968,250.39291299999968,250.39291299999968,250.39291299999968,left,1.7298421000004964,252.14568280000003,252.14568280000003,None,,6,001,2025-12-17_13h08.42.043,2025C_exp1_comp,2022.2.4,59.925273184112505,
29.4,315,-1,0,0,90,90,14,252.14568280000003,252.14568280000003,252.64536109999972,252.7119264999992,252.76226079999924,252.76226079999924,252.76226079999924,252.76226079999924,252.81198969999969,252.81198969999969,252.81198969999969,252.81198969999969,252.81198969999969,252.81198969999969,252.81198969999969,252.81198969999969,252.81198969999969,right,1.558560899999975,254.3968892999992,254.3968892999992,None,,6,001,2025-12-17_13h08.42.043,2025C_exp1_comp,2022.2.4,59.925273184112505,
22.7,315,-1,0,0,91,91,12,254.3968892999992,254.3968892999992,254.8974591999995,254.96399089999977,255.0144623999995,255.0144623999995,255.0144623999995,255.0144623999995,255.06426639999972,255.06426639999972,255.06426639999972,255.06426639999972,255.06426639999972,255.06426639999972,255.06426639999972,255.06426639999972,255.06426639999972,right,0.9782591000002867,256.0652593999994,256.0652593999994,None,,6,001,2025-12-17_13h08.42.043,2025C_exp1_comp,2022.2.4,59.925273184112505,
15.7,45,1,1,0,92,92,55,256.0652593999994,256.0652593999994,256.56586049999987,256.6326417,256.68283019999944,256.68283019999944,256.68283019999944,256.68283019999944,256.73273189999964,256.73273189999964,256.73273189999964,256.73273189999964,256.73273189999964,256.73273189999964,256.73273189999964,256.73273189999964,256.73273189999964,left,0.9020897999998851,257.6668174999995,257.6668174999995,None,,6,001,2025-12-17_13h08.42.043,2025C_exp1_comp,2022.2.4,59.925273184112505,
39.2,315,-1,-1,0,93,93,88,257.6668174999995,257.6668174999995,258.1675332999994,258.23411099999976,258.28447609999967,258.28447609999967,258.28447609999967,258.28447609999967,258.3352436999994,258.3352436999994,258.3352436999994,258.3352436999994,258.3352436999994,258.3352436999994,258.3352436999994,258.3352436999994,258.3352436999994,left,1.0995005000004312,259.45199090000006,259.45199090000006,None,,6,001,2025-12-17_13h08.42.043,2025C_exp1_comp,2022.2.4,59.925273184112505,
35.3,45,1,1,0,94,94,60,259.45199090000006,259.45199090000006,259.9532331999999,260.0196036999996,260.06953069999963,260.06953069999963,260.06953069999963,260.06953069999963,260.1200517999996,260.1200517999996,260.1200517999996,260.1200517999996,260.1200517999996,260.1200517999996,260.1200517999996,260.1200517999996,260.1200517999996,left,0.9067711999996391,261.05365639999945,261.05365639999945,None,,6,001,2025-12-17_13h08.42.043,2025C_exp1_comp,2022.2.4,59.925273184112505,
19.6,45,1,-1,0,95,95,92,261.05365639999945,261.05365639999945,261.5540685999995,261.6208123999995,261.6711428999997,261.6711428999997,261.6711428999997,261.6711428999997,261.72085419999985,261.72085419999985,261.72085419999985,261.72085419999985,261.72085419999985,261.72085419999985,261.72085419999985,261.72085419999985,261.72085419999985,left,1.0494079000000056,262.78875530000005,262.78875530000005,None,,6,001,2025-12-17_13h08.42.043,2025C_exp1_comp,2022.2.4,59.925273184112505,
29.4,45,-1,-1,0,96,96,77,262.78875530000005,262.78875530000005,263.28916219999974,263.3558438,263.4061501999995,263.4061501999995,263.4061501999995,263.4061501999995,263.45642469999984,263.45642469999984,263.45642469999984,263.45642469999984,263.45642469999984,263.45642469999984,263.45642469999984,263.45642469999984,263.45642469999984,left,1.330298199999561,264.8073887999999,264.8073887999999,None,,6,001,2025-12-17_13h08.42.043,2025C_exp1_comp,2022.2.4,59.925273184112505,
35.3,315,1,1,0,97,97,69,264.8073887999999,264.8073887999999,265.3079186999994,265.37456529999963,265.42478459999984,265.42478459999984,265.42478459999984,265.42478459999984,265.47462539999924,265.47462539999924,265.47462539999924,265.47462539999924,265.47462539999924,265.47462539999924,265.47462539999924,265.47462539999924,265.47462539999924,right,0.9444101999997656,266.4424980999993,266.4424980999993,None,,6,001,2025-12-17_13h08.42.043,2025C_exp1_comp,2022.2.4,59.925273184112505,
42.7,315,-1,0,0,98,98,17,266.4424980999993,266.4424980999993,266.9427726999993,267.0095158999993,267.0598717999992,267.0598717999992,267.0598717999992,267.0598717999992,267.1097286999993,267.1097286999993,267.1097286999993,267.1097286999993,267.1097286999993,267.1097286999993,267.1097286999993,267.1097286999993,267.1097286999993,left,1.0283888999992996,268.1610506999996,268.1610506999996,None,,6,001,2025-12-17_13h08.42.043,2025C_exp1_comp,2022.2.4,59.925273184112505,
42.7,315,1,-1,0,99,99,107,268.1610506999996,268.1610506999996,268.66132279999965,268.7279217999994,268.7782333999994,268.7782333999994,268.7782333999994,268.7782333999994,268.8280187999999,268.8280187999999,268.8280187999999,268.8280187999999,268.8280187999999,268.8280187999999,268.8280187999999,268.8280187999999,268.8280187999999,right,1.0224858000001404,269.8792055999993,269.8792055999993,None,,6,001,2025-12-17_13h08.42.043,2025C_exp1_comp,2022.2.4,59.925273184112505,
12.1,315,1,1,0,100,100,63,269.8792055999993,269.8792055999993,270.37959649999993,270.4462973999998,270.49659509999947,270.49659509999947,270.49659509999947,270.49659509999947,270.5463700999999,270.5463700999999,270.5463700999999,270.5463700999999,270.5463700999999,270.5463700999999,270.5463700999999,270.5463700999999,270.5463700999999,left,0.7682656000006318,271.34749549999924,271.34749549999924,None,,6,001,2025-12-17_13h08.42.043,2025C_exp1_comp,2022.2.4,59.925273184112505,
35.3,45,-1,1,0,101,101,42,271.34749549999924,271.34749549999924,271.84771439999986,271.9145142999996,271.96470859999954,271.96470859999954,271.96470859999954,271.96470859999954,272.0146219999997,272.0146219999997,272.0146219999997,272.0146219999997,272.0146219999997,272.0146219999997,272.0146219999997,272.0146219999997,272.0146219999997,left,0.9242651999993541,272.96545329999935,272.96545329999935,None,,6,001,2025-12-17_13h08.42.043,2025C_exp1_comp,2022.2.4,59.925273184112505,
35.3,315,1,-1,0,102,102,105,272.96545329999935,272.96545329999935,273.46637399999963,273.5327361999998,273.58302430000003,273.58302430000003,273.58302430000003,273.58302430000003,273.6328249999997,273.6328249999997,273.6328249999997,273.6328249999997,273.6328249999997,273.6328249999997,273.6328249999997,273.6328249999997,273.6328249999997,left,1.0979624000001422,274.75059989999954,274.75059989999954,None,,6,001,2025-12-17_13h08.42.043,2025C_exp1_comp,2022.2.4,59.925273184112505,
25.5,45,-1,0,0,103,103,4,274.75059989999954,274.75059989999954,275.2509321999996,275.31787469999927,275.36810499999956,275.36810499999956,275.36810499999956,275.36810499999956,275.41790459999993,275.41790459999993,275.41790459999993,275.41790459999993,275.41790459999993,275.41790459999993,275.41790459999993,275.41790459999993,275.41790459999993,right,1.5686152000007496,277.01953439999943,277.01953439999943,None,,6,001,2025-12-17_13h08.42.043,2025C_exp1_comp,2022.2.4,59.925273184112505,
42.7,45,-1,-1,0,104,104,80,277.01953439999943,277.01953439999943,277.5200447999996,277.5869703999997,277.6372486,277.6372486,277.6372486,277.6372486,277.6869579999993,277.6869579999993,277.6869579999993,277.6869579999993,277.6869579999993,277.6869579999993,277.6869579999993,277.6869579999993,277.6869579999993,left,1.067292400000042,278.77127440000004,278.77127440000004,None,,6,001,2025-12-17_13h08.42.043,2025C_exp1_comp,2022.2.4,59.925273184112505,
25.5,315,-1,0,0,105,105,13,278.77127440000004,278.77127440000004,279.27190359999986,279.33879009999964,279.38881029999993,279.38881029999993,279.38881029999993,279.38881029999993,279.4386328999999,279.4386328999999,279.4386328999999,279.4386328999999,279.4386328999999,279.4386328999999,279.4386328999999,279.4386328999999,279.4386328999999,right,1.0278050999995685,280.4903908999995,280.4903908999995,None,,6,001,2025-12-17_13h08.42.043,2025C_exp1_comp,2022.2.4,59.925273184112505,
35.3,45,1,0,0,106,106,24,280.4903908999995,280.4903908999995,280.9905648999993,281.05693339999925,281.1077789000001,281.1077789000001,281.1077789000001,281.1077789000001,281.1574219999993,281.1574219999993,281.1574219999993,281.1574219999993,281.1574219999993,281.1574219999993,281.1574219999993,281.1574219999993,281.1574219999993,right,1.501571700000568,282.69185389999984,282.69185389999984,None,,6,001,2025-12-17_13h08.42.043,2025C_exp1_comp,2022.2.4,59.925273184112505,
39.2,315,1,-1,0,107,107,106,282.69185389999984,282.69185389999984,283.19341469999927,283.25913729999957,283.3095967999998,283.3095967999998,283.3095967999998,283.3095967999998,283.35927399999946,283.35927399999946,283.35927399999946,283.35927399999946,283.35927399999946,283.35927399999946,283.35927399999946,283.35927399999946,283.35927399999946,left,1.0674982000000455,284.4436625999997,284.4436625999997,space,24.607137099999818,6,001,2025-12-17_13h08.42.043,2025C_exp1_comp,2022.2.4,59.925273184112505,
19.6,45,1,0,1,0,108,20,309.06819129999985,309.06819129999985,309.56885599999987,309.6355303,309.6857575999993,309.6857575999993,309.6857575999993,309.6857575999993,309.7355932999999,309.7355932999999,309.7355932999999,309.7355932999999,309.7355932999999,309.7355932999999,309.7355932999999,309.7355932999999,309.7355932999999,left,0.5952806999994209,310.3527973,310.3527973,None,,6,001,2025-12-17_13h08.42.043,2025C_exp1_comp,2022.2.4,59.925273184112505,
25.5,315,-1,0,1,1,109,13,310.3527973,310.3527973,310.8537824999994,310.9203471000001,310.97050409999974,310.97050409999974,310.97050409999974,310.97050409999974,311.0201623999992,311.0201623999992,311.0201623999992,311.0201623999992,311.0201623999992,311.0201623999992,311.0201623999992,311.0201623999992,311.0201623999992,right,0.702669700000115,311.75422309999976,311.75422309999976,None,,6,001,2025-12-17_13h08.42.043,2025C_exp1_comp,2022.2.4,59.925273184112505,
15.7,45,1,1,1,2,110,55,311.75422309999976,311.75422309999976,312.2548285999992,312.3214723000001,312.3717749999996,312.3717749999996,312.3717749999996,312.3717749999996,312.4215693999995,312.4215693999995,312.4215693999995,312.4215693999995,312.4215693999995,312.4215693999995,312.4215693999995,312.4215693999995,312.4215693999995,left,0.6211022000006778,313.0726062999993,313.0726062999993,None,,6,001,2025-12-17_13h08.42.043,2025C_exp1_comp,2022.2.4,59.925273184112505,
42.7,45,-1,-1,1,3,111,80,313.0726062999993,313.0726062999993,313.5727428,313.6395012999992,313.6909762999994,313.6909762999994,313.6909762999994,313.6909762999994,313.73954759999924,313.73954759999924,313.73954759999924,313.73954759999924,313.73954759999924,313.73954759999924,313.73954759999924,313.73954759999924,313.73954759999924,left,0.6148919999995996,314.3734814999998,314.3734814999998,None,,6,001,2025-12-17_13h08.42.043,2025C_exp1_comp,2022.2.4,59.925273184112505,
15.7,315,-1,-1,1,4,112,82,314.3734814999998,314.3734814999998,314.8740261999992,314.9407420999996,314.9910239999999,314.9910239999999,314.9910239999999,314.9910239999999,315.0410013999999,315.0410013999999,315.0410013999999,315.0410013999999,315.0410013999999,315.0410013999999,315.0410013999999,315.0410013999999,315.0410013999999,left,0.8252153000003091,315.89165559999947,315.89165559999947,None,,6,001,2025-12-17_13h08.42.043,2025C_exp1_comp,2022.2.4,59.925273184112505,
29.4,315,1,1,1,5,113,68,315.89165559999947,315.89165559999947,316.39228639999965,316.4588899999999,316.5092268999997,316.5092268999997,316.5092268999997,316.5092268999997,316.55900329999986,316.55900329999986,316.55900329999986,316.55900329999986,316.55900329999986,316.55900329999986,316.55900329999986,316.55900329999986,316.55900329999986,left,1.403284299999541,317.9937952999999,317.9937952999999,None,,6,001,2025-12-17_13h08.42.043,2025C_exp1_comp,2022.2.4,59.925273184112505,
22.7,45,-1,1,1,6,114,39,317.9937952999999,317.9937952999999,318.4943244999995,318.56129319999945,318.61166129999947,318.61166129999947,318.61166129999947,318.61166129999947,318.6616572999992,318.6616572999992,318.6616572999992,318.6616572999992,318.6616572999992,318.6616572999992,318.6616572999992,318.6616572999992,318.6616572999992,right,0.6685718999997334,319.36185549999936,319.36185549999936,None,,6,001,2025-12-17_13h08.42.043,2025C_exp1_comp,2022.2.4,59.925273184112505,
19.6,315,-1,1,1,7,115,47,319.36185549999936,319.36185549999936,319.86294589999943,319.92893129999993,319.9795798999994,319.9795798999994,319.9795798999994,319.9795798999994,320.0300176999999,320.0300176999999,320.0300176999999,320.0300176999999,320.0300176999999,320.0300176999999,320.0300176999999,320.0300176999999,320.0300176999999,right,0.6922856000001048,320.74654459999965,320.74654459999965,None,,6,001,2025-12-17_13h08.42.043,2025C_exp1_comp,2022.2.4,59.925273184112505,
35.3,45,1,-1,1,8,116,96,320.74654459999965,320.74654459999965,321.2470622999999,321.3137578999995,321.36410720000003,321.36410720000003,321.36410720000003,321.36410720000003,321.413998,321.413998,321.413998,321.413998,321.413998,321.413998,321.413998,321.413998,321.413998,left,0.7802553000001353,322.21479139999974,322.21479139999974,None,,6,001,2025-12-17_13h08.42.043,2025C_exp1_comp,2022.2.4,59.925273184112505,
35.3,315,1,0,1,9,117,33,322.21479139999974,322.21479139999974,322.7152372999999,322.7819387999998,322.8322774999997,322.8322774999997,322.8322774999997,322.8322774999997,322.8820063999992,322.8820063999992,322.8820063999992,322.8820063999992,322.8820063999992,322.8820063999992,322.8820063999992,322.8820063999992,322.8820063999992,right,0.9682877999994162,323.8830879999996,323.8830879999996,None,,6,001,2025-12-17_13h08.42.043,2025C_exp1_comp,2022.2.4,59.925273184112505,
12.1,315,-1,0,1,10,118,9,323.8830879999996,323.8830879999996,324.3835997999995,324.45057309999993,324.50091299999985,324.50091299999985,324.50091299999985,324.50091299999985,324.5506280999998,324.5506280999998,324.5506280999998,324.5506280999998,324.5506280999998,324.5506280999998,324.5506280999998,324.5506280999998,324.5506280999998,right,0.6200895000001765,325.2009918999993,325.2009918999993,None,,6,001,2025-12-17_13h08.42.043,2025C_exp1_comp,2022.2.4,59.925273184112505,
25.5,45,-1,-1,1,11,119,76,325.2009918999993,325.2009918999993,325.7014978999996,325.7682335999998,325.81856269999935,325.81856269999935,325.81856269999935,325.81856269999935,325.8683255999995,325.8683255999995,325.8683255999995,325.8683255999995,325.8683255999995,325.8683255999995,325.8683255999995,325.8683255999995,325.8683255999995,left,0.8542197999995551,326.7530182999999,326.7530182999999,None,,6,001,2025-12-17_13h08.42.043,2025C_exp1_comp,2022.2.4,59.925273184112505,
35.3,45,-1,-1,1,12,120,78,326.7530182999999,326.7530182999999,327.2530348,327.31980229999954,327.37008459999925,327.37008459999925,327.37008459999925,327.37008459999925,327.41985719999957,327.41985719999957,327.41985719999957,327.41985719999957,327.41985719999957,327.41985719999957,327.41985719999957,327.41985719999957,327.41985719999957,left,0.654167900000175,328.103916,328.103916,None,,6,001,2025-12-17_13h08.42.043,2025C_exp1_comp,2022.2.4,59.925273184112505,
29.4,45,-1,-1,1,13,121,77,328.103916,328.103916,328.6044904999999,328.6712269999998,328.72144539999954,328.72144539999954,328.72144539999954,328.72144539999954,328.77128249999987,328.77128249999987,328.77128249999987,328.77128249999987,328.77128249999987,328.77128249999987,328.77128249999987,328.77128249999987,328.77128249999987,left,0.8951653000003716,329.6889336999993,329.6889336999993,None,,6,001,2025-12-17_13h08.42.043,2025C_exp1_comp,2022.2.4,59.925273184112505,
25.5,45,-1,1,1,14,122,40,329.6889336999993,329.6889336999993,330.18930809999983,330.25637629999983,330.3064080999993,330.3064080999993,330.3064080999993,330.3064080999993,330.3561387999998,330.3561387999998,330.3561387999998,330.3561387999998,330.3561387999998,330.3561387999998,330.3561387999998,330.3561387999998,330.3561387999998,left,0.7980056000005789,331.17359899999974,331.17359899999974,None,,6,001,2025-12-17_13h08.42.043,2025C_exp1_comp,2022.2.4,59.925273184112505,
35.3,45,-1,0,1,15,123,6,331.17359899999974,331.17359899999974,331.67407339999954,331.7407981999995,331.7911650999995,331.7911650999995,331.7911650999995,331.7911650999995,331.84092599999985,331.84092599999985,331.84092599999985,331.84092599999985,331.84092599999985,331.84092599999985,331.84092599999985,331.84092599999985,331.84092599999985,left,0.9296108999997159,332.79192049999983,332.79192049999983,None,,6,001,2025-12-17_13h08.42.043,2025C_exp1_comp,2022.2.4,59.925273184112505,
35.3,45,-1,1,1,16,124,42,332.79192049999983,332.79192049999983,333.2926783999992,333.35913230000006,333.40943249999964,333.40943249999964,333.40943249999964,333.40943249999964,333.45921089999956,333.45921089999956,333.45921089999956,333.45921089999956,333.45921089999956,333.45921089999956,333.45921089999956,333.45921089999956,333.45921089999956,left,0.7747527000001355,334.2602485999996,334.2602485999996,None,,6,001,2025-12-17_13h08.42.043,2025C_exp1_comp,2022.2.4,59.925273184112505,
19.6,315,-1,-1,1,17,125,83,334.2602485999996,334.2602485999996,334.7608182999993,334.8273182999992,334.87753879999946,334.87753879999946,334.87753879999946,334.87753879999946,334.9273459999995,334.9273459999995,334.9273459999995,334.9273459999995,334.9273459999995,334.9273459999995,334.9273459999995,334.9273459999995,334.9273459999995,right,0.9069585000006555,335.86143039999934,335.86143039999934,None,,6,001,2025-12-17_13h08.42.043,2025C_exp1_comp,2022.2.4,59.925273184112505,
35.3,45,1,0,1,18,126,24,335.86143039999934,335.86143039999934,336.36229359999925,336.42888849999963,336.4793446999993,336.4793446999993,336.4793446999993,336.4793446999993,336.528953,336.528953,336.528953,336.528953,336.528953,336.528953,336.528953,336.528953,336.528953,left,0.5935634000006758,337.14624619999995,337.14624619999995,None,,6,001,2025-12-17_13h08.42.043,2025C_exp1_comp,2022.2.4,59.925273184112505,
39.2,315,-1,-1,1,19,127,88,337.14624619999995,337.14624619999995,337.6473591999993,337.71349499999997,337.76382419999936,337.76382419999936,337.76382419999936,337.76382419999936,337.81364009999925,337.81364009999925,337.81364009999925,337.81364009999925,337.81364009999925,337.81364009999925,337.81364009999925,337.81364009999925,337.81364009999925,left,0.6445831999999427,338.4810766999999,338.4810766999999,None,,6,001,2025-12-17_13h08.42.043,2025C_exp1_comp,2022.2.4,59.925273184112505,
19.6,45,-1,-1,1,20,128,74,338.4810766999999,338.4810766999999,338.98148709999987,339.0482033999997,339.0990594999994,339.0990594999994,339.0990594999994,339.0990594999994,339.1483144999993,339.1483144999993,339.1483144999993,339.1483144999993,339.1483144999993,339.1483144999993,339.1483144999993,339.1483144999993,339.1483144999993,right,0.6699243000002753,339.8491355999995,339.8491355999995,None,,6,001,2025-12-17_13h08.42.043,2025C_exp1_comp,2022.2.4,59.925273184112505,
22.7,315,1,0,1,21,129,30,339.8491355999995,339.8491355999995,340.34954199999993,340.41624779999984,340.4663522999999,340.4663522999999,340.4663522999999,340.4663522999999,340.5167077999995,340.5167077999995,340.5167077999995,340.5167077999995,340.5167077999995,340.5167077999995,340.5167077999995,340.5167077999995,340.5167077999995,left,0.6296658999999636,341.1670529999992,341.1670529999992,None,,6,001,2025-12-17_13h08.42.043,2025C_exp1_comp,2022.2.4,59.925273184112505,
42.7,315,1,0,1,22,130,35,341.1670529999992,341.1670529999992,341.66742539999996,341.7345330999997,341.7845112999994,341.7845112999994,341.7845112999994,341.7845112999994,341.8342808999996,341.8342808999996,341.8342808999996,341.8342808999996,341.8342808999996,341.8342808999996,341.8342808999996,341.8342808999996,341.8342808999996,left,0.6722684999995181,342.53591359999973,342.53591359999973,None,,6,001,2025-12-17_13h08.42.043,2025C_exp1_comp,2022.2.4,59.925273184112505,
12.1,315,1,1,1,23,131,63,342.53591359999973,342.53591359999973,343.0355399,343.10293829999955,343.15254359999926,343.15254359999926,343.15254359999926,343.15254359999926,343.2023657,343.2023657,343.2023657,343.2023657,343.2023657,343.2023657,343.2023657,343.2023657,343.2023657,left,0.6158210999992662,343.83638410000003,343.83638410000003,None,,6,001,2025-12-17_13h08.42.043,2025C_exp1_comp,2022.2.4,59.925273184112505,
15.7,315,1,-1,1,24,132,100,343.83638410000003,343.83638410000003,344.3372925999993,344.4034765999995,344.4540215999996,344.4540215999996,344.4540215999996,344.4540215999996,344.5036930999995,344.5036930999995,344.5036930999995,344.5036930999995,344.5036930999995,344.5036930999995,344.5036930999995,344.5036930999995,344.5036930999995,left,0.5792762000000948,345.10422089999975,345.10422089999975,None,,6,001,2025-12-17_13h08.42.043,2025C_exp1_comp,2022.2.4,59.925273184112505,
25.5,45,1,0,1,25,133,22,345.10422089999975,345.10422089999975,345.60471419999976,345.67146109999976,345.7218006999992,345.7218006999992,345.7218006999992,345.7218006999992,345.7715054,345.7715054,345.7715054,345.7715054,345.7715054,345.7715054,345.7715054,345.7715054,345.7715054,left,0.5035237000001871,346.30540219999966,346.30540219999966,None,,6,001,2025-12-17_13h08.42.043,2025C_exp1_comp,2022.2.4,59.925273184112505,
25.5,315,-1,1,1,26,134,49,346.30540219999966,346.30540219999966,346.8059439999997,346.87266499999987,346.92352499999924,346.92352499999924,346.92352499999924,346.92352499999924,346.9728806999992,346.9728806999992,346.9728806999992,346.9728806999992,346.9728806999992,346.9728806999992,346.9728806999992,346.9728806999992,346.9728806999992,right,0.5336810999997397,347.52396299999964,347.52396299999964,None,,6,001,2025-12-17_13h08.42.043,2025C_exp1_comp,2022.2.4,59.925273184112505,
15.7,315,-1,1,1,27,135,46,347.52396299999964,347.52396299999964,348.0246843999994,348.09111029999985,348.1410210999993,348.1410210999993,348.1410210999993,348.1410210999993,348.1907558999992,348.1907558999992,348.1907558999992,348.1907558999992,348.1907558999992,348.1907558999992,348.1907558999992,348.1907558999992,348.1907558999992,right,0.6115971999997782,348.8246032999996,348.8246032999996,None,,6,001,2025-12-17_13h08.42.043,2025C_exp1_comp,2022.2.4,59.925273184112505,
12.1,45,-1,-1,1,28,136,72,348.8246032999996,348.8246032999996,349.32510469999943,349.3922155999999,349.4423049999996,349.4423049999996,349.4423049999996,349.4423049999996,349.49194329999955,349.49194329999955,349.49194329999955,349.49194329999955,349.49194329999955,349.49194329999955,349.49194329999955,349.49194329999955,349.49194329999955,right,0.5909173999998529,350.11075359999995,350.11075359999995,None,,6,001,2025-12-17_13h08.42.043,2025C_exp1_comp,2022.2.4,59.925273184112505,
39.2,45,-1,1,1,29,137,43,350.11075359999995,350.11075359999995,350.60976609999943,350.676692,350.7268992999998,350.7268992999998,350.7268992999998,350.7268992999998,350.7765572999997,350.7765572999997,350.7765572999997,350.7765572999997,350.7765572999997,350.7765572999997,350.7765572999997,350.7765572999997,350.7765572999997,left,0.6255054000002929,351.427772,351.427772,None,,6,001,2025-12-17_13h08.42.043,2025C_exp1_comp,2022.2.4,59.925273184112505,
25.5,315,1,1,1,30,138,67,351.427772,351.427772,351.9285887999995,351.9944399999995,352.04490499999974,352.04490499999974,352.04490499999974,352.04490499999974,352.09457999999995,352.09457999999995,352.09457999999995,352.09457999999995,352.09457999999995,352.09457999999995,352.09457999999995,352.09457999999995,352.09457999999995,right,0.5236636999998154,352.64509159999943,352.64509159999943,None,,6,001,2025-12-17_13h08.42.043,2025C_exp1_comp,2022.2.4,59.925273184112505,
22.7,315,1,1,1,31,139,66,352.64509159999943,352.64509159999943,353.1456097,353.2123211999997,353.2626315999996,353.2626315999996,353.2626315999996,353.2626315999996,353.3125253999997,353.3125253999997,353.3125253999997,353.3125253999997,353.3125253999997,353.3125253999997,353.3125253999997,353.3125253999997,353.3125253999997,left,0.5461457999999766,353.8797291000001,353.8797291000001,None,,6,001,2025-12-17_13h08.42.043,2025C_exp1_comp,2022.2.4,59.925273184112505,
25.5,45,-1,0,1,32,140,4,353.8797291000001,353.8797291000001,354.38026360000003,354.4472294999996,354.4972422999999,354.4972422999999,354.4972422999999,354.4972422999999,354.5471172999996,354.5471172999996,354.5471172999996,354.5471172999996,354.5471172999996,354.5471172999996,354.5471172999996,354.5471172999996,354.5471172999996,left,0.5594479000001229,355.13098159999936,355.13098159999936,None,,6,001,2025-12-17_13h08.42.043,2025C_exp1_comp,2022.2.4,59.925273184112505,
39.2,45,-1,0,1,33,141,7,355.13098159999936,355.13098159999936,355.6314416999994,355.6982842999996,355.74845109999933,355.74845109999933,355.74845109999933,355.74845109999933,355.7982491999992,355.7982491999992,355.7982491999992,355.7982491999992,355.7982491999992,355.7982491999992,355.7982491999992,355.7982491999992,355.7982491999992,left,0.6206673999995473,356.4493556999996,356.4493556999996,None,,6,001,2025-12-17_13h08.42.043,2025C_exp1_comp,2022.2.4,59.925273184112505,
29.4,315,-1,-1,1,34,142,86,356.4493556999996,356.4493556999996,356.9498272000001,357.01612529999966,357.0674132999993,357.0674132999993,357.0674132999993,357.0674132999993,357.1163736999997,357.1163736999997,357.1163736999997,357.1163736999997,357.1163736999997,357.1163736999997,357.1163736999997,357.1163736999997,357.1163736999997,left,0.8223492000006445,357.96724339999946,357.96724339999946,None,,6,001,2025-12-17_13h08.42.043,2025C_exp1_comp,2022.2.4,59.925273184112505,
35.3,315,-1,0,1,35,143,15,357.96724339999946,357.96724339999946,358.46755309999935,358.53442709999945,358.58461669999997,358.58461669999997,358.58461669999997,358.58461669999997,358.63443669999924,358.63443669999924,358.63443669999924,358.63443669999924,358.63443669999924,358.63443669999924,358.63443669999924,358.63443669999924,358.63443669999924,left,0.5755982000000586,359.23592049999934,359.23592049999934,None,,6,001,2025-12-17_13h08.42.043,2025C_exp1_comp,2022.2.4,59.925273184112505,
29.4,45,1,0,1,36,144,23,359.23592049999934,359.23592049999934,359.73623659999976,359.80235169999924,359.8534394999997,359.8534394999997,359.8534394999997,359.8534394999997,359.90258279999944,359.90258279999944,359.90258279999944,359.90258279999944,359.90258279999944,359.90258279999944,359.90258279999944,359.90258279999944,359.90258279999944,left,0.5480321999993976,360.4703845999993,360.4703845999993,None,,6,001,2025-12-17_13h08.42.043,2025C_exp1_comp,2022.2.4,59.925273184112505,
42.7,45,-1,1,1,37,145,44,360.4703845999993,360.4703845999993,360.9700871999994,361.0368902,361.0871170999999,361.0871170999999,361.0871170999999,361.0871170999999,361.1370806999994,361.1370806999994,361.1370806999994,361.1370806999994,361.1370806999994,361.1370806999994,361.1370806999994,361.1370806999994,361.1370806999994,left,0.6732121000004554,361.8376120999992,361.8376120999992,None,,6,001,2025-12-17_13h08.42.043,2025C_exp1_comp,2022.2.4,59.925273184112505,
35.3,315,1,1,1,38,146,69,361.8376120999992,361.8376120999992,362.3381485,362.4055232999999,362.4553498999994,362.4553498999994,362.4553498999994,362.4553498999994,362.5049470999993,362.5049470999993,362.5049470999993,362.5049470999993,362.5049470999993,362.5049470999993,362.5049470999993,362.5049470999993,362.5049470999993,right,0.5693644000002678,363.1055286999999,363.1055286999999,None,,6,001,2025-12-17_13h08.42.043,2025C_exp1_comp,2022.2.4,59.925273184112505,
42.7,315,-1,0,1,39,147,17,363.1055286999999,363.1055286999999,363.6059768999994,363.67289509999955,363.7241733999999,363.7241733999999,363.7241733999999,363.7241733999999,363.7735460999993,363.7735460999993,363.7735460999993,363.7735460999993,363.7735460999993,363.7735460999993,363.7735460999993,363.7735460999993,363.7735460999993,left,0.5011708000001818,364.2903252999995,364.2903252999995,None,,6,001,2025-12-17_13h08.42.043,2025C_exp1_comp,2022.2.4,59.925273184112505,
35.3,315,-1,-1,1,40,148,87,364.2903252999995,364.2903252999995,364.7910873000001,364.8573386999997,364.90790689999994,364.90790689999994,364.90790689999994,364.90790689999994,364.9575101999999,364.9575101999999,364.9575101999999,364.9575101999999,364.9575101999999,364.9575101999999,364.9575101999999,364.9575101999999,364.9575101999999,left,0.5651416999999128,365.54139869999926,365.54139869999926,None,,6,001,2025-12-17_13h08.42.043,2025C_exp1_comp,2022.2.4,59.925273184112505,
29.4,45,1,-1,1,41,149,95,365.54139869999926,365.54139869999926,366.04190219999964,366.10878429999957,366.1588431,366.1588431,366.1588431,366.1588431,366.2094395999993,366.2094395999993,366.2094395999993,366.2094395999993,366.2094395999993,366.2094395999993,366.2094395999993,366.2094395999993,366.2094395999993,left,0.6249575000001641,366.8606843999996,366.8606843999996,None,,6,001,2025-12-17_13h08.42.043,2025C_exp1_comp,2022.2.4,59.925273184112505,
15.7,315,1,0,1,42,150,28,366.8606843999996,366.8606843999996,367.3598839999995,367.4266846999999,367.47683659999984,367.47683659999984,367.47683659999984,367.47683659999984,367.52726059999986,367.52726059999986,367.52726059999986,367.52726059999986,367.52726059999986,367.52726059999986,367.52726059999986,367.52726059999986,367.52726059999986,left,0.5389837000002444,368.0938512999992,368.0938512999992,None,,6,001,2025-12-17_13h08.42.043,2025C_exp1_comp,2022.2.4,59.925273184112505,
19.6,315,-1,0,1,43,151,11,368.0938512999992,368.0938512999992,368.5943860999996,368.6623953999997,368.7114825999997,368.7114825999997,368.7114825999997,368.7114825999997,368.7611903999996,368.7611903999996,368.7611903999996,368.7611903999996,368.7611903999996,368.7611903999996,368.7611903999996,368.7611903999996,368.7611903999996,left,1.3775282999995397,370.16341609999927,370.16341609999927,None,,6,001,2025-12-17_13h08.42.043,2025C_exp1_comp,2022.2.4,59.925273184112505,
12.1,45,1,0,1,44,152,18,370.16341609999927,370.16341609999927,370.66328819999944,370.7311426999995,370.7801525999994,370.7801525999994,370.7801525999994,370.7801525999994,370.83084809999946,370.83084809999946,370.83084809999946,370.83084809999946,370.83084809999946,370.83084809999946,370.83084809999946,370.83084809999946,370.83084809999946,left,0.5716995000002498,371.43052219999936,371.43052219999936,None,,6,001,2025-12-17_13h08.42.043,2025C_exp1_comp,2022.2.4,59.925273184112505,
15.7,45,-1,-1,1,45,153,73,371.43052219999936,371.43052219999936,371.9312422999992,371.99774979999984,372.0481246999998,372.0481246999998,372.0481246999998,372.0481246999998,372.0982463,372.0982463,372.0982463,372.0982463,372.0982463,372.0982463,372.0982463,372.0982463,372.0982463,left,1.7204560999998648,373.85120349999943,373.85120349999943,None,,6,001,2025-12-17_13h08.42.043,2025C_exp1_comp,2022.2.4,59.925273184112505,
19.6,45,1,1,1,46,154,56,373.85120349999943,373.85120349999943,374.3501329999999,374.4169017999993,374.4673591999999,374.4673591999999,374.4673591999999,374.4673591999999,374.51707540000007,374.51707540000007,374.51707540000007,374.51707540000007,374.51707540000007,374.51707540000007,374.51707540000007,374.51707540000007,374.51707540000007,left,0.7090508999999656,375.25147019999986,375.25147019999986,None,,6,001,2025-12-17_13h08.42.043,2025C_exp1_comp,2022.2.4,59.925273184112505,
25.5,315,-1,-1,1,47,155,85,375.25147019999986,375.25147019999986,375.7515466999994,375.8182360999999,375.8685472999996,375.8685472999996,375.8685472999996,375.8685472999996,375.9183276999993,375.9183276999993,375.9183276999993,375.9183276999993,375.9183276999993,375.9183276999993,375.9183276999993,375.9183276999993,375.9183276999993,left,0.7877988000000187,376.7358113999999,376.7358113999999,None,,6,001,2025-12-17_13h08.42.043,2025C_exp1_comp,2022.2.4,59.925273184112505,
22.7,45,-1,0,1,48,156,3,376.7358113999999,376.7358113999999,377.2366143999998,377.3036248999997,377.3533631,377.3533631,377.3533631,377.3533631,377.40315329999976,377.40315329999976,377.40315329999976,377.40315329999976,377.40315329999976,377.40315329999976,377.40315329999976,377.40315329999976,377.40315329999976,left,1.623201500000505,379.05539989999943,379.05539989999943,None,,6,001,2025-12-17_13h08.42.043,2025C_exp1_comp,2022.2.4,59.925273184112505,
35.3,45,1,1,1,49,157,60,379.05539989999943,379.05539989999943,379.5553801999995,379.62196649999987,379.67245509999975,379.67245509999975,379.67245509999975,379.67245509999975,379.7222529999999,379.7222529999999,379.7222529999999,379.7222529999999,379.7222529999999,379.7222529999999,379.7222529999999,379.7222529999999,379.7222529999999,left,0.8956605000003037,380.6396973000001,380.6396973000001,None,,6,001,2025-12-17_13h08.42.043,2025C_exp1_comp,2022.2.4,59.925273184112505,
42.7,315,-1,1,1,50,158,53,380.6396973000001,380.6396973000001,381.1405286999998,381.20695290000003,381.25708739999936,381.25708739999936,381.25708739999936,381.25708739999936,381.30769079999936,381.30769079999936,381.30769079999936,381.30769079999936,381.30769079999936,381.30769079999936,381.30769079999936,381.30769079999936,381.30769079999936,left,0.64662589999989,381.9745358,381.9745358,None,,6,001,2025-12-17_13h08.42.043,2025C_exp1_comp,2022.2.4,59.925273184112505,
22.7,45,1,-1,1,51,159,93,381.9745358,381.9745358,382.47511609999947,382.5416065999998,382.59192989999974,382.59192989999974,382.59192989999974,382.59192989999974,382.6417223999997,382.6417223999997,382.6417223999997,382.6417223999997,382.6417223999997,382.6417223999997,382.6417223999997,382.6417223999997,382.6417223999997,left,0.5926524999995308,383.25890889999937,383.25890889999937,None,,6,001,2025-12-17_13h08.42.043,2025C_exp1_comp,2022.2.4,59.925273184112505,
39.2,45,1,1,1,52,160,61,383.25890889999937,383.25890889999937,383.7599597999997,383.8264886999996,383.8767986999992,383.8767986999992,383.8767986999992,383.8767986999992,383.92627379999976,383.92627379999976,383.92627379999976,383.92627379999976,383.92627379999976,383.92627379999976,383.92627379999976,383.92627379999976,383.92627379999976,left,0.6357918000003338,384.5936240000001,384.5936240000001,None,,6,001,2025-12-17_13h08.42.043,2025C_exp1_comp,2022.2.4,59.925273184112505,
39.2,45,1,-1,1,53,161,97,384.5936240000001,384.5936240000001,385.09413069999937,385.16097999999965,385.2111933999995,385.2111933999995,385.2111933999995,385.2111933999995,385.2612242999994,385.2612242999994,385.2612242999994,385.2612242999994,385.2612242999994,385.2612242999994,385.2612242999994,385.2612242999994,385.2612242999994,left,1.0770721999997477,386.3620513999995,386.3620513999995,None,,6,001,2025-12-17_13h08.42.043,2025C_exp1_comp,2022.2.4,59.925273184112505,
39.2,45,-1,-1,1,54,162,79,386.3620513999995,386.3620513999995,386.86257579999983,386.92931919999955,386.9796031999995,386.9796031999995,386.9796031999995,386.9796031999995,387.02941719999944,387.02941719999944,387.02941719999944,387.02941719999944,387.02941719999944,387.02941719999944,387.02941719999944,387.02941719999944,387.02941719999944,left,1.3493153999997958,388.3975510999999,388.3975510999999,None,,6,001,2025-12-17_13h08.42.043,2025C_exp1_comp,2022.2.4,59.925273184112505,
12.1,45,1,-1,1,55,163,90,388.3975510999999,388.3975510999999,388.8981544999997,388.9646796999996,389.01499160000003,389.01499160000003,389.01499160000003,389.01499160000003,389.06483239999943,389.06483239999943,389.06483239999943,389.06483239999943,389.06483239999943,389.06483239999943,389.06483239999943,389.06483239999943,389.06483239999943,left,0.6894180999997843,389.7821434999996,389.7821434999996,None,,6,001,2025-12-17_13h08.42.043,2025C_exp1_comp,2022.2.4,59.925273184112505,
25.5,45,1,1,1,56,164,58,389.7821434999996,389.7821434999996,390.2829404999993,390.34964349999973,390.4003192,390.4003192,390.4003192,390.4003192,390.4494621999993,390.4494621999993,390.4494621999993,390.4494621999993,390.4494621999993,390.4494621999993,390.4494621999993,390.4494621999993,390.4494621999993,left,0.5766846999995323,391.05009019999943,391.05009019999943,None,,6,001,2025-12-17_13h08.42.043,2025C_exp1_comp,2022.2.4,59.925273184112505,
15.7,315,-1,0,1,57,165,10,391.05009019999943,391.05009019999943,391.55068630000005,391.61767229999987,391.66775039999993,391.66775039999993,391.66775039999993,391.66775039999993,391.7176536999996,391.7176536999996,391.7176536999996,391.7176536999996,391.7176536999996,391.7176536999996,391.7176536999996,391.7176536999996,391.7176536999996,right,0.4927551000000676,392.23460129999967,392.23460129999967,None,,6,001,2025-12-17_13h08.42.043,2025C_exp1_comp,2022.2.4,59.925273184112505,
42.7,315,1,-1,1,58,166,107,392.23460129999967,392.23460129999967,392.73514499999965,392.8024083,392.8521716999994,392.8521716999994,392.8521716999994,392.8521716999994,392.90194969999993,392.90194969999993,392.90194969999993,392.90194969999993,392.90194969999993,392.90194969999993,392.90194969999993,392.90194969999993,392.90194969999993,right,1.1327950999993845,394.0530777999993,394.0530777999993,None,,6,001,2025-12-17_13h08.42.043,2025C_exp1_comp,2022.2.4,59.925273184112505,
42.7,45,1,-1,1,59,167,98,394.0530777999993,394.0530777999993,394.5540177999992,394.6204425999995,394.6706532999997,394.6706532999997,394.6706532999997,394.6706532999997,394.7204032999998,394.7204032999998,394.7204032999998,394.7204032999998,394.7204032999998,394.7204032999998,394.7204032999998,394.7204032999998,394.7204032999998,left,1.1464130000003934,395.8891070999998,395.8891070999998,None,,6,001,2025-12-17_13h08.42.043,2025C_exp1_comp,2022.2.4,59.925273184112505,
12.1,45,-1,0,1,60,168,0,395.8891070999998,395.8891070999998,396.38931629999934,396.45590659999925,396.5065623999999,396.5065623999999,396.5065623999999,396.5065623999999,396.55555099999947,396.55555099999947,396.55555099999947,396.55555099999947,396.55555099999947,396.55555099999947,396.55555099999947,396.55555099999947,396.55555099999947,right,0.4873971999995774,397.0727905999993,397.0727905999993,None,,6,001,2025-12-17_13h08.42.043,2025C_exp1_comp,2022.2.4,59.925273184112505,
19.6,45,1,-1,1,61,169,92,397.0727905999993,397.0727905999993,397.5733188999993,397.6400324999995,397.6903235,397.6903235,397.6903235,397.6903235,397.7402070999997,397.7402070999997,397.7402070999997,397.7402070999997,397.7402070999997,397.7402070999997,397.7402070999997,397.7402070999997,397.7402070999997,left,0.6301014999999097,398.3907571,398.3907571,None,,6,001,2025-12-17_13h08.42.043,2025C_exp1_comp,2022.2.4,59.925273184112505,
42.7,315,1,1,1,62,170,71,398.3907571,398.3907571,398.8912851999994,398.9582037,399.0083208999995,399.0083208999995,399.0083208999995,399.0083208999995,399.05810459999975,399.05810459999975,399.05810459999975,399.05810459999975,399.05810459999975,399.05810459999975,399.05810459999975,399.05810459999975,399.05810459999975,right,0.4964912000004915,399.57525519999945,399.57525519999945,None,,6,001,2025-12-17_13h08.42.043,2025C_exp1_comp,2022.2.4,59.925273184112505,
22.7,315,-1,0,1,63,171,12,399.57525519999945,399.57525519999945,400.07577929999934,400.1426987999994,400.19321669999954,400.19321669999954,400.19321669999954,400.19321669999954,400.24266389999957,400.24266389999957,400.24266389999957,400.24266389999957,400.24266389999957,400.24266389999957,400.24266389999957,400.24266389999957,400.24266389999957,right,0.5519487000001391,400.8267511999993,400.8267511999993,None,,6,001,2025-12-17_13h08.42.043,2025C_exp1_comp,2022.2.4,59.925273184112505,
42.7,45,1,1,1,64,172,62,400.8267511999993,400.8267511999993,401.3271471999997,401.3937787999994,401.44415619999927,401.44415619999927,401.44415619999927,401.44415619999927,401.4939639999993,401.4939639999993,401.4939639999993,401.4939639999993,401.4939639999993,401.4939639999993,401.4939639999993,401.4939639999993,401.4939639999993,right,0.6925387000001137,402.21130899999935,402.21130899999935,None,,6,001,2025-12-17_13h08.42.043,2025C_exp1_comp,2022.2.4,59.925273184112505,
22.7,45,1,0,1,65,173,21,402.21130899999935,402.21130899999935,402.7134040000001,402.7786559999995,402.8288124999999,402.8288124999999,402.8288124999999,402.8288124999999,402.8785917999994,402.8785917999994,402.8785917999994,402.8785917999994,402.8785917999994,402.8785917999994,402.8785917999994,402.8785917999994,402.8785917999994,left,0.6514489999999569,403.56275749999986,403.56275749999986,None,,6,001,2025-12-17_13h08.42.043,2025C_exp1_comp,2022.2.4,59.925273184112505,
29.4,45,-1,1,1,66,174,41,403.56275749999986,403.56275749999986,404.06318829999964,404.1298440999999,404.1803801999995,404.1803801999995,404.1803801999995,404.1803801999995,404.2297788999995,404.2297788999995,404.2297788999995,404.2297788999995,404.2297788999995,404.2297788999995,404.2297788999995,404.2297788999995,404.2297788999995,right,0.8203708000000915,405.08078059999934,405.08078059999934,None,,6,001,2025-12-17_13h08.42.043,2025C_exp1_comp,2022.2.4,59.925273184112505,
29.4,45,1,1,1,67,175,59,405.08078059999934,405.08078059999934,405.5813531999993,405.64800529999957,405.69833049999943,405.69833049999943,405.69833049999943,405.69833049999943,405.74814530000003,405.74814530000003,405.74814530000003,405.74814530000003,405.74814530000003,405.74814530000003,405.74814530000003,405.74814530000003,405.74814530000003,left,0.9582626999999775,406.73243419999926,406.73243419999926,None,,6,001,2025-12-17_13h08.42.043,2025C_exp1_comp,2022.2.4,59.925273184112505,
12.1,315,1,-1,1,68,176,99,406.73243419999926,406.73243419999926,407.23295489999964,407.29983489999995,407.3500961999998,407.3500961999998,407.3500961999998,407.3500961999998,407.3997626999999,407.3997626999999,407.3997626999999,407.3997626999999,407.3997626999999,407.3997626999999,407.3997626999999,407.3997626999999,407.3997626999999,left,0.4902019000001019,407.9170512999999,407.9170512999999,None,,6,001,2025-12-17_13h08.42.043,2025C_exp1_comp,2022.2.4,59.925273184112505,
22.7,45,1,1,1,69,177,57,407.9170512999999,407.9170512999999,408.41756540000006,408.4841061999996,408.53448109999954,408.53448109999954,408.53448109999954,408.53448109999954,408.5845077999993,408.5845077999993,408.5845077999993,408.5845077999993,408.5845077999993,408.5845077999993,408.5845077999993,408.5845077999993,408.5845077999993,left,0.4974469999997382,409.10175509999954,409.10175509999954,None,,6,001,2025-12-17_13h08.42.043,2025C_exp1_comp,2022.2.4,59.925273184112505,
29.4,315,-1,0,1,70,178,14,409.10175509999954,409.10175509999954,409.60190049999983,409.6691529,409.7190221999999,409.7190221999999,409.7190221999999,409.7190221999999,409.7691552999995,409.7691552999995,409.7691552999995,409.7691552999995,409.7691552999995,409.7691552999995,409.7691552999995,409.7691552999995,409.7691552999995,right,0.5132993000006536,410.3026895999992,410.3026895999992,None,,6,001,2025-12-17_13h08.42.043,2025C_exp1_comp,2022.2.4,59.925273184112505,
29.4,45,-1,0,1,71,179,5,410.3026895999992,410.3026895999992,410.80320799999936,410.8699143999993,410.9203465999999,410.9203465999999,410.9203465999999,410.9203465999999,410.96993049999946,410.96993049999946,410.96993049999946,410.96993049999946,410.96993049999946,410.96993049999946,410.96993049999946,410.96993049999946,410.96993049999946,left,0.6322473000000173,411.6206505,411.6206505,None,,6,001,2025-12-17_13h08.42.043,2025C_exp1_comp,2022.2.4,59.925273184112505,
15.7,315,1,1,1,72,180,64,411.6206505,411.6206505,412.12116329999935,412.18798459999925,412.23819879999974,412.23819879999974,412.23819879999974,412.23819879999974,412.28806899999927,412.28806899999927,412.28806899999927,412.28806899999927,412.28806899999927,412.28806899999927,412.28806899999927,412.28806899999927,412.28806899999927,left,0.45789199999944685,412.77191459999995,412.77191459999995,None,,6,001,2025-12-17_13h08.42.043,2025C_exp1_comp,2022.2.4,59.925273184112505,
25.5,315,1,0,1,73,181,31,412.77191459999995,412.77191459999995,413.2723761999996,413.3390294999999,413.38936680000006,413.38936680000006,413.38936680000006,413.38936680000006,413.43920569999955,413.43920569999955,413.43920569999955,413.43920569999955,413.43920569999955,413.43920569999955,413.43920569999955,413.43920569999955,413.43920569999955,left,0.5150040999997145,413.97300429999996,413.97300429999996,None,,6,001,2025-12-17_13h08.42.043,2025C_exp1_comp,2022.2.4,59.925273184112505,
35.3,315,1,-1,1,74,182,105,413.97300429999996,413.97300429999996,414.4735249999994,414.54025029999957,414.59055439999975,414.59055439999975,414.59055439999975,414.59055439999975,414.6403849999997,414.6403849999997,414.6403849999997,414.6403849999997,414.6403849999997,414.6403849999997,414.6403849999997,414.6403849999997,414.6403849999997,left,1.0976764999995794,415.7581634999997,415.7581634999997,None,,6,001,2025-12-17_13h08.42.043,2025C_exp1_comp,2022.2.4,59.925273184112505,
29.4,315,1,0,1,75,183,32,415.7581634999997,415.7581634999997,416.2586554999998,416.32534289999967,416.37623579999945,416.37623579999945,416.37623579999945,416.37623579999945,416.4258159000001,416.4258159000001,416.4258159000001,416.4258159000001,416.4258159000001,416.4258159000001,416.4258159000001,416.4258159000001,416.4258159000001,left,0.9764790999997786,417.4264485999993,417.4264485999993,None,,6,001,2025-12-17_13h08.42.043,2025C_exp1_comp,2022.2.4,59.925273184112505,
39.2,315,1,0,1,76,184,34,417.4264485999993,417.4264485999993,417.92699859999993,417.99373229999946,418.0439970999996,418.0439970999996,418.0439970999996,418.0439970999996,418.0937920999995,418.0937920999995,418.0937920999995,418.0937920999995,418.0937920999995,418.0937920999995,418.0937920999995,418.0937920999995,418.0937920999995,left,0.597060899999633,418.7114585999998,418.7114585999998,None,,6,001,2025-12-17_13h08.42.043,2025C_exp1_comp,2022.2.4,59.925273184112505,
22.7,45,-1,-1,1,77,185,75,418.7114585999998,418.7114585999998,419.2115482999998,419.2783438999995,419.32862849999947,419.32862849999947,419.32862849999947,419.32862849999947,419.37835519999953,419.37835519999953,419.37835519999953,419.37835519999953,419.37835519999953,419.37835519999953,419.37835519999953,419.37835519999953,419.37835519999953,right,1.1597259000000122,420.5629159,420.5629159,None,,6,001,2025-12-17_13h08.42.043,2025C_exp1_comp,2022.2.4,59.925273184112505,
15.7,45,-1,0,1,78,186,1,420.5629159,420.5629159,421.06356679999953,421.1302300999996,421.1804924999997,421.1804924999997,421.1804924999997,421.1804924999997,421.2302510999998,421.2302510999998,421.2302510999998,421.2302510999998,421.2302510999998,421.2302510999998,421.2302510999998,421.2302510999998,421.2302510999998,right,0.7728388000004998,422.0322263999997,422.0322263999997,None,,6,001,2025-12-17_13h08.42.043,2025C_exp1_comp,2022.2.4,59.925273184112505,
19.6,45,-1,1,1,79,187,38,422.0322263999997,422.0322263999997,422.53170239999963,422.5982447999995,422.6486225999997,422.6486225999997,422.6486225999997,422.6486225999997,422.69837909999933,422.69837909999933,422.69837909999933,422.69837909999933,422.69837909999933,422.69837909999933,422.69837909999933,422.69837909999933,422.69837909999933,right,0.8242151999993439,423.5493185999994,423.5493185999994,None,,6,001,2025-12-17_13h08.42.043,2025C_exp1_comp,2022.2.4,59.925273184112505,
25.5,45,1,-1,1,80,188,94,423.5493185999994,423.5493185999994,424.04973169999994,424.1164405999998,424.16675359999954,424.16675359999954,424.16675359999954,424.16675359999954,424.21677309999995,424.21677309999995,424.21677309999995,424.21677309999995,424.21677309999995,424.21677309999995,424.21677309999995,424.21677309999995,424.21677309999995,left,2.449236999999812,426.68568419999974,426.68568419999974,None,,6,001,2025-12-17_13h08.42.043,2025C_exp1_comp,2022.2.4,59.925273184112505,
39.2,45,1,0,1,81,189,25,426.68568419999974,426.68568419999974,427.1862188999994,427.2529276999994,427.3032719999992,427.3032719999992,427.3032719999992,427.3032719999992,427.3531291999998,427.3531291999998,427.3531291999998,427.3531291999998,427.3531291999998,427.3531291999998,427.3531291999998,427.3531291999998,427.3531291999998,left,0.6580867999991824,428.03709159999926,428.03709159999926,None,,6,001,2025-12-17_13h08.42.043,2025C_exp1_comp,2022.2.4,59.925273184112505,
42.7,45,1,0,1,82,190,26,428.03709159999926,428.03709159999926,428.53757099999984,428.6044112999998,428.6551454999999,428.6551454999999,428.6551454999999,428.6551454999999,428.70489739999994,428.70489739999994,428.70489739999994,428.70489739999994,428.70489739999994,428.70489739999994,428.70489739999994,428.70489739999994,428.70489739999994,left,3.2733439999992697,432.0077462999998,432.0077462999998,None,,6,001,2025-12-17_13h08.42.043,2025C_exp1_comp,2022.2.4,59.925273184112505,
39.2,315,-1,0,1,83,191,16,432.0077462999998,432.0077462999998,432.5082483999995,432.57527969999956,432.62552759999926,432.62552759999926,432.62552759999926,432.62552759999926,432.67516909999995,432.67516909999995,432.67516909999995,432.67516909999995,432.67516909999995,432.67516909999995,432.67516909999995,432.67516909999995,432.67516909999995,left,3.0073591000000306,435.71143719999964,435.71143719999964,None,,6,001,2025-12-17_13h08.42.043,2025C_exp1_comp,2022.2.4,59.925273184112505,
19.6,315,1,1,1,84,192,65,435.71143719999964,435.71143719999964,436.21199819999947,436.2787596999997,436.32875799999965,436.32875799999965,436.32875799999965,436.32875799999965,436.37855169999966,436.37855169999966,436.37855169999966,436.37855169999966,436.37855169999966,436.37855169999966,436.37855169999966,436.37855169999966,436.37855169999966,left,0.9600972999996884,437.36304239999936,437.36304239999936,None,,6,001,2025-12-17_13h08.42.043,2025C_exp1_comp,2022.2.4,59.925273184112505,
22.7,315,-1,1,1,85,193,48,437.36304239999936,437.36304239999936,437.86362999999983,437.9303839999993,437.9805833999999,437.9805833999999,437.9805833999999,437.9805833999999,438.03053719999934,438.03053719999934,438.03053719999934,438.03053719999934,438.03053719999934,438.03053719999934,438.03053719999934,438.03053719999934,438.03053719999934,right,0.9476520999996865,438.9980846999997,438.9980846999997,None,,6,001,2025-12-17_13h08.42.043,2025C_exp1_comp,2022.2.4,59.925273184112505,
39.2,315,1,1,1,86,194,70,438.9980846999997,438.9980846999997,439.49853579999944,439.56524289999925,439.61592459999974,439.61592459999974,439.61592459999974,439.61592459999974,439.66549080000004,439.66549080000004,439.66549080000004,439.66549080000004,439.66549080000004,439.66549080000004,439.66549080000004,439.66549080000004,439.66549080000004,right,0.7532138000005943,440.44949539999925,440.44949539999925,None,,6,001,2025-12-17_13h08.42.043,2025C_exp1_comp,2022.2.4,59.925273184112505,
42.7,45,-1,0,1,87,195,8,440.44949539999925,440.44949539999925,440.94997179999973,441.0168426,441.0670829999999,441.0670829999999,441.0670829999999,441.0670829999999,441.1168011,441.1168011,441.1168011,441.1168011,441.1168011,441.1168011,441.1168011,441.1168011,441.1168011,left,0.7573107999996864,441.9008772999996,441.9008772999996,None,,6,001,2025-12-17_13h08.42.043,2025C_exp1_comp,2022.2.4,59.925273184112505,
12.1,315,-1,-1,1,88,196,81,441.9008772999996,441.9008772999996,442.40144839999994,442.46815229999993,442.51845929999945,442.51845929999945,442.51845929999945,442.51845929999945,442.56826419999925,442.56826419999925,442.56826419999925,442.56826419999925,442.56826419999925,442.56826419999925,442.56826419999925,442.56826419999925,442.56826419999925,right,0.6902282000000923,443.2856832999996,443.2856832999996,None,,6,001,2025-12-17_13h08.42.043,2025C_exp1_comp,2022.2.4,59.925273184112505,
39.2,315,1,-1,1,89,197,106,443.2856832999996,443.2856832999996,443.7861398999994,443.85297119999996,443.9031802999998,443.9031802999998,443.9031802999998,443.9031802999998,443.95340829999986,443.95340829999986,443.95340829999986,443.95340829999986,443.95340829999986,443.95340829999986,443.95340829999986,443.95340829999986,443.95340829999986,right,0.7526753000001918,444.73708389999956,444.73708389999956,None,,6,001,2025-12-17_13h08.42.043,2025C_exp1_comp,2022.2.4,59.925273184112505,
19.6,45,-1,0,1,90,198,2,444.73708389999956,444.73708389999956,445.2376678999999,445.3042713999994,445.3550865999996,445.3550865999996,445.3550865999996,445.3550865999996,445.40446939999947,445.40446939999947,445.40446939999947,445.40446939999947,445.40446939999947,445.40446939999947,445.40446939999947,445.40446939999947,445.40446939999947,right,0.7894610000003013,446.22173479999947,446.22173479999947,None,,6,001,2025-12-17_13h08.42.043,2025C_exp1_comp,2022.2.4,59.925273184112505,
35.3,315,-1,1,1,91,199,51,446.22173479999947,446.22173479999947,446.72240669999974,446.78911979999975,446.83945419999964,446.83945419999964,446.83945419999964,446.83945419999964,446.88975260000007,446.88975260000007,446.88975260000007,446.88975260000007,446.88975260000007,446.88975260000007,446.88975260000007,446.88975260000007,446.88975260000007,right,0.6721497999997155,447.58976939999957,447.58976939999957,None,,6,001,2025-12-17_13h08.42.043,2025C_exp1_comp,2022.2.4,59.925273184112505,
29.4,315,-1,1,1,92,200,50,447.58976939999957,447.58976939999957,448.09042580000005,448.15715779999937,448.20781869999973,448.20781869999973,448.20781869999973,448.20781869999973,448.2572513999994,448.2572513999994,448.2572513999994,448.2572513999994,448.2572513999994,448.2572513999994,448.2572513999994,448.2572513999994,448.2572513999994,left,0.9215442000004259,449.2082980999994,449.2082980999994,None,,6,001,2025-12-17_13h08.42.043,2025C_exp1_comp,2022.2.4,59.925273184112505,
15.7,45,-1,1,1,93,201,37,449.2082980999994,449.2082980999994,449.7087131999997,449.7754202999995,449.8257546999994,449.8257546999994,449.8257546999994,449.8257546999994,449.87570439999945,449.87570439999945,449.87570439999945,449.87570439999945,449.87570439999945,449.87570439999945,449.87570439999945,449.87570439999945,449.87570439999945,right,0.9428190000007817,450.8431664999998,450.8431664999998,None,,6,001,2025-12-17_13h08.42.043,2025C_exp1_comp,2022.2.4,59.925273184112505,
19.6,315,1,0,1,94,202,29,450.8431664999998,450.8431664999998,451.3438735999998,451.4103729999997,451.4607804999996,451.4607804999996,451.4607804999996,451.4607804999996,451.51049479999983,451.51049479999983,451.51049479999983,451.51049479999983,451.51049479999983,451.51049479999983,451.51049479999983,451.51049479999983,451.51049479999983,left,0.8758411999997406,452.4114191999997,452.4114191999997,None,,6,001,2025-12-17_13h08.42.043,2025C_exp1_comp,2022.2.4,59.925273184112505,
12.1,45,1,1,1,95,203,54,452.4114191999997,452.4114191999997,452.91223869999976,452.97873999999956,453.02893700000004,453.02893700000004,453.02893700000004,453.02893700000004,453.07873930000005,453.07873930000005,453.07873930000005,453.07873930000005,453.07873930000005,453.07873930000005,453.07873930000005,453.07873930000005,453.07873930000005,left,0.6274536999999327,453.7294721999997,453.7294721999997,None,,6,001,2025-12-17_13h08.42.043,2025C_exp1_comp,2022.2.4,59.925273184112505,
42.7,315,-1,-1,1,96,204,89,453.7294721999997,453.7294721999997,454.2299114999996,454.29661379999925,454.3470322999992,454.3470322999992,454.3470322999992,454.3470322999992,454.3967636999996,454.3967636999996,454.3967636999996,454.3967636999996,454.3967636999996,454.3967636999996,454.3967636999996,454.3967636999996,454.3967636999996,left,0.7416011000004801,455.1641389999995,455.1641389999995,None,,6,001,2025-12-17_13h08.42.043,2025C_exp1_comp,2022.2.4,59.925273184112505,
22.7,315,1,-1,1,97,205,102,455.1641389999995,455.1641389999995,455.66467379999995,455.73142839999946,455.78177739999956,455.78177739999956,455.78177739999956,455.78177739999956,455.8315155,455.8315155,455.8315155,455.8315155,455.8315155,455.8315155,455.8315155,455.8315155,455.8315155,left,0.8507400999997117,456.69942289999926,456.69942289999926,None,,6,001,2025-12-17_13h08.42.043,2025C_exp1_comp,2022.2.4,59.925273184112505,
15.7,45,1,0,1,98,206,19,456.69942289999926,456.69942289999926,457.1996356999998,457.26633519999996,457.31655449999926,457.31655449999926,457.31655449999926,457.31655449999926,457.3663870999999,457.3663870999999,457.3663870999999,457.3663870999999,457.3663870999999,457.3663870999999,457.3663870999999,457.3663870999999,457.3663870999999,left,0.7402923999998166,458.13386589999936,458.13386589999936,None,,6,001,2025-12-17_13h08.42.043,2025C_exp1_comp,2022.2.4,59.925273184112505,
12.1,315,-1,1,1,99,207,45,458.13386589999936,458.13386589999936,458.63429859999997,458.70142119999946,458.7513474999996,458.7513474999996,458.7513474999996,458.7513474999996,458.8014128999994,458.8014128999994,458.8014128999994,458.8014128999994,458.8014128999994,458.8014128999994,458.8014128999994,458.8014128999994,458.8014128999994,right,0.7209609999999884,459.5519185999992,459.5519185999992,None,,6,001,2025-12-17_13h08.42.043,2025C_exp1_comp,2022.2.4,59.925273184112505,
