contrast,ori,lefttarget,righttarget,postcue,precue,trials.thisRepN,trials.thisTrialN,trials.thisN,trials.thisIndex,fix1.started,fix2.started,precue_2.started,precue_2.stopped,left_grating.started,right_grating.started,noise_left.started,noise_right.started,key_resp.started,postcue_2.started,fix1_2.started,fix2_2.started,key_resp.keys,key_resp.rt,key_resp_2.started,break_text_2.started,key_resp_2.keys,fix1.stopped,fix2.stopped,left_grating.stopped,right_grating.stopped,noise_left.stopped,noise_right.stopped,key_resp_2.rt,participant,session,date,expName,psychopyVersion,frameRate,
25.5,315,0,1,-1,0,0,0,0,49,13.245349299999361,13.245349299999361,13.727668999999878,13.794382800000676,13.879943699999785,13.879943699999785,13.879943699999785,13.879943699999785,13.911365600000863,13.911365600000863,13.911365600000863,13.911365600000863,num_3,2.3186117999994167,16.246693700000833,16.246693700000833,None,,,,,,,,7,001,2025-12-17_15h45.30.433,2025C_exp1_detect,2022.2.4,59.97382742184192,
35.3,45,1,1,1,1,0,1,1,420,16.246693700000833,16.246693700000833,16.74733969999943,16.81397730000026,16.864373599999453,16.864373599999453,16.864373599999453,16.864373599999453,16.91422749999947,16.91422749999947,16.91422749999947,16.91422749999947,num_3,1.9964141000000382,18.93284610000046,18.93284610000046,None,16.91422749999947,16.91422749999947,16.91422749999947,16.91422749999947,16.91422749999947,16.91422749999947,,7,001,2025-12-17_15h45.30.433,2025C_exp1_detect,2022.2.4,59.97382742184192,
25.5,315,0,1,1,0,0,2,2,121,18.93284610000046,18.93284610000046,19.433348299999125,19.50007580000056,19.5503977999997,19.5503977999997,19.5503977999997,19.5503977999997,19.600257399999464,19.600257399999464,19.600257399999464,19.600257399999464,num_1,1.502018399998633,21.135074100000566,21.135074100000566,None,19.600257399999464,19.600257399999464,19.600257399999464,19.600257399999464,19.600257399999464,19.600257399999464,,7,001,2025-12-17_15h45.30.433,2025C_exp1_detect,2022.2.4,59.97382742184192,
39.2,45,0,0,1,-1,0,3,3,223,21.135074100000566,21.135074100000566,21.635564899999736,21.70227200000045,21.752277100000356,21.752277100000356,21.752277100000356,21.752277100000356,21.802450900000622,21.802450900000622,21.802450900000622,21.802450900000622,num_3,2.0438935000001948,23.87098320000041,23.87098320000041,None,21.802450900000622,21.802450900000622,21.802450900000622,21.802450900000622,21.802450900000622,21.802450900000622,,7,001,2025-12-17_15h45.30.433,2025C_exp1_detect,2022.2.4,59.97382742184192,
35.3,315,0,1,-1,-1,0,4,4,195,23.87098320000041,23.87098320000041,24.371687299999394,24.438395499999388,24.48869410000043,24.48869410000043,24.48869410000043,24.48869410000043,24.538419200000135,24.538419200000135,24.538419200000135,24.538419200000135,num_3,1.5240955999997823,26.090034299999388,26.090034299999388,None,24.538419200000135,24.538419200000135,24.538419200000135,24.538419200000135,24.538419200000135,24.538419200000135,,7,001,2025-12-17_15h45.30.433,2025C_exp1_detect,2022.2.4,59.97382742184192,
19.6,45,0,1,1,1,0,5,5,398,26.090034299999388,26.090034299999388,26.590672300000733,26.65714499999922,26.70725119999952,26.70725119999952,26.70725119999952,26.70725119999952,26.7572880000007,26.7572880000007,26.7572880000007,26.7572880000007,num_1,19.017299199998888,45.79276670000036,45.79276670000036,None,26.7572880000007,26.7572880000007,26.7572880000007,26.7572880000007,26.7572880000007,26.7572880000007,,7,001,2025-12-17_15h45.30.433,2025C_exp1_detect,2022.2.4,59.97382742184192,
12.1,315,1,0,-1,-1,0,6,6,171,45.79276670000036,45.79276670000036,46.29353869999977,46.36025580000023,46.41057460000047,46.41057460000047,46.41057460000047,46.41057460000047,46.46045260000028,46.46045260000028,46.46045260000028,46.46045260000028,num_1,1.0264729999998963,47.51128249999965,47.51128249999965,None,46.46045260000028,46.46045260000028,46.46045260000028,46.46045260000028,46.46045260000028,46.46045260000028,,7,001,2025-12-17_15h45.30.433,2025C_exp1_detect,2022.2.4,59.97382742184192,
19.6,315,0,1,-1,0,0,7,7,47,47.51128249999965,47.51128249999965,48.01196329999948,48.078676400000404,48.12903109999934,48.12903109999934,48.12903109999934,48.12903109999934,48.17878480000036,48.17878480000036,48.17878480000036,48.17878480000036,num_3,0.7965175000008458,48.9962114000009,48.9962114000009,None,48.17878480000036,48.17878480000036,48.17878480000036,48.17878480000036,48.17878480000036,48.17878480000036,,7,001,2025-12-17_15h45.30.433,2025C_exp1_detect,2022.2.4,59.97382742184192,
29.4,45,1,0,1,1,0,8,8,383,48.9962114000009,48.9962114000009,49.49684479999996,49.56317809999928,49.61373939999976,49.61373939999976,49.61373939999976,49.61373939999976,49.66365600000063,49.66365600000063,49.66365600000063,49.66365600000063,num_3,1.6865981000009924,51.38164289999986,51.38164289999986,None,49.66365600000063,49.66365600000063,49.66365600000063,49.66365600000063,49.66365600000063,49.66365600000063,,7,001,2025-12-17_15h45.30.433,2025C_exp1_detect,2022.2.4,59.97382742184192,
29.4,315,1,1,-1,0,0,9,9,68,51.38164289999986,51.38164289999986,51.882420199999615,51.94915819999915,51.999462899999344,51.999462899999344,51.999462899999344,51.999462899999344,52.049352800000634,52.049352800000634,52.049352800000634,52.049352800000634,num_1,2.268406799999866,54.334747799999604,54.334747799999604,None,52.049352800000634,52.049352800000634,52.049352800000634,52.049352800000634,52.049352800000634,52.049352800000634,,7,001,2025-12-17_15h45.30.433,2025C_exp1_detect,2022.2.4,59.97382742184192,
22.7,45,0,1,1,-1,0,10,10,255,54.334747799999604,54.334747799999604,54.83539419999943,54.90212480000082,54.95234359999995,54.95234359999995,54.95234359999995,54.95234359999995,55.002283899999384,55.002283899999384,55.002283899999384,55.002283899999384,num_1,0.8434617999992042,55.86974700000064,55.86974700000064,None,55.002283899999384,55.002283899999384,55.002283899999384,55.002283899999384,55.002283899999384,55.002283899999384,,7,001,2025-12-17_15h45.30.433,2025C_exp1_detect,2022.2.4,59.97382742184192,
35.3,315,1,0,-1,0,0,11,11,33,55.86974700000064,55.86974700000064,56.37002009999924,56.43702900000062,56.48725790000026,56.48725790000026,56.48725790000026,56.48725790000026,56.53700159999971,56.53700159999971,56.53700159999971,56.53700159999971,num_1,0.8366765999999188,57.404352199999266,57.404352199999266,None,56.53700159999971,56.53700159999971,56.53700159999971,56.53700159999971,56.53700159999971,56.53700159999971,,7,001,2025-12-17_15h45.30.433,2025C_exp1_detect,2022.2.4,59.97382742184192,
19.6,45,1,1,1,1,0,12,12,416,57.404352199999266,57.404352199999266,57.90513680000004,57.9718744999991,58.022182099999554,58.022182099999554,58.022182099999554,58.022182099999554,58.072010600000795,58.072010600000795,58.072010600000795,58.072010600000795,num_1,0.9267972999987251,59.022642600000836,59.022642600000836,None,58.072010600000795,58.072010600000795,58.072010600000795,58.072010600000795,58.072010600000795,58.072010600000795,,7,001,2025-12-17_15h45.30.433,2025C_exp1_detect,2022.2.4,59.97382742184192,
15.7,45,1,0,-1,1,0,13,13,307,59.022642600000836,59.022642600000836,59.52345369999966,59.59012099999927,59.640456999999515,59.640456999999515,59.640456999999515,59.640456999999515,59.6903113999997,59.6903113999997,59.6903113999997,59.6903113999997,num_1,0.8033223000002181,60.524193499999456,60.524193499999456,None,59.6903113999997,59.6903113999997,59.6903113999997,59.6903113999997,59.6903113999997,59.6903113999997,,7,001,2025-12-17_15h45.30.433,2025C_exp1_detect,2022.2.4,59.97382742184192,
15.7,315,0,1,-1,0,0,14,14,46,60.524193499999456,60.524193499999456,61.024914499999795,61.09163040000021,61.14193709999927,61.14193709999927,61.14193709999927,61.14193709999927,61.191806500000894,61.191806500000894,61.191806500000894,61.191806500000894,num_3,0.7590864999983751,61.97552639999958,61.97552639999958,None,61.191806500000894,61.191806500000894,61.191806500000894,61.191806500000894,61.191806500000894,61.191806500000894,,7,001,2025-12-17_15h45.30.433,2025C_exp1_detect,2022.2.4,59.97382742184192,
39.2,315,0,0,1,0,0,15,15,88,61.97552639999958,61.97552639999958,62.476180400000885,62.54302260000077,62.593354500000714,62.593354500000714,62.593354500000714,62.593354500000714,62.64324470000065,62.64324470000065,62.64324470000065,62.64324470000065,num_3,0.7233991999983118,63.39368169999943,63.39368169999943,None,62.64324470000065,62.64324470000065,62.64324470000065,62.64324470000065,62.64324470000065,62.64324470000065,,7,001,2025-12-17_15h45.30.433,2025C_exp1_detect,2022.2.4,59.97382742184192,
39.2,315,1,0,-1,0,0,16,16,34,63.39368169999943,63.39368169999943,63.89444430000003,63.96115129999998,64.01141880000068,64.01141880000068,64.01141880000068,64.01141880000068,64.06140760000017,64.06140760000017,64.06140760000017,64.06140760000017,num_1,2.2246871999996074,66.31330510000043,66.31330510000043,None,64.06140760000017,64.06140760000017,64.06140760000017,64.06140760000017,64.06140760000017,64.06140760000017,,7,001,2025-12-17_15h45.30.433,2025C_exp1_detect,2022.2.4,59.97382742184192,
22.7,315,1,0,-1,0,0,17,17,30,66.31330510000043,66.31330510000043,66.81404739999925,66.88059570000041,66.93081170000005,66.93081170000005,66.93081170000005,66.93081170000005,66.98059640000065,66.98059640000065,66.98059640000065,66.98059640000065,num_1,0.6248916999993526,67.63131780000003,67.63131780000003,None,66.98059640000065,66.98059640000065,66.98059640000065,66.98059640000065,66.98059640000065,66.98059640000065,,7,001,2025-12-17_15h45.30.433,2025C_exp1_detect,2022.2.4,59.97382742184192,
42.7,315,1,0,1,-1,0,18,18,251,67.63131780000003,67.63131780000003,68.13174419999996,68.19841029999952,68.24873520000074,68.24873520000074,68.24873520000074,68.24873520000074,68.29877019999913,68.29877019999913,68.29877019999913,68.29877019999913,num_3,0.6907876000004762,69.01593219999995,69.01593219999995,None,68.29877019999913,68.29877019999913,68.29877019999913,68.29877019999913,68.29877019999913,68.29877019999913,,7,001,2025-12-17_15h45.30.433,2025C_exp1_detect,2022.2.4,59.97382742184192,
42.7,45,0,1,-1,1,0,19,19,332,69.01593219999995,69.01593219999995,69.51688699999977,69.58359759999985,69.63392390000081,69.63392390000081,69.63392390000081,69.63392390000081,69.68376270000044,69.68376270000044,69.68376270000044,69.68376270000044,num_3,0.8348506999991514,70.53444520000085,70.53444520000085,None,69.68376270000044,69.68376270000044,69.68376270000044,69.68376270000044,69.68376270000044,69.68376270000044,,7,001,2025-12-17_15h45.30.433,2025C_exp1_detect,2022.2.4,59.97382742184192,
19.6,45,0,1,1,-1,0,20,20,254,70.53444520000085,70.53444520000085,71.03488239999933,71.10171239999909,71.15209959999993,71.15209959999993,71.15209959999993,71.15209959999993,71.20184139999947,71.20184139999947,71.20184139999947,71.20184139999947,num_1,0.5965651999995316,71.81881489999978,71.81881489999978,None,71.20184139999947,71.20184139999947,71.20184139999947,71.20184139999947,71.20184139999947,71.20184139999947,,7,001,2025-12-17_15h45.30.433,2025C_exp1_detect,2022.2.4,59.97382742184192,
35.3,315,1,0,1,0,0,21,21,105,71.81881489999978,71.81881489999978,72.31954310000037,72.38612990000001,72.43662109999968,72.43662109999968,72.43662109999968,72.43662109999968,72.48627660000056,72.48627660000056,72.48627660000056,72.48627660000056,num_3,0.7991999999994732,73.30354760000046,73.30354760000046,None,72.48627660000056,72.48627660000056,72.48627660000056,72.48627660000056,72.48627660000056,72.48627660000056,,7,001,2025-12-17_15h45.30.433,2025C_exp1_detect,2022.2.4,59.97382742184192,
29.4,45,0,0,-1,0,0,22,22,5,73.30354760000046,73.30354760000046,73.80420889999914,73.87103019999995,73.92136129999926,73.92136129999926,73.92136129999926,73.92136129999926,73.97117029999936,73.97117029999936,73.97117029999936,73.97117029999936,num_3,0.8182531999991625,74.82204319999983,74.82204319999983,None,73.97117029999936,73.97117029999936,73.97117029999936,73.97117029999936,73.97117029999936,73.97117029999936,,7,001,2025-12-17_15h45.30.433,2025C_exp1_detect,2022.2.4,59.97382742184192,
39.2,45,0,0,-1,0,0,23,23,7,74.82204319999983,74.82204319999983,75.32252159999916,75.38913750000029,75.43945010000061,75.43945010000061,75.43945010000061,75.43945010000061,75.48942650000026,75.48942650000026,75.48942650000026,75.48942650000026,num_3,0.5651727999993454,76.07305830000041,76.07305830000041,None,75.48942650000026,75.48942650000026,75.48942650000026,75.48942650000026,75.48942650000026,75.48942650000026,,7,001,2025-12-17_15h45.30.433,2025C_exp1_detect,2022.2.4,59.97382742184192,
35.3,315,1,0,1,-1,0,24,24,249,76.07305830000041,76.07305830000041,76.5737637000002,76.64047310000024,76.69078509999963,76.69078509999963,76.69078509999963,76.69078509999963,76.74053029999959,76.74053029999959,76.74053029999959,76.74053029999959,num_3,0.608981399998811,77.37443759999951,77.37443759999951,None,76.74053029999959,76.74053029999959,76.74053029999959,76.74053029999959,76.74053029999959,76.74053029999959,,7,001,2025-12-17_15h45.30.433,2025C_exp1_detect,2022.2.4,59.97382742184192,
12.1,315,0,0,1,1,0,25,25,369,77.37443759999951,77.37443759999951,77.8748500999991,77.94177950000085,77.99208410000028,77.99208410000028,77.99208410000028,77.99208410000028,78.04196059999958,78.04196059999958,78.04196059999958,78.04196059999958,num_3,0.8522174999998242,78.92616660000022,78.92616660000022,None,78.04196059999958,78.04196059999958,78.04196059999958,78.04196059999958,78.04196059999958,78.04196059999958,,7,001,2025-12-17_15h45.30.433,2025C_exp1_detect,2022.2.4,59.97382742184192,
15.7,45,0,0,1,0,0,26,26,73,78.92616660000022,78.92616660000022,79.42660989999968,79.4933087999998,79.54362500000025,79.54362500000025,79.54362500000025,79.54362500000025,79.59350489999997,79.59350489999997,79.59350489999997,79.59350489999997,num_3,0.5724762999998347,80.19392089999928,80.19392089999928,None,79.59350489999997,79.59350489999997,79.59350489999997,79.59350489999997,79.59350489999997,79.59350489999997,,7,001,2025-12-17_15h45.30.433,2025C_exp1_detect,2022.2.4,59.97382742184192,
29.4,315,1,1,-1,1,0,27,27,356,80.19392089999928,80.19392089999928,80.69457089999923,80.76106970000001,80.81143030000021,80.81143030000021,80.81143030000021,80.81143030000021,80.8617377999999,80.8617377999999,80.8617377999999,80.8617377999999,num_1,0.7204606999985117,81.6120594999993,81.6120594999993,None,80.8617377999999,80.8617377999999,80.8617377999999,80.8617377999999,80.8617377999999,80.8617377999999,,7,001,2025-12-17_15h45.30.433,2025C_exp1_detect,2022.2.4,59.97382742184192,
42.7,45,0,1,1,1,0,28,28,404,81.6120594999993,81.6120594999993,82.11282240000037,82.17949699999917,82.22968299999957,82.22968299999957,82.22968299999957,82.22968299999957,82.27954460000001,82.27954460000001,82.27954460000001,82.27954460000001,num_1,0.6377668999994057,82.94682180000018,82.94682180000018,None,82.27954460000001,82.27954460000001,82.27954460000001,82.27954460000001,82.27954460000001,82.27954460000001,,7,001,2025-12-17_15h45.30.433,2025C_exp1_detect,2022.2.4,59.97382742184192,
42.7,45,1,0,1,-1,0,29,29,242,82.94682180000018,82.94682180000018,83.4474424,83.51413440000033,83.5643469000006,83.5643469000006,83.5643469000006,83.5643469000006,83.6141846999999,83.6141846999999,83.6141846999999,83.6141846999999,num_3,0.6318741999984923,84.26452009999957,84.26452009999957,None,83.6141846999999,83.6141846999999,83.6141846999999,83.6141846999999,83.6141846999999,83.6141846999999,,7,001,2025-12-17_15h45.30.433,2025C_exp1_detect,2022.2.4,59.97382742184192,
15.7,45,0,0,-1,1,0,30,30,289,84.26452009999957,84.26452009999957,84.76529049999954,84.83200380000017,84.88205759999983,84.88205759999983,84.88205759999983,84.88205759999983,84.93200559999968,84.93200559999968,84.93200559999968,84.93200559999968,num_3,0.6819952000005287,85.63250019999941,85.63250019999941,None,84.93200559999968,84.93200559999968,84.93200559999968,84.93200559999968,84.93200559999968,84.93200559999968,,7,001,2025-12-17_15h45.30.433,2025C_exp1_detect,2022.2.4,59.97382742184192,
19.6,45,1,0,1,1,0,31,31,380,85.63250019999941,85.63250019999941,86.13335609999922,86.1999907999998,86.2503899000003,86.2503899000003,86.2503899000003,86.2503899000003,86.30015880000064,86.30015880000064,86.30015880000064,86.30015880000064,num_3,0.617827899997792,86.9338286000002,86.9338286000002,None,86.30015880000064,86.30015880000064,86.30015880000064,86.30015880000064,86.30015880000064,86.30015880000064,,7,001,2025-12-17_15h45.30.433,2025C_exp1_detect,2022.2.4,59.97382742184192,
42.7,45,1,1,-1,0,0,32,32,62,86.9338286000002,86.9338286000002,87.43453989999944,87.50137370000084,87.55168129999947,87.55168129999947,87.55168129999947,87.55168129999947,87.60154420000072,87.60154420000072,87.60154420000072,87.60154420000072,num_1,0.8919960999992327,88.51875459999974,88.51875459999974,None,87.60154420000072,87.60154420000072,87.60154420000072,87.60154420000072,87.60154420000072,87.60154420000072,,7,001,2025-12-17_15h45.30.433,2025C_exp1_detect,2022.2.4,59.97382742184192,
22.7,315,0,1,1,1,0,33,33,408,88.51875459999974,88.51875459999974,89.01926400000048,89.08625509999911,89.13687100000061,89.13687100000061,89.13687100000061,89.13687100000061,89.18639529999928,89.18639529999928,89.18639529999928,89.18639529999928,num_1,0.6350657000002684,89.85367550000046,89.85367550000046,None,89.18639529999928,89.18639529999928,89.18639529999928,89.18639529999928,89.18639529999928,89.18639529999928,,7,001,2025-12-17_15h45.30.433,2025C_exp1_detect,2022.2.4,59.97382742184192,
39.2,315,0,1,-1,1,0,34,34,340,89.85367550000046,89.85367550000046,90.35419159999947,90.42101670000011,90.4712182000003,90.4712182000003,90.4712182000003,90.4712182000003,90.52112699999998,90.52112699999998,90.52112699999998,90.52112699999998,num_3,0.6057173999997758,91.1550145000001,91.1550145000001,None,90.52112699999998,90.52112699999998,90.52112699999998,90.52112699999998,90.52112699999998,90.52112699999998,,7,001,2025-12-17_15h45.30.433,2025C_exp1_detect,2022.2.4,59.97382742184192,
39.2,45,0,0,1,0,0,35,35,79,91.1550145000001,91.1550145000001,91.65525329999946,91.72228229999928,91.77249819999997,91.77249819999997,91.77249819999997,91.77249819999997,91.82240590000038,91.82240590000038,91.82240590000038,91.82240590000038,num_3,0.4879727000006824,92.33930490000057,92.33930490000057,None,91.82240590000038,91.82240590000038,91.82240590000038,91.82240590000038,91.82240590000038,91.82240590000038,,7,001,2025-12-17_15h45.30.433,2025C_exp1_detect,2022.2.4,59.97382742184192,
19.6,315,0,0,1,1,0,36,36,371,92.33930490000057,92.33930490000057,92.84005310000066,92.90660380000008,92.95699779999995,92.95699779999995,92.95699779999995,92.95699779999995,93.00672269999995,93.00672269999995,93.00672269999995,93.00672269999995,num_3,0.5194991999997001,93.55736509999952,93.55736509999952,None,93.00672269999995,93.00672269999995,93.00672269999995,93.00672269999995,93.00672269999995,93.00672269999995,,7,001,2025-12-17_15h45.30.433,2025C_exp1_detect,2022.2.4,59.97382742184192,
29.4,315,1,1,1,0,0,37,37,140,93.55736509999952,93.55736509999952,94.05793559999984,94.1245115999991,94.1748592999993,94.1748592999993,94.1748592999993,94.1748592999993,94.22477959999924,94.22477959999924,94.22477959999924,94.22477959999924,num_1,0.6614705000010872,94.90846579999925,94.90846579999925,None,94.22477959999924,94.22477959999924,94.22477959999924,94.22477959999924,94.22477959999924,94.22477959999924,,7,001,2025-12-17_15h45.30.433,2025C_exp1_detect,2022.2.4,59.97382742184192,
25.5,45,0,1,1,1,0,38,38,400,94.90846579999925,94.90846579999925,95.40912539999954,95.47586779999983,95.52639850000014,95.52639850000014,95.52639850000014,95.52639850000014,95.57628560000012,95.57628560000012,95.57628560000012,95.57628560000012,num_1,0.4936151999991125,96.09311340000022,96.09311340000022,None,95.57628560000012,95.57628560000012,95.57628560000012,95.57628560000012,95.57628560000012,95.57628560000012,,7,001,2025-12-17_15h45.30.433,2025C_exp1_detect,2022.2.4,59.97382742184192,
29.4,315,0,1,-1,0,0,39,39,50,96.09311340000022,96.09311340000022,96.5934715000003,96.6603066000007,96.71049060000041,96.71049060000041,96.71049060000041,96.71049060000041,96.76035799999954,96.76035799999954,96.76035799999954,96.76035799999954,num_3,0.6529808999985107,97.44431110000005,97.44431110000005,None,96.76035799999954,96.76035799999954,96.76035799999954,96.76035799999954,96.76035799999954,96.76035799999954,,7,001,2025-12-17_15h45.30.433,2025C_exp1_detect,2022.2.4,59.97382742184192,
35.3,315,1,1,1,1,0,40,40,429,97.44431110000005,97.44431110000005,97.94483779999973,98.01168049999978,98.06191450000006,98.06191450000006,98.06191450000006,98.06191450000006,98.1117845000008,98.1117845000008,98.1117845000008,98.1117845000008,num_1,0.550609699999768,98.68264939999972,98.68264939999972,None,98.1117845000008,98.1117845000008,98.1117845000008,98.1117845000008,98.1117845000008,98.1117845000008,,7,001,2025-12-17_15h45.30.433,2025C_exp1_detect,2022.2.4,59.97382742184192,
29.4,315,0,1,1,1,0,41,41,410,98.68264939999972,98.68264939999972,99.17967789999966,99.24624059999951,99.29642430000058,99.29642430000058,99.29642430000058,99.29642430000058,99.36319700000058,99.36319700000058,99.36319700000058,99.36319700000058,num_1,0.4902128999983688,99.88019750000058,99.88019750000058,None,99.3464442000004,99.3464442000004,99.3464442000004,99.3464442000004,99.3464442000004,99.3464442000004,,7,001,2025-12-17_15h45.30.433,2025C_exp1_detect,2022.2.4,59.97382742184192,
22.7,315,0,0,1,1,0,42,42,372,99.88019750000058,99.88019750000058,100.38104000000021,100.44775029999983,100.49807110000074,100.49807110000074,100.49807110000074,100.49807110000074,100.54790150000008,100.54790150000008,100.54790150000008,100.54790150000008,num_1,0.641722899998058,101.21476729999995,101.21476729999995,None,100.54790150000008,100.54790150000008,100.54790150000008,100.54790150000008,100.54790150000008,100.54790150000008,,7,001,2025-12-17_15h45.30.433,2025C_exp1_detect,2022.2.4,59.97382742184192,
12.1,315,1,1,1,-1,0,43,43,279,101.21476729999995,101.21476729999995,101.71545739999965,101.78228579999995,101.83259460000045,101.83259460000045,101.83259460000045,101.83259460000045,101.88243800000055,101.88243800000055,101.88243800000055,101.88243800000055,num_1,0.5791871000001265,102.48288239999965,102.48288239999965,None,101.88243800000055,101.88243800000055,101.88243800000055,101.88243800000055,101.88243800000055,101.88243800000055,,7,001,2025-12-17_15h45.30.433,2025C_exp1_detect,2022.2.4,59.97382742184192,
12.1,315,1,1,1,1,0,44,44,423,102.48288239999965,102.48288239999965,102.98349199999939,103.05020259999947,103.10052920000089,103.10052920000089,103.10052920000089,103.10052920000089,103.15010369999982,103.15010369999982,103.15010369999982,103.15010369999982,num_1,0.5198775999997451,103.70065430000068,103.70065430000068,None,103.15010369999982,103.15010369999982,103.15010369999982,103.15010369999982,103.15010369999982,103.15010369999982,,7,001,2025-12-17_15h45.30.433,2025C_exp1_detect,2022.2.4,59.97382742184192,
35.3,45,0,0,1,-1,0,45,45,222,103.70065430000068,103.70065430000068,104.2013752999992,104.26803710000058,104.31839570000011,104.31839570000011,104.31839570000011,104.31839570000011,104.36825099999987,104.36825099999987,104.36825099999987,104.36825099999987,num_1,0.5823966999996628,104.9685382000007,104.9685382000007,None,104.36825099999987,104.36825099999987,104.36825099999987,104.36825099999987,104.36825099999987,104.36825099999987,,7,001,2025-12-17_15h45.30.433,2025C_exp1_detect,2022.2.4,59.97382742184192,
19.6,315,0,0,-1,0,0,46,46,11,104.9685382000007,104.9685382000007,105.46927390000019,105.53599939999913,105.58605030000035,105.58605030000035,105.58605030000035,105.58605030000035,105.63595899999927,105.63595899999927,105.63595899999927,105.63595899999927,num_3,0.5142047999997885,106.16973920000055,106.16973920000055,None,105.63595899999927,105.63595899999927,105.63595899999927,105.63595899999927,105.63595899999927,105.63595899999927,,7,001,2025-12-17_15h45.30.433,2025C_exp1_detect,2022.2.4,59.97382742184192,
12.1,45,1,0,-1,-1,0,47,47,162,106.16973920000055,106.16973920000055,106.67052580000018,106.73722780000026,106.78749470000002,106.78749470000002,106.78749470000002,106.78749470000002,106.83742119999988,106.83742119999988,106.83742119999988,106.83742119999988,num_3,0.4568820999993477,107.32089140000062,107.32089140000062,None,106.83742119999988,106.83742119999988,106.83742119999988,106.83742119999988,106.83742119999988,106.83742119999988,,7,001,2025-12-17_15h45.30.433,2025C_exp1_detect,2022.2.4,59.97382742184192,
22.7,315,0,0,-1,-1,0,48,48,156,107.32089140000062,107.32089140000062,107.8215581000004,107.8883979000002,107.93866139999955,107.93866139999955,107.93866139999955,107.93866139999955,107.98846840000078,107.98846840000078,107.98846840000078,107.98846840000078,num_3,0.617706699998962,108.62217330000021,108.62217330000021,None,107.98846840000078,107.98846840000078,107.98846840000078,107.98846840000078,107.98846840000078,107.98846840000078,,7,001,2025-12-17_15h45.30.433,2025C_exp1_detect,2022.2.4,59.97382742184192,
15.7,45,0,1,1,0,0,49,49,109,108.62217330000021,108.62217330000021,109.12269960000049,109.18982470000083,109.24019039999985,109.24019039999985,109.24019039999985,109.24019039999985,109.2896626999991,109.2896626999991,109.2896626999991,109.2896626999991,num_1,2.468227499999557,111.77554469999995,111.77554469999995,None,109.2896626999991,109.2896626999991,109.2896626999991,109.2896626999991,109.2896626999991,109.2896626999991,,7,001,2025-12-17_15h45.30.433,2025C_exp1_detect,2022.2.4,59.97382742184192,
22.7,45,1,1,-1,0,0,50,50,57,111.77554469999995,111.77554469999995,112.27600229999916,112.34266360000038,112.39307069999995,112.39307069999995,112.39307069999995,112.39307069999995,112.44296500000019,112.44296500000019,112.44296500000019,112.44296500000019,num_1,0.6187425000007352,113.09360489999926,113.09360489999926,None,112.44296500000019,112.44296500000019,112.44296500000019,112.44296500000019,112.44296500000019,112.44296500000019,,7,001,2025-12-17_15h45.30.433,2025C_exp1_detect,2022.2.4,59.97382742184192,
12.1,45,0,1,-1,-1,0,51,51,180,113.09360489999926,113.09360489999926,113.59424170000057,113.66068640000049,113.71105890000035,113.71105890000035,113.71105890000035,113.71105890000035,113.76102890000038,113.76102890000038,113.76102890000038,113.76102890000038,num_3,0.7252363999996305,114.51158910000049,114.51158910000049,None,113.76102890000038,113.76102890000038,113.76102890000038,113.76102890000038,113.76102890000038,113.76102890000038,,7,001,2025-12-17_15h45.30.433,2025C_exp1_detect,2022.2.4,59.97382742184192,
35.3,45,1,0,-1,1,0,52,52,312,114.51158910000049,114.51158910000049,115.01238270000067,115.0790732000005,115.12926700000025,115.12926700000025,115.12926700000025,115.12926700000025,115.17907089999972,115.17907089999972,115.17907089999972,115.17907089999972,num_1,0.7225275999990117,115.92955559999973,115.92955559999973,None,115.17907089999972,115.17907089999972,115.17907089999972,115.17907089999972,115.17907089999972,115.17907089999972,,7,001,2025-12-17_15h45.30.433,2025C_exp1_detect,2022.2.4,59.97382742184192,
19.6,45,0,1,-1,0,0,53,53,38,115.92955559999973,115.92955559999973,116.43022770000061,116.49700370000028,116.54727640000056,116.54727640000056,116.54727640000056,116.54727640000056,116.59712349999973,116.59712349999973,116.59712349999973,116.59712349999973,num_3,0.648758799999996,117.26418030000059,117.26418030000059,None,116.59712349999973,116.59712349999973,116.59712349999973,116.59712349999973,116.59712349999973,116.59712349999973,,7,001,2025-12-17_15h45.30.433,2025C_exp1_detect,2022.2.4,59.97382742184192,
25.5,45,1,1,1,0,0,54,54,130,117.26418030000059,117.26418030000059,117.76491239999996,117.8317793999995,117.88196470000003,117.88196470000003,117.88196470000003,117.88196470000003,117.93195809999997,117.93195809999997,117.93195809999997,117.93195809999997,num_1,0.6103023999985453,118.56567480000012,118.56567480000012,None,117.93195809999997,117.93195809999997,117.93195809999997,117.93195809999997,117.93195809999997,117.93195809999997,,7,001,2025-12-17_15h45.30.433,2025C_exp1_detect,2022.2.4,59.97382742184192,
42.7,45,0,0,1,1,0,55,55,368,118.56567480000012,118.56567480000012,119.06627900000058,119.13290659999984,119.18296530000043,119.18296530000043,119.18296530000043,119.18296530000043,119.23320539999986,119.23320539999986,119.23320539999986,119.23320539999986,num_3,0.5326142999983858,119.7833245999991,119.7833245999991,None,119.23320539999986,119.23320539999986,119.23320539999986,119.23320539999986,119.23320539999986,119.23320539999986,,7,001,2025-12-17_15h45.30.433,2025C_exp1_detect,2022.2.4,59.97382742184192,
25.5,315,0,0,1,-1,0,56,56,229,119.7833245999991,119.7833245999991,120.28381590000026,120.35113049999927,120.40137340000001,120.40137340000001,120.40137340000001,120.40137340000001,120.45125870000084,120.45125870000084,120.45125870000084,120.45125870000084,num_3,0.7860901999993075,121.26813840000068,121.26813840000068,None,120.45125870000084,120.45125870000084,120.45125870000084,120.45125870000084,120.45125870000084,120.45125870000084,,7,001,2025-12-17_15h45.30.433,2025C_exp1_detect,2022.2.4,59.97382742184192,
15.7,45,1,1,-1,-1,0,57,57,199,121.26813840000068,121.26813840000068,121.76893510000082,121.83552210000016,121.88593709999986,121.88593709999986,121.88593709999986,121.88593709999986,121.93586630000027,121.93586630000027,121.93586630000027,121.93586630000027,num_1,0.5504414999995788,122.5027859999991,122.5027859999991,None,121.93586630000027,121.93586630000027,121.93586630000027,121.93586630000027,121.93586630000027,121.93586630000027,,7,001,2025-12-17_15h45.30.433,2025C_exp1_detect,2022.2.4,59.97382742184192,
15.7,315,1,1,-1,0,0,58,58,64,122.5027859999991,122.5027859999991,123.00348189999931,123.0701797999991,123.1203931,123.1203931,123.1203931,123.1203931,123.17036259999986,123.17036259999986,123.17036259999986,123.17036259999986,num_1,0.5950680000005377,123.78739019999921,123.78739019999921,None,123.17036259999986,123.17036259999986,123.17036259999986,123.17036259999986,123.17036259999986,123.17036259999986,,7,001,2025-12-17_15h45.30.433,2025C_exp1_detect,2022.2.4,59.97382742184192,
35.3,315,1,0,-1,1,0,59,59,321,123.78739019999921,123.78739019999921,124.2881010000001,124.35484370000086,124.40488120000009,124.40488120000009,124.40488120000009,124.40488120000009,124.45501560000048,124.45501560000048,124.45501560000048,124.45501560000048,num_1,0.550822799999878,125.0219419999994,125.0219419999994,None,124.45501560000048,124.45501560000048,124.45501560000048,124.45501560000048,124.45501560000048,124.45501560000048,,7,001,2025-12-17_15h45.30.433,2025C_exp1_detect,2022.2.4,59.97382742184192,
42.7,45,0,1,1,0,0,60,60,116,125.0219419999994,125.0219419999994,125.52283800000077,125.58911540000008,125.63967539999976,125.63967539999976,125.63967539999976,125.63967539999976,125.6895741999997,125.6895741999997,125.6895741999997,125.6895741999997,num_1,0.492013399998541,126.20639080000001,126.20639080000001,None,125.6895741999997,125.6895741999997,125.6895741999997,125.6895741999997,125.6895741999997,125.6895741999997,,7,001,2025-12-17_15h45.30.433,2025C_exp1_detect,2022.2.4,59.97382742184192,
25.5,315,0,0,-1,1,0,61,61,301,126.20639080000001,126.20639080000001,126.70687170000019,126.77358900000036,126.82395250000081,126.82395250000081,126.82395250000081,126.82395250000081,126.87374669999917,126.87374669999917,126.87374669999917,126.87374669999917,num_3,0.49962569999843254,127.39087160000054,127.39087160000054,None,126.87374669999917,126.87374669999917,126.87374669999917,126.87374669999917,126.87374669999917,126.87374669999917,,7,001,2025-12-17_15h45.30.433,2025C_exp1_detect,2022.2.4,59.97382742184192,
15.7,315,0,1,1,1,0,62,62,406,127.39087160000054,127.39087160000054,127.89151800000036,127.95811440000034,128.00841039999978,128.00841039999978,128.00841039999978,128.00841039999978,128.05864119999933,128.05864119999933,128.05864119999933,128.05864119999933,num_1,0.4991642999993928,128.5755649999992,128.5755649999992,None,128.05864119999933,128.05864119999933,128.05864119999933,128.05864119999933,128.05864119999933,128.05864119999933,,7,001,2025-12-17_15h45.30.433,2025C_exp1_detect,2022.2.4,59.97382742184192,
12.1,315,1,0,-1,1,0,63,63,315,128.5755649999992,128.5755649999992,129.07640619999984,129.14326729999993,129.1935056000002,129.1935056000002,129.1935056000002,129.1935056000002,129.24290499999915,129.24290499999915,129.24290499999915,129.24290499999915,num_1,0.5146685999989131,129.77664689999983,129.77664689999983,None,129.24290499999915,129.24290499999915,129.24290499999915,129.24290499999915,129.24290499999915,129.24290499999915,,7,001,2025-12-17_15h45.30.433,2025C_exp1_detect,2022.2.4,59.97382742184192,
22.7,45,1,1,-1,1,0,64,64,345,129.77664689999983,129.77664689999983,130.27741720000085,130.34411519999958,130.39434149999943,130.39434149999943,130.39434149999943,130.39434149999943,130.44431310000073,130.44431310000073,130.44431310000073,130.44431310000073,num_1,0.5613270999983797,131.02794709999944,131.02794709999944,None,130.44431310000073,130.44431310000073,130.44431310000073,130.44431310000073,130.44431310000073,130.44431310000073,,7,001,2025-12-17_15h45.30.433,2025C_exp1_detect,2022.2.4,59.97382742184192,
39.2,45,0,1,-1,-1,0,65,65,187,131.02794709999944,131.02794709999944,131.5285074000003,131.59510620000037,131.6457293000003,131.6457293000003,131.6457293000003,131.6457293000003,131.69528639999953,131.69528639999953,131.69528639999953,131.69528639999953,num_3,0.5265909999998257,132.2457544000008,132.2457544000008,None,131.69528639999953,131.69528639999953,131.69528639999953,131.69528639999953,131.69528639999953,131.69528639999953,,7,001,2025-12-17_15h45.30.433,2025C_exp1_detect,2022.2.4,59.97382742184192,
19.6,45,1,0,-1,0,0,66,66,20,132.2457544000008,132.2457544000008,132.7463456000005,132.8130311999994,132.86344250000002,132.86344250000002,132.86344250000002,132.86344250000002,132.91324580000037,132.91324580000037,132.91324580000037,132.91324580000037,num_1,0.6207247999991523,133.56382499999927,133.56382499999927,None,132.91324580000037,132.91324580000037,132.91324580000037,132.91324580000037,132.91324580000037,132.91324580000037,,7,001,2025-12-17_15h45.30.433,2025C_exp1_detect,2022.2.4,59.97382742184192,
12.1,45,0,0,-1,-1,0,67,67,144,133.56382499999927,133.56382499999927,134.0647374,134.13136569999915,134.18152010000085,134.18152010000085,134.18152010000085,134.18152010000085,134.23127709999972,134.23127709999972,134.23127709999972,134.23127709999972,num_1,0.5101269999995566,134.7652147000008,134.7652147000008,None,134.23127709999972,134.23127709999972,134.23127709999972,134.23127709999972,134.23127709999972,134.23127709999972,,7,001,2025-12-17_15h45.30.433,2025C_exp1_detect,2022.2.4,59.97382742184192,
42.7,45,0,0,-1,-1,0,68,68,152,134.7652147000008,134.7652147000008,135.26570829999946,135.3324960000009,135.3826637000002,135.3826637000002,135.3826637000002,135.3826637000002,135.43273240000053,135.43273240000053,135.43273240000053,135.43273240000053,num_1,0.8691638000000239,136.3331875999993,136.3331875999993,None,135.43273240000053,135.43273240000053,135.43273240000053,135.43273240000053,135.43273240000053,135.43273240000053,,7,001,2025-12-17_15h45.30.433,2025C_exp1_detect,2022.2.4,59.97382742184192,
15.7,45,1,1,-1,1,0,69,69,343,136.3331875999993,136.3331875999993,136.8341990000008,136.9009234999994,136.95126589999927,136.95126589999927,136.95126589999927,136.95126589999927,137.00100489999932,137.00100489999932,137.00100489999932,137.00100489999932,num_3,0.6285069999994448,137.65126509999936,137.65126509999936,None,137.00100489999932,137.00100489999932,137.00100489999932,137.00100489999932,137.00100489999932,137.00100489999932,,7,001,2025-12-17_15h45.30.433,2025C_exp1_detect,2022.2.4,59.97382742184192,
29.4,45,1,0,-1,0,0,70,70,23,137.65126509999936,137.65126509999936,138.15209119999963,138.2186359999996,138.26894879999963,138.26894879999963,138.26894879999963,138.26894879999963,138.31876580000062,138.31876580000062,138.31876580000062,138.31876580000062,num_1,0.4473244999990129,138.78582599999936,138.78582599999936,None,138.31876580000062,138.31876580000062,138.31876580000062,138.31876580000062,138.31876580000062,138.31876580000062,,7,001,2025-12-17_15h45.30.433,2025C_exp1_detect,2022.2.4,59.97382742184192,
29.4,315,1,0,-1,-1,0,71,71,176,138.78582599999936,138.78582599999936,139.2863966999994,139.35286649999944,139.40326490000007,139.40326490000007,139.40326490000007,139.40326490000007,139.45327680000082,139.45327680000082,139.45327680000082,139.45327680000082,num_1,0.4642039999998815,139.93682090000038,139.93682090000038,None,139.45327680000082,139.45327680000082,139.45327680000082,139.45327680000082,139.45327680000082,139.45327680000082,,7,001,2025-12-17_15h45.30.433,2025C_exp1_detect,2022.2.4,59.97382742184192,
25.5,45,0,0,-1,-1,0,72,72,148,139.93682090000038,139.93682090000038,140.43776649999927,140.50447739999981,140.55473239999992,140.55473239999992,140.55473239999992,140.55473239999992,140.60445919999984,140.60445919999984,140.60445919999984,140.60445919999984,num_3,0.6019259999993665,141.23837090000052,141.23837090000052,None,140.60445919999984,140.60445919999984,140.60445919999984,140.60445919999984,140.60445919999984,140.60445919999984,,7,001,2025-12-17_15h45.30.433,2025C_exp1_detect,2022.2.4,59.97382742184192,
35.3,315,1,0,1,1,0,73,73,393,141.23837090000052,141.23837090000052,141.7390716000009,141.80573080000067,141.85576389999915,141.85576389999915,141.85576389999915,141.85576389999915,141.90558950000013,141.90558950000013,141.90558950000013,141.90558950000013,num_3,0.6448677999997017,142.5727396000002,142.5727396000002,None,141.90558950000013,141.90558950000013,141.90558950000013,141.90558950000013,141.90558950000013,141.90558950000013,,7,001,2025-12-17_15h45.30.433,2025C_exp1_detect,2022.2.4,59.97382742184192,
12.1,45,1,1,1,0,0,74,74,126,142.5727396000002,142.5727396000002,143.0733956999993,143.1402567999994,143.1905124999994,143.1905124999994,143.1905124999994,143.1905124999994,143.240452,143.240452,143.240452,143.240452,num_1,0.6456932000000961,143.90749209999922,143.90749209999922,None,143.240452,143.240452,143.240452,143.240452,143.240452,143.240452,,7,001,2025-12-17_15h45.30.433,2025C_exp1_detect,2022.2.4,59.97382742184192,
22.7,45,0,0,-1,0,0,75,75,3,143.90749209999922,143.90749209999922,144.40826449999986,144.47468160000062,144.52522259999932,144.52522259999932,144.52522259999932,144.52522259999932,144.5750079999998,144.5750079999998,144.5750079999998,144.5750079999998,num_1,0.5264793999995163,145.12548550000065,145.12548550000065,None,144.5750079999998,144.5750079999998,144.5750079999998,144.5750079999998,144.5750079999998,144.5750079999998,,7,001,2025-12-17_15h45.30.433,2025C_exp1_detect,2022.2.4,59.97382742184192,
29.4,315,0,0,-1,1,0,76,76,302,145.12548550000065,145.12548550000065,145.62606269999924,145.69280040000012,145.7431046999991,145.7431046999991,145.7431046999991,145.7431046999991,145.79292499999974,145.79292499999974,145.79292499999974,145.79292499999974,num_3,0.6773931000006996,146.49351510000088,146.49351510000088,None,145.79292499999974,145.79292499999974,145.79292499999974,145.79292499999974,145.79292499999974,145.79292499999974,,7,001,2025-12-17_15h45.30.433,2025C_exp1_detect,2022.2.4,59.97382742184192,
22.7,45,0,0,-1,-1,0,77,77,147,146.49351510000088,146.49351510000088,146.99410630000057,147.06089900000006,147.11118800000077,147.11118800000077,147.11118800000077,147.11118800000077,147.16073479999977,147.16073479999977,147.16073479999977,147.16073479999977,num_3,0.46084479999990435,147.64476090000062,147.64476090000062,None,147.16073479999977,147.16073479999977,147.16073479999977,147.16073479999977,147.16073479999977,147.16073479999977,,7,001,2025-12-17_15h45.30.433,2025C_exp1_detect,2022.2.4,59.97382742184192,
19.6,45,0,0,-1,1,0,78,78,290,147.64476090000062,147.64476090000062,148.14515270000084,148.2121107999992,148.26247049999984,148.26247049999984,148.26247049999984,148.26247049999984,148.3121486,148.3121486,148.3121486,148.3121486,num_3,0.5652566999997362,148.89574410000023,148.89574410000023,None,148.3121486,148.3121486,148.3121486,148.3121486,148.3121486,148.3121486,,7,001,2025-12-17_15h45.30.433,2025C_exp1_detect,2022.2.4,59.97382742184192,
29.4,45,1,1,1,-1,0,79,79,275,148.89574410000023,148.89574410000023,149.3965129999997,149.46310579999954,149.51323899999988,149.51323899999988,149.51323899999988,149.51323899999988,149.5632227999995,149.5632227999995,149.5632227999995,149.5632227999995,num_1,0.5870718000005581,150.1804155000009,150.1804155000009,None,149.5632227999995,149.5632227999995,149.5632227999995,149.5632227999995,149.5632227999995,149.5632227999995,,7,001,2025-12-17_15h45.30.433,2025C_exp1_detect,2022.2.4,59.97382742184192,
15.7,45,0,1,1,1,0,80,80,397,150.1804155000009,150.1804155000009,150.68100799999957,150.74785019999945,150.79832910000005,150.79832910000005,150.79832910000005,150.79832910000005,150.84790539999995,150.84790539999995,150.84790539999995,150.84790539999995,num_1,0.48596270000052755,151.3651222999997,151.3651222999997,None,150.84790539999995,150.84790539999995,150.84790539999995,150.84790539999995,150.84790539999995,150.84790539999995,,7,001,2025-12-17_15h45.30.433,2025C_exp1_detect,2022.2.4,59.97382742184192,
42.7,45,1,0,1,1,0,81,81,386,151.3651222999997,151.3651222999997,151.86563949999982,151.93208980000054,151.98249829999986,151.98249829999986,151.98249829999986,151.98249829999986,152.03256780000083,152.03256780000083,152.03256780000083,152.03256780000083,num_3,0.7012023999996018,152.76654419999977,152.76654419999977,None,152.03256780000083,152.03256780000083,152.03256780000083,152.03256780000083,152.03256780000083,152.03256780000083,,7,001,2025-12-17_15h45.30.433,2025C_exp1_detect,2022.2.4,59.97382742184192,
35.3,315,0,0,-1,0,0,82,82,15,152.76654419999977,152.76654419999977,153.26716950000082,153.33389200000056,153.3839012999997,153.3839012999997,153.3839012999997,153.3839012999997,153.4336263999994,153.4336263999994,153.4336263999994,153.4336263999994,num_3,0.5887898999990284,154.05099139999948,154.05099139999948,None,153.4336263999994,153.4336263999994,153.4336263999994,153.4336263999994,153.4336263999994,153.4336263999994,,7,001,2025-12-17_15h45.30.433,2025C_exp1_detect,2022.2.4,59.97382742184192,
29.4,315,0,1,1,-1,0,83,83,266,154.05099139999948,154.05099139999948,154.5517146000002,154.61852820000058,154.66869849999966,154.66869849999966,154.66869849999966,154.66869849999966,154.71858099999918,154.71858099999918,154.71858099999918,154.71858099999918,num_1,0.4791044999983569,155.21873159999996,155.21873159999996,None,154.71858099999918,154.71858099999918,154.71858099999918,154.71858099999918,154.71858099999918,154.71858099999918,,7,001,2025-12-17_15h45.30.433,2025C_exp1_detect,2022.2.4,59.97382742184192,
22.7,315,1,0,1,1,0,84,84,390,155.21873159999996,155.21873159999996,155.7195910999999,155.78616259999944,155.83650300000045,155.83650300000045,155.83650300000045,155.83650300000045,155.88642690000052,155.88642690000052,155.88642690000052,155.88642690000052,num_3,0.46379350000097475,156.36988689999998,156.36988689999998,None,155.88642690000052,155.88642690000052,155.88642690000052,155.88642690000052,155.88642690000052,155.88642690000052,,7,001,2025-12-17_15h45.30.433,2025C_exp1_detect,2022.2.4,59.97382742184192,
22.7,45,1,0,-1,1,0,85,85,309,156.36988689999998,156.36988689999998,156.8703972000003,156.93709390000004,156.9873647000004,156.9873647000004,156.9873647000004,156.9873647000004,157.03766670000005,157.03766670000005,157.03766670000005,157.03766670000005,num_1,0.6879220999999234,157.75454610000088,157.75454610000088,None,157.03766670000005,157.03766670000005,157.03766670000005,157.03766670000005,157.03766670000005,157.03766670000005,,7,001,2025-12-17_15h45.30.433,2025C_exp1_detect,2022.2.4,59.97382742184192,
29.4,315,0,0,1,1,0,86,86,374,157.75454610000088,157.75454610000088,158.2550542000008,158.32179670000005,158.37206340000012,158.37206340000012,158.37206340000012,158.37206340000012,158.42197660000056,158.42197660000056,158.42197660000056,158.42197660000056,num_3,0.5118345999981102,158.95605269999942,158.95605269999942,None,158.42197660000056,158.42197660000056,158.42197660000056,158.42197660000056,158.42197660000056,158.42197660000056,,7,001,2025-12-17_15h45.30.433,2025C_exp1_detect,2022.2.4,59.97382742184192,
15.7,315,1,0,-1,1,0,87,87,316,158.95605269999942,158.95605269999942,159.45662970000012,159.5229801000005,159.5732981000001,159.5732981000001,159.5732981000001,159.5732981000001,159.62317649999932,159.62317649999932,159.62317649999932,159.62317649999932,num_1,0.4944999999988795,160.14037160000044,160.14037160000044,None,159.62317649999932,159.62317649999932,159.62317649999932,159.62317649999932,159.62317649999932,159.62317649999932,,7,001,2025-12-17_15h45.30.433,2025C_exp1_detect,2022.2.4,59.97382742184192,
19.6,315,1,1,-1,0,0,88,88,65,160.14037160000044,160.14037160000044,160.64097910000055,160.70780559999912,160.75813919999928,160.75813919999928,160.75813919999928,160.75813919999928,160.80791669999962,160.80791669999962,160.80791669999962,160.80791669999962,num_1,0.48574619999999413,161.32501670000056,161.32501670000056,None,160.80791669999962,160.80791669999962,160.80791669999962,160.80791669999962,160.80791669999962,160.80791669999962,,7,001,2025-12-17_15h45.30.433,2025C_exp1_detect,2022.2.4,59.97382742184192,
39.2,45,1,0,1,1,0,89,89,385,161.32501670000056,161.32501670000056,161.82550380000066,161.89237590000084,161.9426870999996,161.9426870999996,161.9426870999996,161.9426870999996,161.9921703,161.9921703,161.9921703,161.9921703,num_3,0.47858780000024126,162.49271009999939,162.49271009999939,None,161.9921703,161.9921703,161.9921703,161.9921703,161.9921703,161.9921703,,7,001,2025-12-17_15h45.30.433,2025C_exp1_detect,2022.2.4,59.97382742184192,
42.7,45,1,0,-1,-1,0,90,90,170,162.49271009999939,162.49271009999939,162.99344940000083,163.06029780000063,163.11044439999932,163.11044439999932,163.11044439999932,163.11044439999932,163.1603856999991,163.1603856999991,163.1603856999991,163.1603856999991,num_1,0.5170071999982611,163.69386440000017,163.69386440000017,None,163.1603856999991,163.1603856999991,163.1603856999991,163.1603856999991,163.1603856999991,163.1603856999991,,7,001,2025-12-17_15h45.30.433,2025C_exp1_detect,2022.2.4,59.97382742184192,
39.2,315,1,0,-1,1,0,91,91,322,163.69386440000017,163.69386440000017,164.19467140000052,164.26127570000062,164.31141279999974,164.31141279999974,164.31141279999974,164.31141279999974,164.36144029999923,164.36144029999923,164.36144029999923,164.36144029999923,num_1,0.5323977999996714,164.91170590000002,164.91170590000002,None,164.36144029999923,164.36144029999923,164.36144029999923,164.36144029999923,164.36144029999923,164.36144029999923,,7,001,2025-12-17_15h45.30.433,2025C_exp1_detect,2022.2.4,59.97382742184192,
42.7,315,0,0,1,-1,0,92,92,233,164.91170590000002,164.91170590000002,165.41262330000063,165.47928460000003,165.52964470000006,165.52964470000006,165.52964470000006,165.52964470000006,165.57952320000004,165.57952320000004,165.57952320000004,165.57952320000004,num_3,0.578472099999999,166.1796955000009,166.1796955000009,None,165.57952320000004,165.57952320000004,165.57952320000004,165.57952320000004,165.57952320000004,165.57952320000004,,7,001,2025-12-17_15h45.30.433,2025C_exp1_detect,2022.2.4,59.97382742184192,
12.1,315,0,1,1,1,0,93,93,405,166.1796955000009,166.1796955000009,166.68029360000037,166.7471760999997,166.79746329999944,166.79746329999944,166.79746329999944,166.79746329999944,166.84719720000066,166.84719720000066,166.84719720000066,166.84719720000066,num_3,0.4311278000004677,167.2974864000007,167.2974864000007,None,166.84719720000066,166.84719720000066,166.84719720000066,166.84719720000066,166.84719720000066,166.84719720000066,,7,001,2025-12-17_15h45.30.433,2025C_exp1_detect,2022.2.4,59.97382742184192,
39.2,315,1,0,1,1,0,94,94,394,167.2974864000007,167.2974864000007,167.7984188999999,167.86509289999958,167.91526279999925,167.91526279999925,167.91526279999925,167.91526279999925,167.9648056999995,167.9648056999995,167.9648056999995,167.9648056999995,num_3,0.48155469999983325,168.4652800999993,168.4652800999993,None,167.9648056999995,167.9648056999995,167.9648056999995,167.9648056999995,167.9648056999995,167.9648056999995,,7,001,2025-12-17_15h45.30.433,2025C_exp1_detect,2022.2.4,59.97382742184192,
25.5,315,1,1,-1,0,0,95,95,67,168.4652800999993,168.4652800999993,168.96602659999917,169.0327099999995,169.08304490000046,169.08304490000046,169.08304490000046,169.08304490000046,169.13295060000019,169.13295060000019,169.13295060000019,169.13295060000019,num_1,0.5616680000002816,169.71662649999962,169.71662649999962,None,169.13295060000019,169.13295060000019,169.13295060000019,169.13295060000019,169.13295060000019,169.13295060000019,,7,001,2025-12-17_15h45.30.433,2025C_exp1_detect,2022.2.4,59.97382742184192,
35.3,315,0,0,-1,1,0,96,96,303,169.71662649999962,169.71662649999962,170.2175998999992,170.28420349999942,170.33450099999936,170.33450099999936,170.33450099999936,170.33450099999936,170.3843598000003,170.3843598000003,170.3843598000003,170.3843598000003,num_1,0.5498697000002721,170.95151160000023,170.95151160000023,None,170.3843598000003,170.3843598000003,170.3843598000003,170.3843598000003,170.3843598000003,170.3843598000003,,7,001,2025-12-17_15h45.30.433,2025C_exp1_detect,2022.2.4,59.97382742184192,
35.3,315,1,1,-1,0,0,97,97,69,170.95151160000023,170.95151160000023,171.4520403000006,171.51872379999986,171.56894339999963,171.56894339999963,171.56894339999963,171.56894339999963,171.61889709999923,171.61889709999923,171.61889709999923,171.61889709999923,num_1,0.546833799999149,172.18568349999987,172.18568349999987,None,171.61889709999923,171.61889709999923,171.61889709999923,171.61889709999923,171.61889709999923,171.61889709999923,,7,001,2025-12-17_15h45.30.433,2025C_exp1_detect,2022.2.4,59.97382742184192,
19.6,45,1,1,1,0,0,98,98,128,172.18568349999987,172.18568349999987,172.68631119999918,172.7531469000005,172.8034735000001,172.8034735000001,172.8034735000001,172.8034735000001,172.85333580000042,172.85333580000042,172.85333580000042,172.85333580000042,num_1,0.5370869999987917,173.42036430000007,173.42036430000007,None,172.85333580000042,172.85333580000042,172.85333580000042,172.85333580000042,172.85333580000042,172.85333580000042,,7,001,2025-12-17_15h45.30.433,2025C_exp1_detect,2022.2.4,59.97382742184192,
15.7,315,1,0,1,1,0,99,99,388,173.42036430000007,173.42036430000007,173.92099790000066,173.98775639999985,174.0381636000002,174.0381636000002,174.0381636000002,174.0381636000002,174.08804749999945,174.08804749999945,174.08804749999945,174.08804749999945,num_3,0.7653563000003487,174.8719459999993,174.8719459999993,None,174.08804749999945,174.08804749999945,174.08804749999945,174.08804749999945,174.08804749999945,174.08804749999945,,7,001,2025-12-17_15h45.30.433,2025C_exp1_detect,2022.2.4,59.97382742184192,
42.7,315,1,0,-1,1,0,100,100,323,174.8719459999993,174.8719459999993,175.37246369999957,175.43919260000075,175.4894609999992,175.4894609999992,175.4894609999992,175.4894609999992,175.53932890000033,175.53932890000033,175.53932890000033,175.53932890000033,num_1,0.5073355000004085,176.07313480000084,176.07313480000084,None,175.53932890000033,175.53932890000033,175.53932890000033,175.53932890000033,175.53932890000033,175.53932890000033,,7,001,2025-12-17_15h45.30.433,2025C_exp1_detect,2022.2.4,59.97382742184192,
12.1,45,1,0,1,1,0,101,101,378,176.07313480000084,176.07313480000084,176.57354230000055,176.64035680000052,176.69067560000076,176.69067560000076,176.69067560000076,176.69067560000076,176.74055129999942,176.74055129999942,176.74055129999942,176.74055129999942,num_3,0.712897499999599,177.47457659999964,177.47457659999964,None,176.74055129999942,176.74055129999942,176.74055129999942,176.74055129999942,176.74055129999942,176.74055129999942,,7,001,2025-12-17_15h45.30.433,2025C_exp1_detect,2022.2.4,59.97382742184192,
12.1,315,1,1,-1,-1,0,102,102,207,177.47457659999964,177.47457659999964,177.97488870000052,178.04160500000035,178.09206500000073,178.09206500000073,178.09206500000073,178.09206500000073,178.14195619999919,178.14195619999919,178.14195619999919,178.14195619999919,num_1,0.4961950999986584,178.6589399000004,178.6589399000004,None,178.14195619999919,178.14195619999919,178.14195619999919,178.14195619999919,178.14195619999919,178.14195619999919,,7,001,2025-12-17_15h45.30.433,2025C_exp1_detect,2022.2.4,59.97382742184192,
19.6,315,1,1,1,1,0,103,103,425,178.6589399000004,178.6589399000004,179.15963639999973,179.22625320000043,179.27667210000072,179.27667210000072,179.27667210000072,179.27667210000072,179.32634030000008,179.32634030000008,179.32634030000008,179.32634030000008,num_1,0.5268994999987626,179.8767480000006,179.8767480000006,None,179.32634030000008,179.32634030000008,179.32634030000008,179.32634030000008,179.32634030000008,179.32634030000008,,7,001,2025-12-17_15h45.30.433,2025C_exp1_detect,2022.2.4,59.97382742184192,
19.6,315,0,0,1,-1,0,104,104,227,179.8767480000006,179.8767480000006,180.37761370000044,180.44399150000027,180.4945575999991,180.4945575999991,180.4945575999991,180.4945575999991,180.5443651000005,180.5443651000005,180.5443651000005,180.5443651000005,num_3,0.6301251000004413,181.19493449999936,181.19493449999936,None,180.5443651000005,180.5443651000005,180.5443651000005,180.5443651000005,180.5443651000005,180.5443651000005,,7,001,2025-12-17_15h45.30.433,2025C_exp1_detect,2022.2.4,59.97382742184192,
15.7,45,1,1,-1,0,0,105,105,55,181.19493449999936,181.19493449999936,181.69534080000085,181.76215149999916,181.81245429999944,181.81245429999944,181.81245429999944,181.81245429999944,181.86236629999985,181.86236629999985,181.86236629999985,181.86236629999985,num_1,0.5837505999988934,182.46279809999942,182.46279809999942,None,181.86236629999985,181.86236629999985,181.86236629999985,181.86236629999985,181.86236629999985,181.86236629999985,,7,001,2025-12-17_15h45.30.433,2025C_exp1_detect,2022.2.4,59.97382742184192,
19.6,45,0,1,1,0,0,106,106,110,182.46279809999942,182.46279809999942,182.96368000000075,183.03038750000087,183.08042770000066,183.08042770000066,183.08042770000066,183.08042770000066,183.13037059999988,183.13037059999988,183.13037059999988,183.13037059999988,num_1,0.46782840000014403,183.63068799999928,183.63068799999928,None,183.13037059999988,183.13037059999988,183.13037059999988,183.13037059999988,183.13037059999988,183.13037059999988,,7,001,2025-12-17_15h45.30.433,2025C_exp1_detect,2022.2.4,59.97382742184192,
35.3,45,1,1,-1,-1,0,107,107,204,183.63068799999928,183.63068799999928,184.13120030000027,184.19794379999985,184.2482473,184.2482473,184.2482473,184.2482473,184.29809410000053,184.29809410000053,184.29809410000053,184.29809410000053,num_1,0.508631400000013,184.83193290000054,184.83193290000054,space,184.29809410000053,184.29809410000053,184.29809410000053,184.29809410000053,184.29809410000053,184.29809410000053,36.670024599998214,7,001,2025-12-17_15h45.30.433,2025C_exp1_detect,2022.2.4,59.97382742184192,
35.3,45,0,1,-1,-1,0,108,108,186,221.51858729999913,221.51858729999913,222.01892699999917,222.08576299999913,222.1360796000008,222.1360796000008,222.1360796000008,222.1360796000008,222.18593390000024,222.18593390000024,222.18593390000024,222.18593390000024,num_3,0.8356195999986085,223.05344569999943,223.05344569999943,None,222.18593390000024,222.18593390000024,222.18593390000024,222.18593390000024,222.18593390000024,222.18593390000024,,7,001,2025-12-17_15h45.30.433,2025C_exp1_detect,2022.2.4,59.97382742184192,
22.7,45,1,1,1,1,0,109,109,417,223.05344569999943,223.05344569999943,223.55378609999934,223.6207233999994,223.6710980000007,223.6710980000007,223.6710980000007,223.6710980000007,223.72082299999965,223.72082299999965,223.72082299999965,223.72082299999965,num_1,0.6213162999993074,224.37130869999964,224.37130869999964,None,223.72082299999965,223.72082299999965,223.72082299999965,223.72082299999965,223.72082299999965,223.72082299999965,,7,001,2025-12-17_15h45.30.433,2025C_exp1_detect,2022.2.4,59.97382742184192,
12.1,315,0,1,-1,1,0,110,110,333,224.37130869999964,224.37130869999964,224.87199209999926,224.9386924999999,224.98892779999915,224.98892779999915,224.98892779999915,224.98892779999915,225.03886570000031,225.03886570000031,225.03886570000031,225.03886570000031,num_3,0.7435447999996541,225.8061629999993,225.8061629999993,None,225.03886570000031,225.03886570000031,225.03886570000031,225.03886570000031,225.03886570000031,225.03886570000031,,7,001,2025-12-17_15h45.30.433,2025C_exp1_detect,2022.2.4,59.97382742184192,
25.5,45,1,0,-1,0,0,111,111,22,225.8061629999993,225.8061629999993,226.30678289999923,226.37352409999949,226.4239536999994,226.4239536999994,226.4239536999994,226.4239536999994,226.47371009999915,226.47371009999915,226.47371009999915,226.47371009999915,num_1,0.5802435000005062,227.0741913999991,227.0741913999991,None,226.47371009999915,226.47371009999915,226.47371009999915,226.47371009999915,226.47371009999915,226.47371009999915,,7,001,2025-12-17_15h45.30.433,2025C_exp1_detect,2022.2.4,59.97382742184192,
22.7,45,0,0,-1,1,0,112,112,291,227.0741913999991,227.0741913999991,227.57463199999984,227.6413518999998,227.69149040000048,227.69149040000048,227.69149040000048,227.69149040000048,227.74151549999988,227.74151549999988,227.74151549999988,227.74151549999988,num_3,5.44005130000005,233.21343680000064,233.21343680000064,None,227.74151549999988,227.74151549999988,227.74151549999988,227.74151549999988,227.74151549999988,227.74151549999988,,7,001,2025-12-17_15h45.30.433,2025C_exp1_detect,2022.2.4,59.97382742184192,
19.6,315,0,1,1,1,0,113,113,407,233.21343680000064,233.21343680000064,233.71406039999965,233.7807709000008,233.83109839999997,233.83109839999997,233.83109839999997,233.83109839999997,233.88095670000075,233.88095670000075,233.88095670000075,233.88095670000075,num_1,0.5495149999987916,234.44810440000037,234.44810440000037,None,233.88095670000075,233.88095670000075,233.88095670000075,233.88095670000075,233.88095670000075,233.88095670000075,,7,001,2025-12-17_15h45.30.433,2025C_exp1_detect,2022.2.4,59.97382742184192,
39.2,315,0,1,-1,0,0,114,114,52,234.44810440000037,234.44810440000037,234.94875879999927,235.0154951000004,235.06583490000048,235.06583490000048,235.06583490000048,235.06583490000048,235.11547240000073,235.11547240000073,235.11547240000073,235.11547240000073,num_3,0.5631985999989411,235.69938469999943,235.69938469999943,None,235.11547240000073,235.11547240000073,235.11547240000073,235.11547240000073,235.11547240000073,235.11547240000073,,7,001,2025-12-17_15h45.30.433,2025C_exp1_detect,2022.2.4,59.97382742184192,
19.6,315,0,0,-1,-1,0,115,115,155,235.69938469999943,235.69938469999943,236.19992079999975,236.26651950000087,236.31692079999993,236.31692079999993,236.31692079999993,236.31692079999993,236.36680519999936,236.36680519999936,236.36680519999936,236.36680519999936,num_3,0.48024830000031216,236.86744929999986,236.86744929999986,None,236.36680519999936,236.36680519999936,236.36680519999936,236.36680519999936,236.36680519999936,236.36680519999936,,7,001,2025-12-17_15h45.30.433,2025C_exp1_detect,2022.2.4,59.97382742184192,
19.6,315,1,1,-1,-1,0,116,116,209,236.86744929999986,236.86744929999986,237.36788270000034,237.43459699999948,237.48502310000003,237.48502310000003,237.48502310000003,237.48502310000003,237.5348329999997,237.5348329999997,237.5348329999997,237.5348329999997,num_1,0.598809799999799,238.15182749999985,238.15182749999985,None,237.5348329999997,237.5348329999997,237.5348329999997,237.5348329999997,237.5348329999997,237.5348329999997,,7,001,2025-12-17_15h45.30.433,2025C_exp1_detect,2022.2.4,59.97382742184192,
19.6,315,1,0,-1,1,0,117,117,317,238.15182749999985,238.15182749999985,238.65283049999925,238.71912449999945,238.76929550000023,238.76929550000023,238.76929550000023,238.76929550000023,238.81929169999967,238.81929169999967,238.81929169999967,238.81929169999967,num_1,0.5624564999998256,239.40318789999947,239.40318789999947,None,238.81929169999967,238.81929169999967,238.81929169999967,238.81929169999967,238.81929169999967,238.81929169999967,,7,001,2025-12-17_15h45.30.433,2025C_exp1_detect,2022.2.4,59.97382742184192,
22.7,45,0,0,1,-1,0,118,118,219,239.40318789999947,239.40318789999947,239.90360340000007,239.97030339999947,240.02066689999992,240.02066689999992,240.02066689999992,240.02066689999992,240.07048960000066,240.07048960000066,240.07048960000066,240.07048960000066,num_3,0.7826889999996638,240.8710654000006,240.8710654000006,None,240.07048960000066,240.07048960000066,240.07048960000066,240.07048960000066,240.07048960000066,240.07048960000066,,7,001,2025-12-17_15h45.30.433,2025C_exp1_detect,2022.2.4,59.97382742184192,
15.7,45,0,0,1,-1,0,119,119,217,240.8710654000006,240.8710654000006,241.37174939999932,241.43830060000073,241.4887130999996,241.4887130999996,241.4887130999996,241.4887130999996,241.53862029999982,241.53862029999982,241.53862029999982,241.53862029999982,num_3,0.5478075999999419,242.10564130000057,242.10564130000057,None,241.53862029999982,241.53862029999982,241.53862029999982,241.53862029999982,241.53862029999982,241.53862029999982,,7,001,2025-12-17_15h45.30.433,2025C_exp1_detect,2022.2.4,59.97382742184192,
42.7,315,1,0,1,0,0,120,120,107,242.10564130000057,242.10564130000057,242.60626720000073,242.67303940000056,242.7230565000009,242.7230565000009,242.7230565000009,242.7230565000009,242.77313119999963,242.77313119999963,242.77313119999963,242.77313119999963,num_3,0.5132751000001008,243.3069933000006,243.3069933000006,None,242.77313119999963,242.77313119999963,242.77313119999963,242.77313119999963,242.77313119999963,242.77313119999963,,7,001,2025-12-17_15h45.30.433,2025C_exp1_detect,2022.2.4,59.97382742184192,
19.6,45,0,0,1,0,0,121,121,74,243.3069933000006,243.3069933000006,243.8071820999994,243.87435299999925,243.92464440000003,243.92464440000003,243.92464440000003,243.92464440000003,243.9745708999999,243.9745708999999,243.9745708999999,243.9745708999999,num_3,0.5673924000002444,244.5582460000005,244.5582460000005,None,243.9745708999999,243.9745708999999,243.9745708999999,243.9745708999999,243.9745708999999,243.9745708999999,,7,001,2025-12-17_15h45.30.433,2025C_exp1_detect,2022.2.4,59.97382742184192,
35.3,45,0,1,-1,0,0,122,122,42,244.5582460000005,244.5582460000005,245.05876770000032,245.1253787000005,245.1757689999995,245.1757689999995,245.1757689999995,245.1757689999995,245.22565799999938,245.22565799999938,245.22565799999938,245.22565799999938,num_1,0.5724849999987782,245.82592470000054,245.82592470000054,None,245.22565799999938,245.22565799999938,245.22565799999938,245.22565799999938,245.22565799999938,245.22565799999938,,7,001,2025-12-17_15h45.30.433,2025C_exp1_detect,2022.2.4,59.97382742184192,
25.5,45,1,1,-1,1,0,123,123,346,245.82592470000054,245.82592470000054,246.32668999999987,246.3934122999999,246.44373710000036,246.44373710000036,246.44373710000036,246.44373710000036,246.49348289999944,246.49348289999944,246.49348289999944,246.49348289999944,num_1,0.7042275000003428,247.22724310000012,247.22724310000012,None,246.49348289999944,246.49348289999944,246.49348289999944,246.49348289999944,246.49348289999944,246.49348289999944,,7,001,2025-12-17_15h45.30.433,2025C_exp1_detect,2022.2.4,59.97382742184192,
29.4,45,0,0,1,-1,0,124,124,221,247.22724310000012,247.22724310000012,247.7277596999993,247.7944676999996,247.8448057000005,247.8448057000005,247.8448057000005,247.8448057000005,247.89491119999911,247.89491119999911,247.89491119999911,247.89491119999911,num_3,0.5345424999995885,248.46190019999995,248.46190019999995,None,247.89491119999911,247.89491119999911,247.89491119999911,247.89491119999911,247.89491119999911,247.89491119999911,,7,001,2025-12-17_15h45.30.433,2025C_exp1_detect,2022.2.4,59.97382742184192,
25.5,315,1,0,-1,1,0,125,125,319,248.46190019999995,248.46190019999995,248.96233810000012,249.0295518999992,249.0796007000008,249.0796007000008,249.0796007000008,249.0796007000008,249.12955089999923,249.12955089999923,249.12955089999923,249.12955089999923,num_1,0.7321413999998185,249.8799584999997,249.8799584999997,None,249.12955089999923,249.12955089999923,249.12955089999923,249.12955089999923,249.12955089999923,249.12955089999923,,7,001,2025-12-17_15h45.30.433,2025C_exp1_detect,2022.2.4,59.97382742184192,
29.4,45,0,1,1,-1,0,126,126,257,249.8799584999997,249.8799584999997,250.38071390000005,250.44745069999954,250.4977486000007,250.4977486000007,250.4977486000007,250.4977486000007,250.54762730000039,250.54762730000039,250.54762730000039,250.54762730000039,num_1,0.42631689999871014,250.99773190000087,250.99773190000087,None,250.54762730000039,250.54762730000039,250.54762730000039,250.54762730000039,250.54762730000039,250.54762730000039,,7,001,2025-12-17_15h45.30.433,2025C_exp1_detect,2022.2.4,59.97382742184192,
15.7,45,1,0,-1,0,0,127,127,19,250.99773190000087,250.99773190000087,251.49849659999927,251.5652571999999,251.61555109999972,251.61555109999972,251.61555109999972,251.61555109999972,251.66542630000004,251.66542630000004,251.66542630000004,251.66542630000004,num_1,0.556067699999403,252.24923350000063,252.24923350000063,None,251.66542630000004,251.66542630000004,251.66542630000004,251.66542630000004,251.66542630000004,251.66542630000004,,7,001,2025-12-17_15h45.30.433,2025C_exp1_detect,2022.2.4,59.97382742184192,
35.3,315,0,1,1,1,0,128,128,411,252.24923350000063,252.24923350000063,252.7498839,252.81662590000087,252.8668761000008,252.8668761000008,252.8668761000008,252.8668761000008,252.91665400000056,252.91665400000056,252.91665400000056,252.91665400000056,num_1,0.48882439999943017,253.43386950000058,253.43386950000058,None,252.91665400000056,252.91665400000056,252.91665400000056,252.91665400000056,252.91665400000056,252.91665400000056,,7,001,2025-12-17_15h45.30.433,2025C_exp1_detect,2022.2.4,59.97382742184192,
15.7,315,1,0,-1,-1,0,129,129,172,253.43386950000058,253.43386950000058,253.93429789999936,254.00102100000004,254.05119299999933,254.05119299999933,254.05119299999933,254.05119299999933,254.1010757999993,254.1010757999993,254.1010757999993,254.1010757999993,num_1,0.48902559999987716,254.61830510000073,254.61830510000073,None,254.1010757999993,254.1010757999993,254.1010757999993,254.1010757999993,254.1010757999993,254.1010757999993,,7,001,2025-12-17_15h45.30.433,2025C_exp1_detect,2022.2.4,59.97382742184192,
22.7,315,0,0,-1,1,0,130,130,300,254.61830510000073,254.61830510000073,255.11882809999952,255.18526740000016,255.2355850999993,255.2355850999993,255.2355850999993,255.2355850999993,255.28567909999947,255.28567909999947,255.28567909999947,255.28567909999947,num_1,0.5197026999994705,255.83601289999933,255.83601289999933,None,255.28567909999947,255.28567909999947,255.28567909999947,255.28567909999947,255.28567909999947,255.28567909999947,,7,001,2025-12-17_15h45.30.433,2025C_exp1_detect,2022.2.4,59.97382742184192,
15.7,315,0,0,-1,1,0,131,131,298,255.83601289999933,255.83601289999933,256.33657049999965,256.40342989999954,256.453673,256.453673,256.453673,256.453673,256.5035848999996,256.5035848999996,256.5035848999996,256.5035848999996,num_3,0.5750537999992957,257.1041034000009,257.1041034000009,None,256.5035848999996,256.5035848999996,256.5035848999996,256.5035848999996,256.5035848999996,256.5035848999996,,7,001,2025-12-17_15h45.30.433,2025C_exp1_detect,2022.2.4,59.97382742184192,
29.4,315,1,0,-1,0,0,132,132,32,257.1041034000009,257.1041034000009,257.60467400000016,257.6712540999997,257.72157230000084,257.72157230000084,257.72157230000084,257.72157230000084,257.7715662999999,257.7715662999999,257.7715662999999,257.7715662999999,num_1,0.5860599000006914,258.3884797999999,258.3884797999999,None,257.7715662999999,257.7715662999999,257.7715662999999,257.7715662999999,257.7715662999999,257.7715662999999,,7,001,2025-12-17_15h45.30.433,2025C_exp1_detect,2022.2.4,59.97382742184192,
39.2,45,1,1,1,1,0,133,133,421,258.3884797999999,258.3884797999999,258.88922880000064,258.9559308000007,259.00624249999964,259.00624249999964,259.00624249999964,259.00624249999964,259.0561123999996,259.0561123999996,259.0561123999996,259.0561123999996,num_1,0.5420052000008582,259.6231379000001,259.6231379000001,None,259.0561123999996,259.0561123999996,259.0561123999996,259.0561123999996,259.0561123999996,259.0561123999996,,7,001,2025-12-17_15h45.30.433,2025C_exp1_detect,2022.2.4,59.97382742184192,
35.3,315,0,0,1,1,0,134,134,375,259.6231379000001,259.6231379000001,260.12378250000074,260.19049070000074,260.2406864000004,260.2406864000004,260.2406864000004,260.2406864000004,260.29065079999964,260.29065079999964,260.29065079999964,260.29065079999964,num_3,0.6441517999992357,260.9581039000004,260.9581039000004,None,260.29065079999964,260.29065079999964,260.29065079999964,260.29065079999964,260.29065079999964,260.29065079999964,,7,001,2025-12-17_15h45.30.433,2025C_exp1_detect,2022.2.4,59.97382742184192,
15.7,315,0,0,1,0,0,135,135,82,260.9581039000004,260.9581039000004,261.4581713000007,261.52523140000085,261.57548400000087,261.57548400000087,261.57548400000087,261.57548400000087,261.62534760000017,261.62534760000017,261.62534760000017,261.62534760000017,num_3,1.4932656999990286,263.1433264999996,263.1433264999996,None,261.62534760000017,261.62534760000017,261.62534760000017,261.62534760000017,261.62534760000017,261.62534760000017,,7,001,2025-12-17_15h45.30.433,2025C_exp1_detect,2022.2.4,59.97382742184192,
15.7,45,0,0,-1,-1,0,136,136,145,263.1433264999996,263.1433264999996,263.64407989999927,263.7108017999999,263.7612355000001,263.7612355000001,263.7612355000001,263.7612355000001,263.8109702999991,263.8109702999991,263.8109702999991,263.8109702999991,num_3,0.5950537000007898,264.42836480000005,264.42836480000005,None,263.8109702999991,263.8109702999991,263.8109702999991,263.8109702999991,263.8109702999991,263.8109702999991,,7,001,2025-12-17_15h45.30.433,2025C_exp1_detect,2022.2.4,59.97382742184192,
25.5,315,1,0,-1,0,0,137,137,31,264.42836480000005,264.42836480000005,264.9285834000002,264.9953218999999,265.04560090000086,265.04560090000086,265.04560090000086,265.04560090000086,265.0955907000007,265.0955907000007,265.0955907000007,265.0955907000007,num_1,0.6549957999995968,265.7792790000003,265.7792790000003,None,265.0955907000007,265.0955907000007,265.0955907000007,265.0955907000007,265.0955907000007,265.0955907000007,,7,001,2025-12-17_15h45.30.433,2025C_exp1_detect,2022.2.4,59.97382742184192,
42.7,315,0,1,-1,0,0,138,138,53,265.7792790000003,265.7792790000003,266.27991289999954,266.3466392999999,266.39694690000033,266.39694690000033,266.39694690000033,266.39694690000033,266.4468132999991,266.4468132999991,266.4468132999991,266.4468132999991,num_3,0.9750195999986317,267.4477874000004,267.4477874000004,None,266.4468132999991,266.4468132999991,266.4468132999991,266.4468132999991,266.4468132999991,266.4468132999991,,7,001,2025-12-17_15h45.30.433,2025C_exp1_detect,2022.2.4,59.97382742184192,
35.3,315,0,1,-1,0,0,139,139,51,267.4477874000004,267.4477874000004,267.94851799999924,268.01521049999974,268.06558380000024,268.06558380000024,268.06558380000024,268.06558380000024,268.1151656999991,268.1151656999991,268.1151656999991,268.1151656999991,num_3,0.6187104000000545,268.7657359999994,268.7657359999994,None,268.1151656999991,268.1151656999991,268.1151656999991,268.1151656999991,268.1151656999991,268.1151656999991,,7,001,2025-12-17_15h45.30.433,2025C_exp1_detect,2022.2.4,59.97382742184192,
35.3,315,1,1,-1,-1,0,140,140,213,268.7657359999994,268.7657359999994,269.2662762,269.33296110000083,269.3832987000005,269.3832987000005,269.3832987000005,269.3832987000005,269.43314570000075,269.43314570000075,269.43314570000075,269.43314570000075,num_1,0.620988299999226,270.0835212999991,270.0835212999991,None,269.43314570000075,269.43314570000075,269.43314570000075,269.43314570000075,269.43314570000075,269.43314570000075,,7,001,2025-12-17_15h45.30.433,2025C_exp1_detect,2022.2.4,59.97382742184192,
35.3,45,1,0,1,1,0,141,141,384,270.0835212999991,270.0835212999991,270.5842589999993,270.6509485000006,270.7012355000006,270.7012355000006,270.7012355000006,270.7012355000006,270.7511412999993,270.7511412999993,270.7511412999993,270.7511412999993,num_3,0.5751257999982045,271.3516617999994,271.3516617999994,None,270.7511412999993,270.7511412999993,270.7511412999993,270.7511412999993,270.7511412999993,270.7511412999993,,7,001,2025-12-17_15h45.30.433,2025C_exp1_detect,2022.2.4,59.97382742184192,
42.7,315,0,1,1,0,0,142,142,125,271.3516617999994,271.3516617999994,271.8518748000006,271.91888590000053,271.96917849999954,271.96917849999954,271.96917849999954,271.96917849999954,272.0190863000007,272.0190863000007,272.0190863000007,272.0190863000007,num_1,0.4903169999997772,272.53618300000016,272.53618300000016,None,272.0190863000007,272.0190863000007,272.0190863000007,272.0190863000007,272.0190863000007,272.0190863000007,,7,001,2025-12-17_15h45.30.433,2025C_exp1_detect,2022.2.4,59.97382742184192,
42.7,45,0,0,1,0,0,143,143,80,272.53618300000016,272.53618300000016,273.0367430999995,273.1034354000003,273.15360970000074,273.15360970000074,273.15360970000074,273.15360970000074,273.20357820000027,273.20357820000027,273.20357820000027,273.20357820000027,num_1,0.577685999998721,273.8040796999994,273.8040796999994,None,273.20357820000027,273.20357820000027,273.20357820000027,273.20357820000027,273.20357820000027,273.20357820000027,,7,001,2025-12-17_15h45.30.433,2025C_exp1_detect,2022.2.4,59.97382742184192,
35.3,315,0,1,1,-1,0,144,144,267,273.8040796999994,273.8040796999994,274.30456290000075,274.3711499000001,274.4213767000001,274.4213767000001,274.4213767000001,274.4213767000001,274.4715089000001,274.4715089000001,274.4715089000001,274.4715089000001,num_1,2.3336890999999014,276.82348660000025,276.82348660000025,None,274.4715089000001,274.4715089000001,274.4715089000001,274.4715089000001,274.4715089000001,274.4715089000001,,7,001,2025-12-17_15h45.30.433,2025C_exp1_detect,2022.2.4,59.97382742184192,
25.5,45,0,0,-1,0,0,145,145,4,276.82348660000025,276.82348660000025,277.3239888999997,277.3906991999993,277.4412773999993,277.4412773999993,277.4412773999993,277.4412773999993,277.4908926999997,277.4908926999997,277.4908926999997,277.4908926999997,num_3,0.5864849999998114,278.10811490000015,278.10811490000015,None,277.4908926999997,277.4908926999997,277.4908926999997,277.4908926999997,277.4908926999997,277.4908926999997,,7,001,2025-12-17_15h45.30.433,2025C_exp1_detect,2022.2.4,59.97382742184192,
39.2,315,1,1,-1,1,0,146,146,358,278.10811490000015,278.10811490000015,278.6086187000001,278.67532779999965,278.7258118999998,278.7258118999998,278.7258118999998,278.7258118999998,278.7758310999998,278.7758310999998,278.7758310999998,278.7758310999998,num_1,0.510421299999507,279.30968380000013,279.30968380000013,None,278.7758310999998,278.7758310999998,278.7758310999998,278.7758310999998,278.7758310999998,278.7758310999998,,7,001,2025-12-17_15h45.30.433,2025C_exp1_detect,2022.2.4,59.97382742184192,
35.3,315,0,1,1,0,0,147,147,123,279.30968380000013,279.30968380000013,279.8100880999991,279.8768440999993,279.9268783000007,279.9268783000007,279.9268783000007,279.9268783000007,279.9770267999993,279.9770267999993,279.9770267999993,279.9770267999993,num_1,0.43620650000048045,280.44422640000084,280.44422640000084,None,279.9770267999993,279.9770267999993,279.9770267999993,279.9770267999993,279.9770267999993,279.9770267999993,,7,001,2025-12-17_15h45.30.433,2025C_exp1_detect,2022.2.4,59.97382742184192,
15.7,315,0,0,-1,-1,0,148,148,154,280.44422640000084,280.44422640000084,280.9446865000009,281.0113077999995,281.06173540000054,281.06173540000054,281.06173540000054,281.06173540000054,281.11146220000046,281.11146220000046,281.11146220000046,281.11146220000046,num_3,0.5990437000000384,281.72870259999945,281.72870259999945,None,281.11146220000046,281.11146220000046,281.11146220000046,281.11146220000046,281.11146220000046,281.11146220000046,,7,001,2025-12-17_15h45.30.433,2025C_exp1_detect,2022.2.4,59.97382742184192,
12.1,45,1,0,1,0,0,149,149,90,281.72870259999945,281.72870259999945,282.22893870000007,282.29591880000044,282.3464576000006,282.3464576000006,282.3464576000006,282.3464576000006,282.3962489000005,282.3962489000005,282.3962489000005,282.3962489000005,num_3,0.44953519999944547,282.86340569999993,282.86340569999993,None,282.3962489000005,282.3962489000005,282.3962489000005,282.3962489000005,282.3962489000005,282.3962489000005,,7,001,2025-12-17_15h45.30.433,2025C_exp1_detect,2022.2.4,59.97382742184192,
35.3,45,0,0,1,1,0,150,150,366,282.86340569999993,282.86340569999993,283.3639710999996,283.4305284999991,283.4809721999991,283.4809721999991,283.4809721999991,283.4809721999991,283.53071009999985,283.53071009999985,283.53071009999985,283.53071009999985,num_3,0.4034670000000915,283.96451739999975,283.96451739999975,None,283.53071009999985,283.53071009999985,283.53071009999985,283.53071009999985,283.53071009999985,283.53071009999985,,7,001,2025-12-17_15h45.30.433,2025C_exp1_detect,2022.2.4,59.97382742184192,
25.5,315,0,1,1,1,0,151,151,409,283.96451739999975,283.96451739999975,284.4646544999996,284.5313886999993,284.58169850000013,284.58169850000013,284.58169850000013,284.58169850000013,284.6314646999999,284.6314646999999,284.6314646999999,284.6314646999999,num_1,0.49389200000041455,285.1485866999992,285.1485866999992,None,284.6314646999999,284.6314646999999,284.6314646999999,284.6314646999999,284.6314646999999,284.6314646999999,,7,001,2025-12-17_15h45.30.433,2025C_exp1_detect,2022.2.4,59.97382742184192,
19.6,315,1,1,1,0,0,152,152,137,285.1485866999992,285.1485866999992,285.6492957999999,285.7159879999999,285.7663135999992,285.7663135999992,285.7663135999992,285.7663135999992,285.8161698999993,285.8161698999993,285.8161698999993,285.8161698999993,num_1,0.446416799999497,286.28321440000036,286.28321440000036,None,285.8161698999993,285.8161698999993,285.8161698999993,285.8161698999993,285.8161698999993,285.8161698999993,,7,001,2025-12-17_15h45.30.433,2025C_exp1_detect,2022.2.4,59.97382742184192,
12.1,45,0,1,-1,1,0,153,153,324,286.28321440000036,286.28321440000036,286.78370729999915,286.85054499999933,286.9007536000008,286.9007536000008,286.9007536000008,286.9007536000008,286.9506371000007,286.9506371000007,286.9506371000007,286.9506371000007,num_3,0.6399908999992476,287.6178378000004,287.6178378000004,None,286.9506371000007,286.9506371000007,286.9506371000007,286.9506371000007,286.9506371000007,286.9506371000007,,7,001,2025-12-17_15h45.30.433,2025C_exp1_detect,2022.2.4,59.97382742184192,
25.5,315,0,1,1,-1,0,154,154,265,287.6178378000004,287.6178378000004,288.1184482000008,288.18521259999943,288.23547750000034,288.23547750000034,288.23547750000034,288.23547750000034,288.2852466000004,288.2852466000004,288.2852466000004,288.2852466000004,num_1,0.464775099999315,288.76906249999956,288.76906249999956,None,288.2852466000004,288.2852466000004,288.2852466000004,288.2852466000004,288.2852466000004,288.2852466000004,,7,001,2025-12-17_15h45.30.433,2025C_exp1_detect,2022.2.4,59.97382742184192,
39.2,45,0,1,1,-1,0,155,155,259,288.76906249999956,288.76906249999956,289.26953519999915,289.33615199999986,289.3865915000006,289.3865915000006,289.3865915000006,289.3865915000006,289.43644270000004,289.43644270000004,289.43644270000004,289.43644270000004,num_1,0.4009074999994482,289.87016349999976,289.87016349999976,None,289.43644270000004,289.43644270000004,289.43644270000004,289.43644270000004,289.43644270000004,289.43644270000004,,7,001,2025-12-17_15h45.30.433,2025C_exp1_detect,2022.2.4,59.97382742184192,
12.1,45,0,1,-1,0,0,156,156,36,289.87016349999976,289.87016349999976,290.3706633999991,290.4373692999998,290.4876793000003,290.4876793000003,290.4876793000003,290.4876793000003,290.5372389999993,290.5372389999993,290.5372389999993,290.5372389999993,num_3,0.636022699998648,291.2046854,291.2046854,None,290.5372389999993,290.5372389999993,290.5372389999993,290.5372389999993,290.5372389999993,290.5372389999993,,7,001,2025-12-17_15h45.30.433,2025C_exp1_detect,2022.2.4,59.97382742184192,
29.4,315,0,0,-1,-1,0,157,157,158,291.2046854,291.2046854,291.7053575000009,291.7719622000004,291.82236790000024,291.82236790000024,291.82236790000024,291.82236790000024,291.87219469999945,291.87219469999945,291.87219469999945,291.87219469999945,num_3,0.4376003999987006,292.3392041999996,292.3392041999996,None,291.87219469999945,291.87219469999945,291.87219469999945,291.87219469999945,291.87219469999945,291.87219469999945,,7,001,2025-12-17_15h45.30.433,2025C_exp1_detect,2022.2.4,59.97382742184192,
22.7,315,1,1,-1,0,0,158,158,66,292.3392041999996,292.3392041999996,292.83977380000033,292.9065026999997,292.9568141,292.9568141,292.9568141,292.9568141,293.00667930000054,293.00667930000054,293.00667930000054,293.00667930000054,num_1,0.5510462000002008,293.5905600999995,293.5905600999995,None,293.00667930000054,293.00667930000054,293.00667930000054,293.00667930000054,293.00667930000054,293.00667930000054,,7,001,2025-12-17_15h45.30.433,2025C_exp1_detect,2022.2.4,59.97382742184192,
39.2,45,0,0,-1,1,0,159,159,295,293.5905600999995,293.5905600999995,294.0910349000005,294.15776630000073,294.20808059999945,294.20808059999945,294.20808059999945,294.20808059999945,294.25780959999975,294.25780959999975,294.25780959999975,294.25780959999975,num_1,0.5726659999982076,294.85846479999964,294.85846479999964,None,294.25780959999975,294.25780959999975,294.25780959999975,294.25780959999975,294.25780959999975,294.25780959999975,,7,001,2025-12-17_15h45.30.433,2025C_exp1_detect,2022.2.4,59.97382742184192,
29.4,45,0,1,-1,0,0,160,160,41,294.85846479999964,294.85846479999964,295.3592549999994,295.42587490000005,295.47616349999953,295.47616349999953,295.47616349999953,295.47616349999953,295.5261355999992,295.5261355999992,295.5261355999992,295.5261355999992,num_3,0.5200786000004882,296.07662150000033,296.07662150000033,None,295.5261355999992,295.5261355999992,295.5261355999992,295.5261355999992,295.5261355999992,295.5261355999992,,7,001,2025-12-17_15h45.30.433,2025C_exp1_detect,2022.2.4,59.97382742184192,
19.6,45,0,0,1,1,0,161,161,362,296.07662150000033,296.07662150000033,296.5769930000006,296.6436190000004,296.6938964000001,296.6938964000001,296.6938964000001,296.6938964000001,296.7437764999995,296.7437764999995,296.7437764999995,296.7437764999995,num_3,0.5342019999989134,297.2944764999993,297.2944764999993,None,296.7437764999995,296.7437764999995,296.7437764999995,296.7437764999995,296.7437764999995,296.7437764999995,,7,001,2025-12-17_15h45.30.433,2025C_exp1_detect,2022.2.4,59.97382742184192,
42.7,45,1,0,-1,0,0,162,162,26,297.2944764999993,297.2944764999993,297.7947612000007,297.8613822999996,297.91180859999986,297.91180859999986,297.91180859999986,297.91180859999986,297.96165800000017,297.96165800000017,297.96165800000017,297.96165800000017,num_1,0.5562252999989141,298.5455270000002,298.5455270000002,None,297.96165800000017,297.96165800000017,297.96165800000017,297.96165800000017,297.96165800000017,297.96165800000017,,7,001,2025-12-17_15h45.30.433,2025C_exp1_detect,2022.2.4,59.97382742184192,
12.1,45,1,1,-1,-1,0,163,163,198,298.5455270000002,298.5455270000002,299.0460932999995,299.1129524000007,299.1630939000006,299.1630939000006,299.1630939000006,299.1630939000006,299.2128828999994,299.2128828999994,299.2128828999994,299.2128828999994,num_1,0.43226180000056047,299.66310069999963,299.66310069999963,None,299.2128828999994,299.2128828999994,299.2128828999994,299.2128828999994,299.2128828999994,299.2128828999994,,7,001,2025-12-17_15h45.30.433,2025C_exp1_detect,2022.2.4,59.97382742184192,
15.7,315,1,1,1,0,0,164,164,136,299.66310069999963,299.66310069999963,300.16374859999996,300.23043289999987,300.28064040000027,300.28064040000027,300.28064040000027,300.28064040000027,300.3306584999991,300.3306584999991,300.3306584999991,300.3306584999991,num_1,0.5227266000001691,300.88092719999986,300.88092719999986,None,300.3306584999991,300.3306584999991,300.3306584999991,300.3306584999991,300.3306584999991,300.3306584999991,,7,001,2025-12-17_15h45.30.433,2025C_exp1_detect,2022.2.4,59.97382742184192,
19.6,45,0,1,-1,1,0,165,165,326,300.88092719999986,300.88092719999986,301.3818080000001,301.4485215000004,301.49884419999944,301.49884419999944,301.49884419999944,301.49884419999944,301.54874159999963,301.54874159999963,301.54874159999963,301.54874159999963,num_3,0.6331106999987242,302.1991706000008,302.1991706000008,None,301.54874159999963,301.54874159999963,301.54874159999963,301.54874159999963,301.54874159999963,301.54874159999963,,7,001,2025-12-17_15h45.30.433,2025C_exp1_detect,2022.2.4,59.97382742184192,
12.1,315,1,1,1,0,0,166,166,135,302.1991706000008,302.1991706000008,302.6996366000003,302.7661121000001,302.81673559999945,302.81673559999945,302.81673559999945,302.81673559999945,302.8663522000006,302.8663522000006,302.8663522000006,302.8663522000006,num_1,1.0275344000001496,303.9174457000008,303.9174457000008,None,302.8663522000006,302.8663522000006,302.8663522000006,302.8663522000006,302.8663522000006,302.8663522000006,,7,001,2025-12-17_15h45.30.433,2025C_exp1_detect,2022.2.4,59.97382742184192,
22.7,45,0,1,1,0,0,167,167,111,303.9174457000008,303.9174457000008,304.41805080000086,304.48464290000084,304.5349363000005,304.5349363000005,304.5349363000005,304.5349363000005,304.58494210000026,304.58494210000026,304.58494210000026,304.58494210000026,num_1,0.4370777999993152,305.0516879000006,305.0516879000006,None,304.58494210000026,304.58494210000026,304.58494210000026,304.58494210000026,304.58494210000026,304.58494210000026,,7,001,2025-12-17_15h45.30.433,2025C_exp1_detect,2022.2.4,59.97382742184192,
15.7,45,0,1,-1,1,0,168,168,325,305.0516879000006,305.0516879000006,305.55250720000004,305.61918979999973,305.66952479999964,305.66952479999964,305.66952479999964,305.66952479999964,305.71938469999986,305.71938469999986,305.71938469999986,305.71938469999986,num_3,0.5657792999991216,306.3030710999992,306.3030710999992,None,305.71938469999986,305.71938469999986,305.71938469999986,305.71938469999986,305.71938469999986,305.71938469999986,,7,001,2025-12-17_15h45.30.433,2025C_exp1_detect,2022.2.4,59.97382742184192,
19.6,45,0,1,-1,-1,0,169,169,182,306.3030710999992,306.3030710999992,306.8034757000005,306.8701519999995,306.9204410000002,306.9204410000002,306.9204410000002,306.9204410000002,306.9703238000002,306.9703238000002,306.9703238000002,306.9703238000002,num_3,0.48286369999914314,307.4709163999996,307.4709163999996,None,306.9703238000002,306.9703238000002,306.9703238000002,306.9703238000002,306.9703238000002,306.9703238000002,,7,001,2025-12-17_15h45.30.433,2025C_exp1_detect,2022.2.4,59.97382742184192,
19.6,45,1,0,1,0,0,170,170,92,307.4709163999996,307.4709163999996,307.97145699999965,308.0379716999996,308.08829519999927,308.08829519999927,308.08829519999927,308.08829519999927,308.13856210000085,308.13856210000085,308.13856210000085,308.13856210000085,num_3,0.6437956999998278,308.80549450000035,308.80549450000035,None,308.13856210000085,308.13856210000085,308.13856210000085,308.13856210000085,308.13856210000085,308.13856210000085,,7,001,2025-12-17_15h45.30.433,2025C_exp1_detect,2022.2.4,59.97382742184192,
29.4,315,1,1,1,1,0,171,171,428,308.80549450000035,308.80549450000035,309.3062269999991,309.3729244999995,309.4231765000004,309.4231765000004,309.4231765000004,309.4231765000004,309.4731219000005,309.4731219000005,309.4731219000005,309.4731219000005,num_1,0.7328168000003643,310.2236761999993,310.2236761999993,None,309.4731219000005,309.4731219000005,309.4731219000005,309.4731219000005,309.4731219000005,309.4731219000005,,7,001,2025-12-17_15h45.30.433,2025C_exp1_detect,2022.2.4,59.97382742184192,
15.7,315,1,0,1,0,0,172,172,100,310.2236761999993,310.2236761999993,310.72401829999944,310.7907381999994,310.84106839999913,310.84106839999913,310.84106839999913,310.84106839999913,310.8909586999998,310.8909586999998,310.8909586999998,310.8909586999998,num_3,0.5865909999993164,311.5083367999996,311.5083367999996,None,310.8909586999998,310.8909586999998,310.8909586999998,310.8909586999998,310.8909586999998,310.8909586999998,,7,001,2025-12-17_15h45.30.433,2025C_exp1_detect,2022.2.4,59.97382742184192,
35.3,45,1,1,-1,1,0,173,173,348,311.5083367999996,311.5083367999996,312.00896789999933,312.0755895000002,312.12601170000016,312.12601170000016,312.12601170000016,312.12601170000016,312.17587249999997,312.17587249999997,312.17587249999997,312.17587249999997,num_1,0.5497962999997981,312.7430074999993,312.7430074999993,None,312.17587249999997,312.17587249999997,312.17587249999997,312.17587249999997,312.17587249999997,312.17587249999997,,7,001,2025-12-17_15h45.30.433,2025C_exp1_detect,2022.2.4,59.97382742184192,
22.7,315,0,0,-1,0,0,174,174,12,312.7430074999993,312.7430074999993,313.24354350000067,313.3101759000001,313.36030310000024,313.36030310000024,313.36030310000024,313.36030310000024,313.41029060000074,313.41029060000074,313.41029060000074,313.41029060000074,num_3,0.7241057999981422,314.1609621000007,314.1609621000007,None,313.41029060000074,313.41029060000074,313.41029060000074,313.41029060000074,313.41029060000074,313.41029060000074,,7,001,2025-12-17_15h45.30.433,2025C_exp1_detect,2022.2.4,59.97382742184192,
25.5,45,0,1,1,-1,0,175,175,256,314.1609621000007,314.1609621000007,314.6616224999998,314.7285355999993,314.77835419999974,314.77835419999974,314.77835419999974,314.77835419999974,314.82817670000077,314.82817670000077,314.82817670000077,314.82817670000077,num_1,2.329953399997976,317.18050910000056,317.18050910000056,None,314.82817670000077,314.82817670000077,314.82817670000077,314.82817670000077,314.82817670000077,314.82817670000077,,7,001,2025-12-17_15h45.30.433,2025C_exp1_detect,2022.2.4,59.97382742184192,
29.4,45,1,0,-1,1,0,176,176,311,317.18050910000056,317.18050910000056,317.68108930000017,317.74766549999913,317.7979835999995,317.7979835999995,317.7979835999995,317.7979835999995,317.84796339999957,317.84796339999957,317.84796339999957,317.84796339999957,num_1,0.5413215999997192,318.4150121999992,318.4150121999992,None,317.84796339999957,317.84796339999957,317.84796339999957,317.84796339999957,317.84796339999957,317.84796339999957,,7,001,2025-12-17_15h45.30.433,2025C_exp1_detect,2022.2.4,59.97382742184192,
35.3,315,0,0,1,0,0,177,177,87,318.4150121999992,318.4150121999992,318.9160448999992,318.9822347999998,319.0325391999995,319.0325391999995,319.0325391999995,319.0325391999995,319.0824111000002,319.0824111000002,319.0824111000002,319.0824111000002,num_3,0.8190512000001036,319.93318980000004,319.93318980000004,None,319.0824111000002,319.0824111000002,319.0824111000002,319.0824111000002,319.0824111000002,319.0824111000002,,7,001,2025-12-17_15h45.30.433,2025C_exp1_detect,2022.2.4,59.97382742184192,
29.4,45,1,1,1,0,0,178,178,131,319.93318980000004,319.93318980000004,320.43414909999956,320.50095150000016,320.55123280000043,320.55123280000043,320.55123280000043,320.55123280000043,320.6010366999999,320.6010366999999,320.6010366999999,320.6010366999999,num_1,0.6533667999992758,321.2849968999999,321.2849968999999,None,320.6010366999999,320.6010366999999,320.6010366999999,320.6010366999999,320.6010366999999,320.6010366999999,,7,001,2025-12-17_15h45.30.433,2025C_exp1_detect,2022.2.4,59.97382742184192,
15.7,315,0,1,1,-1,0,179,179,262,321.2849968999999,321.2849968999999,321.7853634000003,321.8520872000008,321.9022662999996,321.9022662999996,321.9022662999996,321.9022662999996,321.95227110000087,321.95227110000087,321.95227110000087,321.95227110000087,num_1,0.5656739999994898,322.53593159999946,322.53593159999946,None,321.95227110000087,321.95227110000087,321.95227110000087,321.95227110000087,321.95227110000087,321.95227110000087,,7,001,2025-12-17_15h45.30.433,2025C_exp1_detect,2022.2.4,59.97382742184192,
22.7,315,1,1,-1,-1,0,180,180,210,322.53593159999946,322.53593159999946,323.0366123999993,323.10333829999945,323.1536326000005,323.1536326000005,323.1536326000005,323.1536326000005,323.2035169999999,323.2035169999999,323.2035169999999,323.2035169999999,num_1,0.5142959999993764,323.73717020000004,323.73717020000004,None,323.2035169999999,323.2035169999999,323.2035169999999,323.2035169999999,323.2035169999999,323.2035169999999,,7,001,2025-12-17_15h45.30.433,2025C_exp1_detect,2022.2.4,59.97382742184192,
39.2,45,0,1,1,0,0,181,181,115,323.73717020000004,323.73717020000004,324.23794029999954,324.3046405999994,324.3550808,324.3550808,324.3550808,324.3550808,324.40494880000006,324.40494880000006,324.40494880000006,324.40494880000006,num_1,0.46517970000058995,324.8886772999995,324.8886772999995,None,324.40494880000006,324.40494880000006,324.40494880000006,324.40494880000006,324.40494880000006,324.40494880000006,,7,001,2025-12-17_15h45.30.433,2025C_exp1_detect,2022.2.4,59.97382742184192,
15.7,315,1,1,1,-1,0,182,182,280,324.8886772999995,324.8886772999995,325.3888251999997,325.45569389999946,325.5059677999998,325.5059677999998,325.5059677999998,325.5059677999998,325.55573899999945,325.55573899999945,325.55573899999945,325.55573899999945,num_1,0.4664145999995526,326.03948839999975,326.03948839999975,None,325.55573899999945,325.55573899999945,325.55573899999945,325.55573899999945,325.55573899999945,325.55573899999945,,7,001,2025-12-17_15h45.30.433,2025C_exp1_detect,2022.2.4,59.97382742184192,
19.6,315,1,0,1,-1,0,183,183,245,326.03948839999975,326.03948839999975,326.5401290000009,326.6068243999998,326.6571875000009,326.6571875000009,326.6571875000009,326.6571875000009,326.7070015999998,326.7070015999998,326.7070015999998,326.7070015999998,num_3,0.569999999999709,327.3075279000004,327.3075279000004,None,326.7070015999998,326.7070015999998,326.7070015999998,326.7070015999998,326.7070015999998,326.7070015999998,,7,001,2025-12-17_15h45.30.433,2025C_exp1_detect,2022.2.4,59.97382742184192,
29.4,45,0,1,1,0,0,184,184,113,327.3075279000004,327.3075279000004,327.8080742000002,327.8744874999993,327.9249818999997,327.9249818999997,327.9249818999997,327.9249818999997,327.97498559999985,327.97498559999985,327.97498559999985,327.97498559999985,num_1,0.39841919999889797,328.39199440000084,328.39199440000084,None,327.97498559999985,327.97498559999985,327.97498559999985,327.97498559999985,327.97498559999985,327.97498559999985,,7,001,2025-12-17_15h45.30.433,2025C_exp1_detect,2022.2.4,59.97382742184192,
42.7,45,1,1,1,1,0,185,185,422,328.39199440000084,328.39199440000084,328.8925151000003,328.9591242000006,329.00928009999916,329.00928009999916,329.00928009999916,329.00928009999916,329.05916330000036,329.05916330000036,329.05916330000036,329.05916330000036,num_1,0.4272736000002624,329.5097370000003,329.5097370000003,None,329.05916330000036,329.05916330000036,329.05916330000036,329.05916330000036,329.05916330000036,329.05916330000036,,7,001,2025-12-17_15h45.30.433,2025C_exp1_detect,2022.2.4,59.97382742184192,
35.3,45,0,1,1,0,0,186,186,114,329.5097370000003,329.5097370000003,330.01002660000086,330.07690849999926,330.12732719999985,330.12732719999985,330.12732719999985,330.12732719999985,330.1769929000002,330.1769929000002,330.1769929000002,330.1769929000002,num_1,0.4533200999994733,330.6608761000007,330.6608761000007,None,330.1769929000002,330.1769929000002,330.1769929000002,330.1769929000002,330.1769929000002,330.1769929000002,,7,001,2025-12-17_15h45.30.433,2025C_exp1_detect,2022.2.4,59.97382742184192,
39.2,315,0,0,-1,1,0,187,187,304,330.6608761000007,330.6608761000007,331.16125570000077,331.22812580000027,331.27885849999984,331.27885849999984,331.27885849999984,331.27885849999984,331.32829429999947,331.32829429999947,331.32829429999947,331.32829429999947,num_3,0.5172824999990553,331.86204480000015,331.86204480000015,None,331.32829429999947,331.32829429999947,331.32829429999947,331.32829429999947,331.32829429999947,331.32829429999947,,7,001,2025-12-17_15h45.30.433,2025C_exp1_detect,2022.2.4,59.97382742184192,
15.7,45,1,1,1,-1,0,188,188,271,331.86204480000015,331.86204480000015,332.3625991000008,332.4293292000002,332.4796535000005,332.4796535000005,332.4796535000005,332.4796535000005,332.5295155999993,332.5295155999993,332.5295155999993,332.5295155999993,num_1,0.6050024999985908,333.16334780000034,333.16334780000034,None,332.5295155999993,332.5295155999993,332.5295155999993,332.5295155999993,332.5295155999993,332.5295155999993,,7,001,2025-12-17_15h45.30.433,2025C_exp1_detect,2022.2.4,59.97382742184192,
25.5,315,1,0,1,1,0,189,189,391,333.16334780000034,333.16334780000034,333.66391339999973,333.7304987000007,333.78095759999997,333.78095759999997,333.78095759999997,333.78095759999997,333.83079309999994,333.83079309999994,333.83079309999994,333.83079309999994,num_3,0.8872040999995079,334.7483444999998,334.7483444999998,None,333.83079309999994,333.83079309999994,333.83079309999994,333.83079309999994,333.83079309999994,333.83079309999994,,7,001,2025-12-17_15h45.30.433,2025C_exp1_detect,2022.2.4,59.97382742184192,
19.6,45,0,0,1,-1,0,190,190,218,334.7483444999998,334.7483444999998,335.24881090000054,335.31560159999935,335.36584500000026,335.36584500000026,335.36584500000026,335.36584500000026,335.41557529999955,335.41557529999955,335.41557529999955,335.41557529999955,num_3,0.48667790000035893,335.93265539999993,335.93265539999993,None,335.41557529999955,335.41557529999955,335.41557529999955,335.41557529999955,335.41557529999955,335.41557529999955,,7,001,2025-12-17_15h45.30.433,2025C_exp1_detect,2022.2.4,59.97382742184192,
35.3,45,0,1,1,1,0,191,191,402,335.93265539999993,335.93265539999993,336.4333841000007,336.5000349999991,336.55024090000006,336.55024090000006,336.55024090000006,336.55024090000006,336.60007699999915,336.60007699999915,336.60007699999915,336.60007699999915,num_1,0.63715079999929,337.2671812000008,337.2671812000008,None,336.60007699999915,336.60007699999915,336.60007699999915,336.60007699999915,336.60007699999915,336.60007699999915,,7,001,2025-12-17_15h45.30.433,2025C_exp1_detect,2022.2.4,59.97382742184192,
42.7,45,1,1,-1,1,0,192,192,350,337.2671812000008,337.2671812000008,337.76768749999974,337.8344734000002,337.88491090000025,337.88491090000025,337.88491090000025,337.88491090000025,337.9346349999996,337.9346349999996,337.9346349999996,337.9346349999996,num_1,0.47881949999828066,338.4350169999998,338.4350169999998,None,337.9346349999996,337.9346349999996,337.9346349999996,337.9346349999996,337.9346349999996,337.9346349999996,,7,001,2025-12-17_15h45.30.433,2025C_exp1_detect,2022.2.4,59.97382742184192,
22.7,315,1,1,1,0,0,193,193,138,338.4350169999998,338.4350169999998,338.9359476999998,339.0025762999994,339.0529026999993,339.0529026999993,339.0529026999993,339.0529026999993,339.1026736999993,339.1026736999993,339.1026736999993,339.1026736999993,num_1,0.49502509999911126,339.61978479999925,339.61978479999925,None,339.1026736999993,339.1026736999993,339.1026736999993,339.1026736999993,339.1026736999993,339.1026736999993,,7,001,2025-12-17_15h45.30.433,2025C_exp1_detect,2022.2.4,59.97382742184192,
15.7,45,0,0,-1,0,0,194,194,1,339.61978479999925,339.61978479999925,340.12033320000046,340.18706779999957,340.2376260000001,340.2376260000001,340.2376260000001,340.2376260000001,340.28740800000014,340.28740800000014,340.28740800000014,340.28740800000014,num_3,0.6472730999994383,340.9548035000007,340.9548035000007,None,340.28740800000014,340.28740800000014,340.28740800000014,340.28740800000014,340.28740800000014,340.28740800000014,,7,001,2025-12-17_15h45.30.433,2025C_exp1_detect,2022.2.4,59.97382742184192,
35.3,45,1,0,1,-1,0,195,195,240,340.9548035000007,340.9548035000007,341.4551664999999,341.52185930000087,341.57186999999976,341.57186999999976,341.57186999999976,341.57186999999976,341.6217820999991,341.6217820999991,341.6217820999991,341.6217820999991,num_3,0.728747299999668,342.3726064000002,342.3726064000002,None,341.6217820999991,341.6217820999991,341.6217820999991,341.6217820999991,341.6217820999991,341.6217820999991,,7,001,2025-12-17_15h45.30.433,2025C_exp1_detect,2022.2.4,59.97382742184192,
