contrast,ori,side,precue,trials.thisRepN,trials.thisTrialN,trials.thisN,trials.thisIndex,fix1.started,fix2.started,precue_2.started,precue_2.stopped,left_grating.started,right_grating.started,noise_left2.started,noise_right2.started,fix1.stopped,fix2.stopped,left_grating.stopped,right_grating.stopped,noise_left2.stopped,noise_right2.stopped,key_resp.started,fix1_2.started,fix2_2.started,key_resp.keys,key_resp.rt,key_resp_2.started,break_text_2.started,key_resp_2.keys,key_resp_2.rt,participant,session,date,expName,psychopyVersion,frameRate,
35.3,45,-1,0,0,0,0,6,16.446556000000783,16.446556000000783,16.930422600000384,16.997503500000676,17.057178300001397,17.057178300001397,17.057178300001397,17.057178300001397,17.09723860000122,17.09723860000122,17.09723860000122,17.09723860000122,17.09723860000122,17.09723860000122,17.114028200001485,17.114028200001485,17.114028200001485,left,1.49673360000088,18.632283900000402,18.632283900000402,None,,7,001,2025-12-17_15h05.53.213,2025C_exp1_comp,2022.2.4,60.003624219431245,
12.1,45,1,1,0,1,1,54,18.632283900000402,18.632283900000402,19.132966600000145,19.1996663000009,19.24993590000122,19.24993590000122,19.24993590000122,19.24993590000122,19.299671800001306,19.299671800001306,19.299671800001306,19.299671800001306,19.299671800001306,19.299671800001306,19.299671800001306,19.299671800001306,19.299671800001306,left,1.398914600000353,20.718214600001374,20.718214600001374,None,,7,001,2025-12-17_15h05.53.213,2025C_exp1_comp,2022.2.4,60.003624219431245,
22.7,315,1,0,0,2,2,30,20.718214600001374,20.718214600001374,21.218323400000372,21.284965400000146,21.335364700000355,21.335364700000355,21.335364700000355,21.335364700000355,21.38516090000121,21.38516090000121,21.38516090000121,21.38516090000121,21.38516090000121,21.38516090000121,21.38516090000121,21.38516090000121,21.38516090000121,left,1.4740033999987645,22.886523700000907,22.886523700000907,None,,7,001,2025-12-17_15h05.53.213,2025C_exp1_comp,2022.2.4,60.003624219431245,
42.7,315,-1,1,0,3,3,53,22.886523700000907,22.886523700000907,23.387273900001674,23.453917400000137,23.50415300000168,23.50415300000168,23.50415300000168,23.50415300000168,23.554028800001106,23.554028800001106,23.554028800001106,23.554028800001106,23.554028800001106,23.554028800001106,23.554028800001106,23.554028800001106,23.554028800001106,left,1.0810677999998006,24.655136700001094,24.655136700001094,None,,7,001,2025-12-17_15h05.53.213,2025C_exp1_comp,2022.2.4,60.003624219431245,
42.7,45,1,-1,0,4,4,98,24.655136700001094,24.655136700001094,25.156069300001036,25.22247570000036,25.272709400000167,25.272709400000167,25.272709400000167,25.272709400000167,25.322551000001113,25.322551000001113,25.322551000001113,25.322551000001113,25.322551000001113,25.322551000001113,25.322551000001113,25.322551000001113,25.322551000001113,right,1.4807351999988896,26.823804700001347,26.823804700001347,None,,7,001,2025-12-17_15h05.53.213,2025C_exp1_comp,2022.2.4,60.003624219431245,
22.7,45,1,0,0,5,5,21,26.823804700001347,26.823804700001347,27.32445430000007,27.391192900000533,27.44145110000136,27.44145110000136,27.44145110000136,27.44145110000136,27.49126940000133,27.49126940000133,27.49126940000133,27.49126940000133,27.49126940000133,27.49126940000133,27.49126940000133,27.49126940000133,27.49126940000133,left,0.9433490999999776,28.458776500001477,28.458776500001477,None,,7,001,2025-12-17_15h05.53.213,2025C_exp1_comp,2022.2.4,60.003624219431245,
22.7,45,1,1,0,6,6,57,28.458776500001477,28.458776500001477,28.959407199999987,29.026130500000363,29.0764203000017,29.0764203000017,29.0764203000017,29.0764203000017,29.126236600000993,29.126236600000993,29.126236600000993,29.126236600000993,29.126236600000993,29.126236600000993,29.126236600000993,29.126236600000993,29.126236600000993,left,0.9734091999998782,30.12710700000025,30.12710700000025,None,,7,001,2025-12-17_15h05.53.213,2025C_exp1_comp,2022.2.4,60.003624219431245,
15.7,45,-1,-1,0,7,7,73,30.12710700000025,30.12710700000025,30.62787380000009,30.694362200001706,30.744533100001718,30.744533100001718,30.744533100001718,30.744533100001718,30.794892300000356,30.794892300000356,30.794892300000356,30.794892300000356,30.794892300000356,30.794892300000356,30.794892300000356,30.794892300000356,30.794892300000356,left,15.007497999999032,45.8259332000016,45.8259332000016,None,,7,001,2025-12-17_15h05.53.213,2025C_exp1_comp,2022.2.4,60.003624219431245,
29.4,45,-1,1,0,8,8,41,45.8259332000016,45.8259332000016,46.32649890000175,46.393245400000524,46.44355180000093,46.44355180000093,46.44355180000093,46.44355180000093,46.49326210000072,46.49326210000072,46.49326210000072,46.49326210000072,46.49326210000072,46.49326210000072,46.49326210000072,46.49326210000072,46.49326210000072,right,0.8536927000004653,47.37801010000112,47.37801010000112,None,,7,001,2025-12-17_15h05.53.213,2025C_exp1_comp,2022.2.4,60.003624219431245,
39.2,315,-1,-1,0,9,9,88,47.37801010000112,47.37801010000112,47.878337699999975,47.944913900000756,47.995132700001705,47.995132700001705,47.995132700001705,47.995132700001705,48.045118,48.045118,48.045118,48.045118,48.045118,48.045118,48.045118,48.045118,48.045118,left,0.6301144000008208,48.69577880000179,48.69577880000179,None,,7,001,2025-12-17_15h05.53.213,2025C_exp1_comp,2022.2.4,60.003624219431245,
15.7,315,1,1,0,10,10,64,48.69577880000179,48.69577880000179,49.19633600000088,49.26285910000115,49.31331350000073,49.31331350000073,49.31331350000073,49.31331350000073,49.36314400000083,49.36314400000083,49.36314400000083,49.36314400000083,49.36314400000083,49.36314400000083,49.36314400000083,49.36314400000083,49.36314400000083,left,0.6240497999988293,50.013452700000926,50.013452700000926,None,,7,001,2025-12-17_15h05.53.213,2025C_exp1_comp,2022.2.4,60.003624219431245,
42.7,315,1,-1,0,11,11,107,50.013452700000926,50.013452700000926,50.51427530000001,50.58079480000015,50.63100200000008,50.63100200000008,50.63100200000008,50.63100200000008,50.68105540000033,50.68105540000033,50.68105540000033,50.68105540000033,50.68105540000033,50.68105540000033,50.68105540000033,50.68105540000033,50.68105540000033,right,0.6332463999988249,51.33163560000139,51.33163560000139,None,,7,001,2025-12-17_15h05.53.213,2025C_exp1_comp,2022.2.4,60.003624219431245,
35.3,45,-1,-1,0,12,12,78,51.33163560000139,51.33163560000139,51.83216260000154,51.8989760000004,51.94928110000001,51.94928110000001,51.94928110000001,51.94928110000001,51.999048000001494,51.999048000001494,51.999048000001494,51.999048000001494,51.999048000001494,51.999048000001494,51.999048000001494,51.999048000001494,51.999048000001494,left,0.6198339000002306,52.64950200000021,52.64950200000021,None,,7,001,2025-12-17_15h05.53.213,2025C_exp1_comp,2022.2.4,60.003624219431245,
39.2,315,1,0,0,13,13,34,52.64950200000021,52.64950200000021,53.150543200001266,53.2171971000007,53.26750490000086,53.26750490000086,53.26750490000086,53.26750490000086,53.31733080000049,53.31733080000049,53.31733080000049,53.31733080000049,53.31733080000049,53.31733080000049,53.31733080000049,53.31733080000049,53.31733080000049,left,0.6055013000004692,53.950943000001644,53.950943000001644,None,,7,001,2025-12-17_15h05.53.213,2025C_exp1_comp,2022.2.4,60.003624219431245,
22.7,45,-1,1,0,14,14,39,53.950943000001644,53.950943000001644,54.45159450000028,54.518304800001715,54.56853930000034,54.56853930000034,54.56853930000034,54.56853930000034,54.61822300000131,54.61822300000131,54.61822300000131,54.61822300000131,54.61822300000131,54.61822300000131,54.61822300000131,54.61822300000131,54.61822300000131,right,0.5771882999997615,55.2189371000004,55.2189371000004,None,,7,001,2025-12-17_15h05.53.213,2025C_exp1_comp,2022.2.4,60.003624219431245,
22.7,45,1,-1,0,15,15,93,55.2189371000004,55.2189371000004,55.719478700000764,55.78611710000041,55.836454200001754,55.836454200001754,55.836454200001754,55.836454200001754,55.886297600000034,55.886297600000034,55.886297600000034,55.886297600000034,55.886297600000034,55.886297600000034,55.886297600000034,55.886297600000034,55.886297600000034,left,0.549389699999665,56.45369590000155,56.45369590000155,None,,7,001,2025-12-17_15h05.53.213,2025C_exp1_comp,2022.2.4,60.003624219431245,
29.4,315,-1,-1,0,16,16,86,56.45369590000155,56.45369590000155,56.95407570000134,57.0207532000004,57.071072700000514,57.071072700000514,57.071072700000514,57.071072700000514,57.12085280000065,57.12085280000065,57.12085280000065,57.12085280000065,57.12085280000065,57.12085280000065,57.12085280000065,57.12085280000065,57.12085280000065,right,0.593720699998812,57.73830090000047,57.73830090000047,None,,7,001,2025-12-17_15h05.53.213,2025C_exp1_comp,2022.2.4,60.003624219431245,
42.7,45,1,1,0,17,17,62,57.73830090000047,57.73830090000047,58.23852050000096,58.305358600000545,58.35573260000092,58.35573260000092,58.35573260000092,58.35573260000092,58.405362700001206,58.405362700001206,58.405362700001206,58.405362700001206,58.405362700001206,58.405362700001206,58.405362700001206,58.405362700001206,58.405362700001206,left,0.6130866000003152,59.03968810000151,59.03968810000151,None,,7,001,2025-12-17_15h05.53.213,2025C_exp1_comp,2022.2.4,60.003624219431245,
29.4,315,-1,0,0,18,18,14,59.03968810000151,59.03968810000151,59.53986100000111,59.606570800000554,59.65682560000096,59.65682560000096,59.65682560000096,59.65682560000096,59.70679780000137,59.70679780000137,59.70679780000137,59.70679780000137,59.70679780000137,59.70679780000137,59.70679780000137,59.70679780000137,59.70679780000137,left,0.6556977000000188,60.39072110000052,60.39072110000052,None,,7,001,2025-12-17_15h05.53.213,2025C_exp1_comp,2022.2.4,60.003624219431245,
35.3,315,-1,-1,0,19,19,87,60.39072110000052,60.39072110000052,60.891509700000825,60.95805980000114,61.007998100001714,61.007998100001714,61.007998100001714,61.007998100001714,61.05819070000143,61.05819070000143,61.05819070000143,61.05819070000143,61.05819070000143,61.05819070000143,61.05819070000143,61.05819070000143,61.05819070000143,right,0.5282141999996384,61.608621700001095,61.608621700001095,None,,7,001,2025-12-17_15h05.53.213,2025C_exp1_comp,2022.2.4,60.003624219431245,
39.2,45,1,1,0,20,20,61,61.608621700001095,61.608621700001095,62.109153600000354,62.17592160000095,62.22614180000164,62.22614180000164,62.22614180000164,62.22614180000164,62.275943700000425,62.275943700000425,62.275943700000425,62.275943700000425,62.275943700000425,62.275943700000425,62.275943700000425,62.275943700000425,62.275943700000425,left,0.5428964999991877,62.84335060000012,62.84335060000012,None,,7,001,2025-12-17_15h05.53.213,2025C_exp1_comp,2022.2.4,60.003624219431245,
39.2,315,1,1,0,21,21,70,62.84335060000012,62.84335060000012,63.34405720000177,63.41076090000024,63.46094730000004,63.46094730000004,63.46094730000004,63.46094730000004,63.51070460000119,63.51070460000119,63.51070460000119,63.51070460000119,63.51070460000119,63.51070460000119,63.51070460000119,63.51070460000119,63.51070460000119,right,0.5236168000010366,64.06122400000095,64.06122400000095,None,,7,001,2025-12-17_15h05.53.213,2025C_exp1_comp,2022.2.4,60.003624219431245,
15.7,45,-1,0,0,22,22,1,64.06122400000095,64.06122400000095,64.56158440000036,64.62840060000053,64.67862760000025,64.67862760000025,64.67862760000025,64.67862760000025,64.72840350000115,64.72840350000115,64.72840350000115,64.72840350000115,64.72840350000115,64.72840350000115,64.72840350000115,64.72840350000115,64.72840350000115,left,0.5629276999989088,65.31244780000088,65.31244780000088,None,,7,001,2025-12-17_15h05.53.213,2025C_exp1_comp,2022.2.4,60.003624219431245,
12.1,315,-1,-1,0,23,23,81,65.31244780000088,65.31244780000088,65.813051000001,65.87972350000018,65.93017940000027,65.93017940000027,65.93017940000027,65.93017940000027,65.97986070000115,65.97986070000115,65.97986070000115,65.97986070000115,65.97986070000115,65.97986070000115,65.97986070000115,65.97986070000115,65.97986070000115,right,0.5429394999991928,66.54700790000061,66.54700790000061,None,,7,001,2025-12-17_15h05.53.213,2025C_exp1_comp,2022.2.4,60.003624219431245,
12.1,315,1,1,0,24,24,63,66.54700790000061,66.54700790000061,67.04753380000147,67.11411600000065,67.16450580000128,67.16450580000128,67.16450580000128,67.16450580000128,67.2143558000007,67.2143558000007,67.2143558000007,67.2143558000007,67.2143558000007,67.2143558000007,67.2143558000007,67.2143558000007,67.2143558000007,left,0.549184299999979,67.781522700001,67.781522700001,None,,7,001,2025-12-17_15h05.53.213,2025C_exp1_comp,2022.2.4,60.003624219431245,
29.4,315,1,0,0,25,25,32,67.781522700001,67.781522700001,68.28203080000094,68.34875010000178,68.39905560000079,68.39905560000079,68.39905560000079,68.39905560000079,68.44872140000007,68.44872140000007,68.44872140000007,68.44872140000007,68.44872140000007,68.44872140000007,68.44872140000007,68.44872140000007,68.44872140000007,left,0.6192042999991827,69.0994711000003,69.0994711000003,None,,7,001,2025-12-17_15h05.53.213,2025C_exp1_comp,2022.2.4,60.003624219431245,
35.3,45,1,-1,0,26,26,96,69.0994711000003,69.0994711000003,69.59992190000048,69.66671459999998,69.71681430000172,69.71681430000172,69.71681430000172,69.71681430000172,69.76668960000097,69.76668960000097,69.76668960000097,69.76668960000097,69.76668960000097,69.76668960000097,69.76668960000097,69.76668960000097,69.76668960000097,left,0.6048986999994668,70.40079540000079,70.40079540000079,None,,7,001,2025-12-17_15h05.53.213,2025C_exp1_comp,2022.2.4,60.003624219431245,
25.5,315,-1,1,0,27,27,49,70.40079540000079,70.40079540000079,70.90133790000073,70.96801890000097,71.01805380000042,71.01805380000042,71.01805380000042,71.01805380000042,71.06797670000014,71.06797670000014,71.06797670000014,71.06797670000014,71.06797670000014,71.06797670000014,71.06797670000014,71.06797670000014,71.06797670000014,right,0.6391619999994873,71.73572030000105,71.73572030000105,None,,7,001,2025-12-17_15h05.53.213,2025C_exp1_comp,2022.2.4,60.003624219431245,
19.6,45,-1,0,0,28,28,2,71.73572030000105,71.73572030000105,72.23610820000067,72.30282000000079,72.35324160000164,72.35324160000164,72.35324160000164,72.35324160000164,72.40301770000042,72.40301770000042,72.40301770000042,72.40301770000042,72.40301770000042,72.40301770000042,72.40301770000042,72.40301770000042,72.40301770000042,left,0.7204325000002427,73.1535156000009,73.1535156000009,None,,7,001,2025-12-17_15h05.53.213,2025C_exp1_comp,2022.2.4,60.003624219431245,
12.1,315,1,0,0,29,29,27,73.1535156000009,73.1535156000009,73.65423070000179,73.72090450000178,73.77119890000176,73.77119890000176,73.77119890000176,73.77119890000176,73.82058200000029,73.82058200000029,73.82058200000029,73.82058200000029,73.82058200000029,73.82058200000029,73.82058200000029,73.82058200000029,73.82058200000029,left,0.5668800000003102,74.40488550000009,74.40488550000009,None,,7,001,2025-12-17_15h05.53.213,2025C_exp1_comp,2022.2.4,60.003624219431245,
42.7,315,-1,0,0,30,30,17,74.40488550000009,74.40488550000009,74.90502580000066,74.97171160000107,75.02203450000161,75.02203450000161,75.02203450000161,75.02203450000161,75.07236860000012,75.07236860000012,75.07236860000012,75.07236860000012,75.07236860000012,75.07236860000012,75.07236860000012,75.07236860000012,75.07236860000012,left,0.6258149000004778,75.72247700000116,75.72247700000116,None,,7,001,2025-12-17_15h05.53.213,2025C_exp1_comp,2022.2.4,60.003624219431245,
39.2,45,-1,-1,0,31,31,79,75.72247700000116,75.72247700000116,76.22298780000165,76.28999120000117,76.34001040000112,76.34001040000112,76.34001040000112,76.34001040000112,76.38983120000012,76.38983120000012,76.38983120000012,76.38983120000012,76.38983120000012,76.38983120000012,76.38983120000012,76.38983120000012,76.38983120000012,left,0.6604751999984728,77.07382880000114,77.07382880000114,None,,7,001,2025-12-17_15h05.53.213,2025C_exp1_comp,2022.2.4,60.003624219431245,
39.2,45,1,0,0,32,32,25,77.07382880000114,77.07382880000114,77.57465010000124,77.64107510000031,77.6918826000001,77.6918826000001,77.6918826000001,77.6918826000001,77.74171250000109,77.74171250000109,77.74171250000109,77.74171250000109,77.74171250000109,77.74171250000109,77.74171250000109,77.74171250000109,77.74171250000109,right,0.7735797000004823,78.54212960000041,78.54212960000041,None,,7,001,2025-12-17_15h05.53.213,2025C_exp1_comp,2022.2.4,60.003624219431245,
29.4,315,-1,1,0,33,33,50,78.54212960000041,78.54212960000041,79.04280380000091,79.10942990000149,79.1596642000004,79.1596642000004,79.1596642000004,79.1596642000004,79.20934990000023,79.20934990000023,79.20934990000023,79.20934990000023,79.20934990000023,79.20934990000023,79.20934990000023,79.20934990000023,79.20934990000023,right,0.6490618000007089,79.87692040000002,79.87692040000002,None,,7,001,2025-12-17_15h05.53.213,2025C_exp1_comp,2022.2.4,60.003624219431245,
29.4,45,-1,0,0,34,34,5,79.87692040000002,79.87692040000002,80.3774437000011,80.44408980000117,80.49445840000044,80.49445840000044,80.49445840000044,80.49445840000044,80.54423820000011,80.54423820000011,80.54423820000011,80.54423820000011,80.54423820000011,80.54423820000011,80.54423820000011,80.54423820000011,80.54423820000011,left,0.5307238000004872,81.09484350000093,81.09484350000093,None,,7,001,2025-12-17_15h05.53.213,2025C_exp1_comp,2022.2.4,60.003624219431245,
29.4,315,1,1,0,35,35,68,81.09484350000093,81.09484350000093,81.59520920000068,81.66192280000178,81.71233300000131,81.71233300000131,81.71233300000131,81.71233300000131,81.76189300000078,81.76189300000078,81.76189300000078,81.76189300000078,81.76189300000078,81.76189300000078,81.76189300000078,81.76189300000078,81.76189300000078,left,0.6005353999989893,82.37930560000132,82.37930560000132,None,,7,001,2025-12-17_15h05.53.213,2025C_exp1_comp,2022.2.4,60.003624219431245,
19.6,315,-1,1,0,36,36,47,82.37930560000132,82.37930560000132,82.8799250000011,82.94666680000046,82.99686610000026,82.99686610000026,82.99686610000026,82.99686610000026,83.04675120000138,83.04675120000138,83.04675120000138,83.04675120000138,83.04675120000138,83.04675120000138,83.04675120000138,83.04675120000138,83.04675120000138,left,0.5884887000011076,83.66417210000145,83.66417210000145,None,,7,001,2025-12-17_15h05.53.213,2025C_exp1_comp,2022.2.4,60.003624219431245,
12.1,45,-1,0,0,37,37,0,83.66417210000145,83.66417210000145,84.16430730000138,84.23143770000024,84.28182890000062,84.28182890000062,84.28182890000062,84.28182890000062,84.33151970000108,84.33151970000108,84.33151970000108,84.33151970000108,84.33151970000108,84.33151970000108,84.33151970000108,84.33151970000108,84.33151970000108,left,0.543541400000322,84.8988584000017,84.8988584000017,None,,7,001,2025-12-17_15h05.53.213,2025C_exp1_comp,2022.2.4,60.003624219431245,
12.1,315,1,-1,0,38,38,99,84.8988584000017,84.8988584000017,85.39935420000074,85.46611530000155,85.5163717000014,85.5163717000014,85.5163717000014,85.5163717000014,85.5661882000004,85.5661882000004,85.5661882000004,85.5661882000004,85.5661882000004,85.5661882000004,85.5661882000004,85.5661882000004,85.5661882000004,left,0.5642205999993166,86.1498743000011,86.1498743000011,None,,7,001,2025-12-17_15h05.53.213,2025C_exp1_comp,2022.2.4,60.003624219431245,
25.5,45,1,-1,0,39,39,94,86.1498743000011,86.1498743000011,86.65037670000129,86.71709300000111,86.76727510000092,86.76727510000092,86.76727510000092,86.76727510000092,86.8171927000003,86.8171927000003,86.8171927000003,86.8171927000003,86.8171927000003,86.8171927000003,86.8171927000003,86.8171927000003,86.8171927000003,left,0.609887799999342,87.45894510000107,87.45894510000107,None,,7,001,2025-12-17_15h05.53.213,2025C_exp1_comp,2022.2.4,60.003624219431245,
19.6,45,1,-1,0,40,40,92,87.45894510000107,87.45894510000107,87.95153480000045,88.01840910000101,88.06868520000171,88.06868520000171,88.06868520000171,88.06868520000171,88.11824090000118,88.11824090000118,88.11824090000118,88.11824090000118,88.11824090000118,88.11824090000118,88.13495950000106,88.13495950000106,88.13495950000106,left,0.7639088999985688,88.91931960000147,88.91931960000147,None,,7,001,2025-12-17_15h05.53.213,2025C_exp1_comp,2022.2.4,60.003624219431245,
12.1,45,-1,1,0,41,41,36,88.91931960000147,88.91931960000147,89.41971670000021,89.48652970000148,89.5366980000017,89.5366980000017,89.5366980000017,89.5366980000017,89.58649760000117,89.58649760000117,89.58649760000117,89.58649760000117,89.58649760000117,89.58649760000117,89.58649760000117,89.58649760000117,89.58649760000117,right,0.5284359999986918,90.13694240000041,90.13694240000041,None,,7,001,2025-12-17_15h05.53.213,2025C_exp1_comp,2022.2.4,60.003624219431245,
15.7,315,1,-1,0,42,42,100,90.13694240000041,90.13694240000041,90.63769350000075,90.70440670000062,90.75463570000102,90.75463570000102,90.75463570000102,90.75463570000102,90.80436720000034,90.80436720000034,90.80436720000034,90.80436720000034,90.80436720000034,90.80436720000034,90.80436720000034,90.80436720000034,90.80436720000034,right,0.783298599999398,91.60540190000029,91.60540190000029,None,,7,001,2025-12-17_15h05.53.213,2025C_exp1_comp,2022.2.4,60.003624219431245,
22.7,45,-1,0,0,43,43,3,91.60540190000029,91.60540190000029,92.10565970000061,92.17245120000007,92.22285630000079,92.22285630000079,92.22285630000079,92.22285630000079,92.27264020000075,92.27264020000075,92.27264020000075,92.27264020000075,92.27264020000075,92.27264020000075,92.27264020000075,92.27264020000075,92.27264020000075,left,0.6657988999995723,92.95669730000009,92.95669730000009,None,,7,001,2025-12-17_15h05.53.213,2025C_exp1_comp,2022.2.4,60.003624219431245,
29.4,45,-1,-1,0,44,44,77,92.95669730000009,92.95669730000009,93.4570347000008,93.52389230000153,93.57421240000076,93.57421240000076,93.57421240000076,93.57421240000076,93.62387490000037,93.62387490000037,93.62387490000037,93.62387490000037,93.62387490000037,93.62387490000037,93.62387490000037,93.62387490000037,93.62387490000037,right,0.7227180000008957,94.3747555000009,94.3747555000009,None,,7,001,2025-12-17_15h05.53.213,2025C_exp1_comp,2022.2.4,60.003624219431245,
15.7,315,1,0,0,45,45,28,94.3747555000009,94.3747555000009,94.87523020000117,94.94195750000108,94.99223290000009,94.99223290000009,94.99223290000009,94.99223290000009,95.04212240000015,95.04212240000015,95.04212240000015,95.04212240000015,95.04212240000015,95.04212240000015,95.04212240000015,95.04212240000015,95.04212240000015,left,0.6322651999998925,95.69258040000022,95.69258040000022,None,,7,001,2025-12-17_15h05.53.213,2025C_exp1_comp,2022.2.4,60.003624219431245,
25.5,315,1,-1,0,46,46,103,95.69258040000022,95.69258040000022,96.19340980000015,96.25974750000023,96.31008440000005,96.31008440000005,96.31008440000005,96.31008440000005,96.36004980000143,96.36004980000143,96.36004980000143,96.36004980000143,96.36004980000143,96.36004980000143,96.36004980000143,96.36004980000143,96.36004980000143,left,0.6024168000003556,96.99395500000173,96.99395500000173,None,,7,001,2025-12-17_15h05.53.213,2025C_exp1_comp,2022.2.4,60.003624219431245,
35.3,315,1,1,0,47,47,69,96.99395500000173,96.99395500000173,97.49441990000014,97.56126030000087,97.61158090000026,97.61158090000026,97.61158090000026,97.61158090000026,97.66135570000006,97.66135570000006,97.66135570000006,97.66135570000006,97.66135570000006,97.66135570000006,97.66135570000006,97.66135570000006,97.66135570000006,left,0.6933626999998523,98.37860250000085,98.37860250000085,None,,7,001,2025-12-17_15h05.53.213,2025C_exp1_comp,2022.2.4,60.003624219431245,
39.2,315,-1,0,0,48,48,16,98.37860250000085,98.37860250000085,98.87915850000172,98.94600090000131,98.99616630000128,98.99616630000128,98.99616630000128,98.99616630000128,99.04591670000082,99.04591670000082,99.04591670000082,99.04591670000082,99.04591670000082,99.04591670000082,99.04591670000082,99.04591670000082,99.04591670000082,left,0.6456842999996297,99.71342270000059,99.71342270000059,None,,7,001,2025-12-17_15h05.53.213,2025C_exp1_comp,2022.2.4,60.003624219431245,
39.2,315,-1,1,0,49,49,52,99.71342270000059,99.71342270000059,100.21393700000044,100.28053770000042,100.33077030000095,100.33077030000095,100.33077030000095,100.33077030000095,100.38077190000149,100.38077190000149,100.38077190000149,100.38077190000149,100.38077190000149,100.38077190000149,100.38077190000149,100.38077190000149,100.38077190000149,left,0.5505921999993006,100.94799270000112,100.94799270000112,None,,7,001,2025-12-17_15h05.53.213,2025C_exp1_comp,2022.2.4,60.003624219431245,
39.2,315,1,-1,0,50,50,106,100.94799270000112,100.94799270000112,101.44836410000062,101.51518320000105,101.56529720000071,101.56529720000071,101.56529720000071,101.56529720000071,101.61531410000134,101.61531410000134,101.61531410000134,101.61531410000134,101.61531410000134,101.61531410000134,101.61531410000134,101.61531410000134,101.61531410000134,right,0.5071957000000111,102.14914050000152,102.14914050000152,None,,7,001,2025-12-17_15h05.53.213,2025C_exp1_comp,2022.2.4,60.003624219431245,
39.2,45,-1,0,0,51,51,7,102.14914050000152,102.14914050000152,102.64968000000044,102.71637810000175,102.76670240000021,102.76670240000021,102.76670240000021,102.76670240000021,102.81634290000147,102.81634290000147,102.81634290000147,102.81634290000147,102.81634290000147,102.81634290000147,102.81634290000147,102.81634290000147,102.81634290000147,right,0.6272365000004356,103.46703070000149,103.46703070000149,None,,7,001,2025-12-17_15h05.53.213,2025C_exp1_comp,2022.2.4,60.003624219431245,
35.3,45,1,1,0,52,52,60,103.46703070000149,103.46703070000149,103.9676369000008,104.03437340000164,104.08469960000002,104.08469960000002,104.08469960000002,104.08469960000002,104.13436850000107,104.13436850000107,104.13436850000107,104.13436850000107,104.13436850000107,104.13436850000107,104.13436850000107,104.13436850000107,104.13436850000107,left,0.6527409999998781,104.81822420000026,104.81822420000026,None,,7,001,2025-12-17_15h05.53.213,2025C_exp1_comp,2022.2.4,60.003624219431245,
29.4,45,1,-1,0,53,53,95,104.81822420000026,104.81822420000026,105.31895980000081,105.38542880000023,105.43576870000106,105.43576870000106,105.43576870000106,105.43576870000106,105.48552000000018,105.48552000000018,105.48552000000018,105.48552000000018,105.48552000000018,105.48552000000018,105.48552000000018,105.48552000000018,105.48552000000018,right,0.653096000000005,106.16954690000057,106.16954690000057,None,,7,001,2025-12-17_15h05.53.213,2025C_exp1_comp,2022.2.4,60.003624219431245,
15.7,315,-1,1,0,54,54,46,106.16954690000057,106.16954690000057,106.67006440000114,106.73678570000084,106.78712460000133,106.78712460000133,106.78712460000133,106.78712460000133,106.83689260000028,106.83689260000028,106.83689260000028,106.83689260000028,106.83689260000028,106.83689260000028,106.83689260000028,106.83689260000028,106.83689260000028,right,0.5744720999991841,107.43816070000139,107.43816070000139,None,,7,001,2025-12-17_15h05.53.213,2025C_exp1_comp,2022.2.4,60.003624219431245,
25.5,45,-1,-1,0,55,55,76,107.43816070000139,107.43816070000139,107.93819180000173,108.00492210000084,108.05536910000046,108.05536910000046,108.05536910000046,108.05536910000046,108.10484860000179,108.10484860000179,108.10484860000179,108.10484860000179,108.10484860000179,108.10484860000179,108.10484860000179,108.10484860000179,108.10484860000179,right,0.6183120000005147,108.75584650000019,108.75584650000019,None,,7,001,2025-12-17_15h05.53.213,2025C_exp1_comp,2022.2.4,60.003624219431245,
19.6,315,1,-1,0,56,56,101,108.75584650000019,108.75584650000019,109.25632710000173,109.32314060000135,109.37345620000087,109.37345620000087,109.37345620000087,109.37345620000087,109.42313130000002,109.42313130000002,109.42313130000002,109.42313130000002,109.42313130000002,109.42313130000002,109.42313130000002,109.42313130000002,109.42313130000002,left,0.5958492000008846,110.04007570000067,110.04007570000067,None,,7,001,2025-12-17_15h05.53.213,2025C_exp1_comp,2022.2.4,60.003624219431245,
19.6,45,-1,-1,0,57,57,74,110.04007570000067,110.04007570000067,110.5409178000009,110.60760570000093,110.65805790000013,110.65805790000013,110.65805790000013,110.65805790000013,110.70786620000035,110.70786620000035,110.70786620000035,110.70786620000035,110.70786620000035,110.70786620000035,110.70786620000035,110.70786620000035,110.70786620000035,right,0.5428162999996857,111.2749659000001,111.2749659000001,None,,7,001,2025-12-17_15h05.53.213,2025C_exp1_comp,2022.2.4,60.003624219431245,
15.7,315,-1,-1,0,58,58,82,111.2749659000001,111.2749659000001,111.77531720000115,111.84218450000117,111.89247770000111,111.89247770000111,111.89247770000111,111.89247770000111,111.94219590000102,111.94219590000102,111.94219590000102,111.94219590000102,111.94219590000102,111.94219590000102,111.94219590000102,111.94219590000102,111.94219590000102,right,0.5884937999999238,112.55949130000045,112.55949130000045,None,,7,001,2025-12-17_15h05.53.213,2025C_exp1_comp,2022.2.4,60.003624219431245,
22.7,315,-1,0,0,59,59,12,112.55949130000045,112.55949130000045,113.06008290000136,113.12681420000081,113.1769656000015,113.1769656000015,113.1769656000015,113.1769656000015,113.22674330000154,113.22674330000154,113.22674330000154,113.22674330000154,113.22674330000154,113.22674330000154,113.22674330000154,113.22674330000154,113.22674330000154,right,0.5685445999988588,113.82759310000074,113.82759310000074,None,,7,001,2025-12-17_15h05.53.213,2025C_exp1_comp,2022.2.4,60.003624219431245,
19.6,45,1,0,0,60,60,20,113.82759310000074,113.82759310000074,114.32812060000106,114.39457590000166,114.44473240000116,114.44473240000116,114.44473240000116,114.44473240000116,114.49484200000006,114.49484200000006,114.49484200000006,114.49484200000006,114.49484200000006,114.49484200000006,114.49484200000006,114.49484200000006,114.49484200000006,left,0.5316679000006843,115.04517380000107,115.04517380000107,None,,7,001,2025-12-17_15h05.53.213,2025C_exp1_comp,2022.2.4,60.003624219431245,
15.7,45,-1,1,0,61,61,37,115.04517380000107,115.04517380000107,115.5458888000012,115.61264290000145,115.66290630000003,115.66290630000003,115.66290630000003,115.66290630000003,115.71269870000106,115.71269870000106,115.71269870000106,115.71269870000106,115.71269870000106,115.71269870000106,115.71269870000106,115.71269870000106,115.71269870000106,right,0.4902236999987508,116.2299219000015,116.2299219000015,None,,7,001,2025-12-17_15h05.53.213,2025C_exp1_comp,2022.2.4,60.003624219431245,
22.7,315,1,-1,0,62,62,102,116.2299219000015,116.2299219000015,116.73041030000059,116.79713370000172,116.84727040000143,116.84727040000143,116.84727040000143,116.84727040000143,116.89708810000047,116.89708810000047,116.89708810000047,116.89708810000047,116.89708810000047,116.89708810000047,116.89708810000047,116.89708810000047,116.89708810000047,left,0.5936227000001963,117.5145966,117.5145966,None,,7,001,2025-12-17_15h05.53.213,2025C_exp1_comp,2022.2.4,60.003624219431245,
25.5,45,1,1,0,63,63,58,117.5145966,117.5145966,118.01507300000048,118.08170410000093,118.13186190000124,118.13186190000124,118.13186190000124,118.13186190000124,118.18158270000094,118.18158270000094,118.18158270000094,118.18158270000094,118.18158270000094,118.18158270000094,118.18158270000094,118.18158270000094,118.18158270000094,right,0.573944499999925,118.78253210000003,118.78253210000003,None,,7,001,2025-12-17_15h05.53.213,2025C_exp1_comp,2022.2.4,60.003624219431245,
19.6,45,1,1,0,64,64,56,118.78253210000003,118.78253210000003,119.2828126000004,119.3495855000001,119.39994170000136,119.39994170000136,119.39994170000136,119.39994170000136,119.44966660000136,119.44966660000136,119.44966660000136,119.44966660000136,119.44966660000136,119.44966660000136,119.44966660000136,119.44966660000136,119.44966660000136,left,0.5616353000004892,120.03369230000135,120.03369230000135,None,,7,001,2025-12-17_15h05.53.213,2025C_exp1_comp,2022.2.4,60.003624219431245,
29.4,315,1,-1,0,65,65,104,120.03369230000135,120.03369230000135,120.53409790000114,120.60094540000136,120.65095240000119,120.65095240000119,120.65095240000119,120.65095240000119,120.70089930000177,120.70089930000177,120.70089930000177,120.70089930000177,120.70089930000177,120.70089930000177,120.70089930000177,120.70089930000177,120.70089930000177,left,0.5014979000006861,121.23461680000037,121.23461680000037,None,,7,001,2025-12-17_15h05.53.213,2025C_exp1_comp,2022.2.4,60.003624219431245,
42.7,45,-1,1,0,66,66,44,121.23461680000037,121.23461680000037,121.73543660000178,121.8021344000008,121.85242300000027,121.85242300000027,121.85242300000027,121.85242300000027,121.90224260000105,121.90224260000105,121.90224260000105,121.90224260000105,121.90224260000105,121.90224260000105,121.90224260000105,121.90224260000105,121.90224260000105,right,0.5010084000005008,122.43613190000178,122.43613190000178,None,,7,001,2025-12-17_15h05.53.213,2025C_exp1_comp,2022.2.4,60.003624219431245,
42.7,315,1,0,0,67,67,35,122.43613190000178,122.43613190000178,122.93661229999998,123.00337310000032,123.05381560000023,123.05381560000023,123.05381560000023,123.05381560000023,123.10343550000107,123.10343550000107,123.10343550000107,123.10343550000107,123.10343550000107,123.10343550000107,123.10343550000107,123.10343550000107,123.10343550000107,left,0.6284531999990577,123.75419120000151,123.75419120000151,None,,7,001,2025-12-17_15h05.53.213,2025C_exp1_comp,2022.2.4,60.003624219431245,
19.6,315,1,1,0,68,68,65,123.75419120000151,123.75419120000151,124.25447610000083,124.32131860000118,124.37163510000028,124.37163510000028,124.37163510000028,124.37163510000028,124.4214176000005,124.4214176000005,124.4214176000005,124.4214176000005,124.4214176000005,124.4214176000005,124.4214176000005,124.4214176000005,124.4214176000005,left,0.5423176000003878,124.98865050000131,124.98865050000131,None,,7,001,2025-12-17_15h05.53.213,2025C_exp1_comp,2022.2.4,60.003624219431245,
25.5,45,1,0,0,69,69,22,124.98865050000131,124.98865050000131,125.4890890000006,125.55586940000103,125.60618850000174,125.60618850000174,125.60618850000174,125.60618850000174,125.65598070000124,125.65598070000124,125.65598070000124,125.65598070000124,125.65598070000124,125.65598070000124,125.65598070000124,125.65598070000124,125.65598070000124,left,0.507664200000363,126.18982910000159,126.18982910000159,None,,7,001,2025-12-17_15h05.53.213,2025C_exp1_comp,2022.2.4,60.003624219431245,
15.7,45,1,1,0,70,70,55,126.18982910000159,126.18982910000159,126.69039490000068,126.75709670000106,126.80726060000052,126.80726060000052,126.80726060000052,126.80726060000052,126.85706210000171,126.85706210000171,126.85706210000171,126.85706210000171,126.85706210000171,126.85706210000171,126.85706210000171,126.85706210000171,126.85706210000171,right,0.5626305000005232,127.44112020000102,127.44112020000102,None,,7,001,2025-12-17_15h05.53.213,2025C_exp1_comp,2022.2.4,60.003624219431245,
35.3,45,1,0,0,71,71,24,127.44112020000102,127.44112020000102,127.94164820000151,128.00836250000066,128.05861280000136,128.05861280000136,128.05861280000136,128.05861280000136,128.10844460000044,128.10844460000044,128.10844460000044,128.10844460000044,128.10844460000044,128.10844460000044,128.10844460000044,128.10844460000044,128.10844460000044,left,0.422768399999768,128.5588856000013,128.5588856000013,None,,7,001,2025-12-17_15h05.53.213,2025C_exp1_comp,2022.2.4,60.003624219431245,
22.7,315,-1,1,0,72,72,48,128.5588856000013,128.5588856000013,129.05940360000022,129.12612920000174,129.17641730000105,129.17641730000105,129.17641730000105,129.17641730000105,129.22620690000076,129.22620690000076,129.22620690000076,129.22620690000076,129.22620690000076,129.22620690000076,129.22620690000076,129.22620690000076,129.22620690000076,right,0.5295164999988629,129.77702740000132,129.77702740000132,None,,7,001,2025-12-17_15h05.53.213,2025C_exp1_comp,2022.2.4,60.003624219431245,
35.3,45,-1,1,0,73,73,42,129.77702740000132,129.77702740000132,130.27755350000007,130.34424870000112,130.39449160000004,130.39449160000004,130.39449160000004,130.39449160000004,130.44423820000156,130.44423820000156,130.44423820000156,130.44423820000156,130.44423820000156,130.44423820000156,130.44423820000156,130.44423820000156,130.44423820000156,left,0.5665179999996326,131.02784050000082,131.02784050000082,None,,7,001,2025-12-17_15h05.53.213,2025C_exp1_comp,2022.2.4,60.003624219431245,
25.5,45,-1,1,0,74,74,40,131.02784050000082,131.02784050000082,131.5285212000017,131.59509250000156,131.6454618000007,131.6454618000007,131.6454618000007,131.6454618000007,131.69504430000052,131.69504430000052,131.69504430000052,131.69504430000052,131.69504430000052,131.69504430000052,131.69504430000052,131.69504430000052,131.69504430000052,right,0.4992972000000009,132.2124801000009,132.2124801000009,None,,7,001,2025-12-17_15h05.53.213,2025C_exp1_comp,2022.2.4,60.003624219431245,
22.7,315,1,1,0,75,75,66,132.2124801000009,132.2124801000009,132.71307460000025,132.7798285000008,132.83009050000146,132.83009050000146,132.83009050000146,132.83009050000146,132.87976770000023,132.87976770000023,132.87976770000023,132.87976770000023,132.87976770000023,132.87976770000023,132.87976770000023,132.87976770000023,132.87976770000023,left,0.4437964999997348,133.3470352000004,133.3470352000004,None,,7,001,2025-12-17_15h05.53.213,2025C_exp1_comp,2022.2.4,60.003624219431245,
19.6,45,-1,1,0,76,76,38,133.3470352000004,133.3470352000004,133.8476397000013,133.9142511000009,133.9645367000012,133.9645367000012,133.9645367000012,133.9645367000012,134.01434830000107,134.01434830000107,134.01434830000107,134.01434830000107,134.01434830000107,134.01434830000107,134.01434830000107,134.01434830000107,134.01434830000107,right,0.4371541000000434,134.4815004000011,134.4815004000011,None,,7,001,2025-12-17_15h05.53.213,2025C_exp1_comp,2022.2.4,60.003624219431245,
19.6,315,-1,0,0,77,77,11,134.4815004000011,134.4815004000011,134.98168050000095,135.04841340000166,135.09869810000055,135.09869810000055,135.09869810000055,135.09869810000055,135.14850260000094,135.14850260000094,135.14850260000094,135.14850260000094,135.14850260000094,135.14850260000094,135.14850260000094,135.14850260000094,135.14850260000094,right,0.4781686999995145,135.6489881000016,135.6489881000016,None,,7,001,2025-12-17_15h05.53.213,2025C_exp1_comp,2022.2.4,60.003624219431245,
15.7,315,-1,0,0,78,78,10,135.6489881000016,135.6489881000016,136.14954430000034,136.21781250000095,136.26653260000057,136.26653260000057,136.26653260000057,136.26653260000057,136.31636130000152,136.31636130000152,136.31636130000152,136.31636130000152,136.31636130000152,136.31636130000152,136.31636130000152,136.31636130000152,136.31636130000152,right,0.45410609999998996,136.80053600000065,136.80053600000065,None,,7,001,2025-12-17_15h05.53.213,2025C_exp1_comp,2022.2.4,60.003624219431245,
12.1,45,-1,-1,0,79,79,72,136.80053600000065,136.80053600000065,137.30123360000107,137.36797770000157,137.4182800000017,137.4182800000017,137.4182800000017,137.4182800000017,137.46789700000045,137.46789700000045,137.46789700000045,137.46789700000045,137.46789700000045,137.46789700000045,137.46789700000045,137.46789700000045,137.46789700000045,right,0.4630794999993668,137.9513568000002,137.9513568000002,None,,7,001,2025-12-17_15h05.53.213,2025C_exp1_comp,2022.2.4,60.003624219431245,
29.4,45,1,1,0,80,80,59,137.9513568000002,137.9513568000002,138.45213180000064,138.51868970000032,138.56912750000083,138.56912750000083,138.56912750000083,138.56912750000083,138.61892740000076,138.61892740000076,138.61892740000076,138.61892740000076,138.61892740000076,138.61892740000076,138.61892740000076,138.61892740000076,138.61892740000076,left,0.48030020000078366,139.1192542000008,139.1192542000008,None,,7,001,2025-12-17_15h05.53.213,2025C_exp1_comp,2022.2.4,60.003624219431245,
12.1,45,1,-1,0,81,81,90,139.1192542000008,139.1192542000008,139.62009220000073,139.6868056000003,139.73711260000164,139.73711260000164,139.73711260000164,139.73711260000164,139.78678280000167,139.78678280000167,139.78678280000167,139.78678280000167,139.78678280000167,139.78678280000167,139.78678280000167,139.78678280000167,139.78678280000167,left,0.45589730000028794,140.27061160000085,140.27061160000085,None,,7,001,2025-12-17_15h05.53.213,2025C_exp1_comp,2022.2.4,60.003624219431245,
25.5,315,1,1,0,82,82,67,140.27061160000085,140.27061160000085,140.7711861000007,140.83785030000035,140.88826580000023,140.88826580000023,140.88826580000023,140.88826580000023,140.93794590000107,140.93794590000107,140.93794590000107,140.93794590000107,140.93794590000107,140.93794590000107,140.93794590000107,140.93794590000107,140.93794590000107,left,0.5605349999987084,141.52192080000168,141.52192080000168,None,,7,001,2025-12-17_15h05.53.213,2025C_exp1_comp,2022.2.4,60.003624219431245,
39.2,45,1,-1,0,83,83,97,141.52192080000168,141.52192080000168,142.0223420000002,142.08879040000102,142.13952240000071,142.13952240000071,142.13952240000071,142.13952240000071,142.18931750000047,142.18931750000047,142.18931750000047,142.18931750000047,142.18931750000047,142.18931750000047,142.18931750000047,142.18931750000047,142.18931750000047,left,0.5337954999995418,142.73998630000096,142.73998630000096,None,,7,001,2025-12-17_15h05.53.213,2025C_exp1_comp,2022.2.4,60.003624219431245,
42.7,45,-1,-1,0,84,84,80,142.73998630000096,142.73998630000096,143.24024380000083,143.3069927000015,143.35730330000115,143.35730330000115,143.35730330000115,143.35730330000115,143.4070741000014,143.4070741000014,143.4070741000014,143.4070741000014,143.4070741000014,143.4070741000014,143.4070741000014,143.4070741000014,143.4070741000014,left,0.5720070000006672,144.00770250000096,144.00770250000096,None,,7,001,2025-12-17_15h05.53.213,2025C_exp1_comp,2022.2.4,60.003624219431245,
15.7,45,1,-1,0,85,85,91,144.00770250000096,144.00770250000096,144.50818310000068,144.57480329999999,144.62522340000032,144.62522340000032,144.62522340000032,144.62522340000032,144.6746869000017,144.6746869000017,144.6746869000017,144.6746869000017,144.6746869000017,144.6746869000017,144.6746869000017,144.6746869000017,144.6746869000017,left,0.5287338999987696,145.22539900000083,145.22539900000083,None,,7,001,2025-12-17_15h05.53.213,2025C_exp1_comp,2022.2.4,60.003624219431245,
35.3,315,-1,1,0,86,86,51,145.22539900000083,145.22539900000083,145.726063600001,145.79277130000082,145.84309200000098,145.84309200000098,145.84309200000098,145.84309200000098,145.89271270000063,145.89271270000063,145.89271270000063,145.89271270000063,145.89271270000063,145.89271270000063,145.89271270000063,145.89271270000063,145.89271270000063,right,0.7501191999999719,146.6605496000011,146.6605496000011,None,,7,001,2025-12-17_15h05.53.213,2025C_exp1_comp,2022.2.4,60.003624219431245,
35.3,315,-1,0,0,87,87,15,146.6605496000011,146.6605496000011,147.16096410000137,147.2275042000001,147.27780610000082,147.27780610000082,147.27780610000082,147.27780610000082,147.32763270000032,147.32763270000032,147.32763270000032,147.32763270000032,147.32763270000032,147.32763270000032,147.32763270000032,147.32763270000032,147.32763270000032,left,0.547876599999654,147.89484730000004,147.89484730000004,None,,7,001,2025-12-17_15h05.53.213,2025C_exp1_comp,2022.2.4,60.003624219431245,
25.5,315,1,0,0,88,88,31,147.89484730000004,147.89484730000004,148.39538370000082,148.46208380000098,148.5123796000007,148.5123796000007,148.5123796000007,148.5123796000007,148.56220500000018,148.56220500000018,148.56220500000018,148.56220500000018,148.56220500000018,148.56220500000018,148.56220500000018,148.56220500000018,148.56220500000018,left,0.561234400000103,149.1460085000017,149.1460085000017,None,,7,001,2025-12-17_15h05.53.213,2025C_exp1_comp,2022.2.4,60.003624219431245,
25.5,45,-1,0,0,89,89,4,149.1460085000017,149.1460085000017,149.64662770000177,149.7133554000011,149.76377970000067,149.76377970000067,149.76377970000067,149.76377970000067,149.81350610000118,149.81350610000118,149.81350610000118,149.81350610000118,149.81350610000118,149.81350610000118,149.81350610000118,149.81350610000118,149.81350610000118,left,0.5815177000004041,150.41390460000002,150.41390460000002,None,,7,001,2025-12-17_15h05.53.213,2025C_exp1_comp,2022.2.4,60.003624219431245,
42.7,315,-1,-1,0,90,90,89,150.41390460000002,150.41390460000002,150.91455120000137,150.98126910000065,151.0315859000002,151.0315859000002,151.0315859000002,151.0315859000002,151.08143270000073,151.08143270000073,151.08143270000073,151.08143270000073,151.08143270000073,151.08143270000073,151.08143270000073,151.08143270000073,151.08143270000073,left,0.5942076999999699,151.6985394000003,151.6985394000003,None,,7,001,2025-12-17_15h05.53.213,2025C_exp1_comp,2022.2.4,60.003624219431245,
42.7,315,1,1,0,91,91,71,151.6985394000003,151.6985394000003,152.19902750000074,152.2658850000007,152.31618640000124,152.31618640000124,152.31618640000124,152.31618640000124,152.3658600000017,152.3658600000017,152.3658600000017,152.3658600000017,152.3658600000017,152.3658600000017,152.3658600000017,152.3658600000017,152.3658600000017,right,0.5256750999997166,152.9165021000008,152.9165021000008,None,,7,001,2025-12-17_15h05.53.213,2025C_exp1_comp,2022.2.4,60.003624219431245,
35.3,315,1,0,0,92,92,33,152.9165021000008,152.9165021000008,153.41706460000023,153.48365740000008,153.53407250000055,153.53407250000055,153.53407250000055,153.53407250000055,153.5838906000008,153.5838906000008,153.5838906000008,153.5838906000008,153.5838906000008,153.5838906000008,153.5838906000008,153.5838906000008,153.5838906000008,right,0.53953299999921,154.1511328000015,154.1511328000015,None,,7,001,2025-12-17_15h05.53.213,2025C_exp1_comp,2022.2.4,60.003624219431245,
19.6,315,1,0,0,93,93,29,154.1511328000015,154.1511328000015,154.6516210000009,154.71831900000143,154.7683659000013,154.7683659000013,154.7683659000013,154.7683659000013,154.8183639000017,154.8183639000017,154.8183639000017,154.8183639000017,154.8183639000017,154.8183639000017,154.8183639000017,154.8183639000017,154.8183639000017,left,0.433085900000151,155.26912020000054,155.26912020000054,None,,7,001,2025-12-17_15h05.53.213,2025C_exp1_comp,2022.2.4,60.003624219431245,
29.4,45,1,0,0,94,94,23,155.26912020000054,155.26912020000054,155.76970880000044,155.836411100001,155.88669560000017,155.88669560000017,155.88669560000017,155.88669560000017,155.93637490000037,155.93637490000037,155.93637490000037,155.93637490000037,155.93637490000037,155.93637490000037,155.93637490000037,155.93637490000037,155.93637490000037,left,0.46690080000007583,156.42034070000045,156.42034070000045,None,,7,001,2025-12-17_15h05.53.213,2025C_exp1_comp,2022.2.4,60.003624219431245,
12.1,45,1,0,0,95,95,18,156.42034070000045,156.42034070000045,156.9207210000004,156.9871148000002,157.03758850000122,157.03758850000122,157.03758850000122,157.03758850000122,157.0873861,157.0873861,157.0873861,157.0873861,157.0873861,157.0873861,157.0873861,157.0873861,157.0873861,left,0.41877480000039213,157.53786610000134,157.53786610000134,None,,7,001,2025-12-17_15h05.53.213,2025C_exp1_comp,2022.2.4,60.003624219431245,
22.7,315,-1,-1,0,96,96,84,157.53786610000134,157.53786610000134,158.03834070000084,158.10492890000023,158.15536020000036,158.15536020000036,158.15536020000036,158.15536020000036,158.20514730000104,158.20514730000104,158.20514730000104,158.20514730000104,158.20514730000104,158.20514730000104,158.20514730000104,158.20514730000104,158.20514730000104,right,0.5894465999990643,158.82258150000052,158.82258150000052,None,,7,001,2025-12-17_15h05.53.213,2025C_exp1_comp,2022.2.4,60.003624219431245,
19.6,315,-1,-1,0,97,97,83,158.82258150000052,158.82258150000052,159.3228476000004,159.3895831000009,159.43986270000096,159.43986270000096,159.43986270000096,159.43986270000096,159.48951170000146,159.48951170000146,159.48951170000146,159.48951170000146,159.48951170000146,159.48951170000146,159.48951170000146,159.48951170000146,159.48951170000146,right,0.48111320000134583,159.99014740000166,159.99014740000166,None,,7,001,2025-12-17_15h05.53.213,2025C_exp1_comp,2022.2.4,60.003624219431245,
22.7,45,-1,-1,0,98,98,75,159.99014740000166,159.99014740000166,160.49078500000178,160.55751750000127,160.6077862000002,160.6077862000002,160.6077862000002,160.6077862000002,160.65753940000104,160.65753940000104,160.65753940000104,160.65753940000104,160.65753940000104,160.65753940000104,160.65753940000104,160.65753940000104,160.65753940000104,right,0.4897337000002153,161.17467570000008,161.17467570000008,None,,7,001,2025-12-17_15h05.53.213,2025C_exp1_comp,2022.2.4,60.003624219431245,
15.7,45,1,0,0,99,99,19,161.17467570000008,161.17467570000008,161.6753256000011,161.7420277000001,161.79257990000042,161.79257990000042,161.79257990000042,161.79257990000042,161.84228150000126,161.84228150000126,161.84228150000126,161.84228150000126,161.84228150000126,161.84228150000126,161.84228150000126,161.84228150000126,161.84228150000126,left,0.4895859999996901,162.35946240000158,162.35946240000158,None,,7,001,2025-12-17_15h05.53.213,2025C_exp1_comp,2022.2.4,60.003624219431245,
12.1,315,-1,0,0,100,100,9,162.35946240000158,162.35946240000158,162.8595634000012,162.92650560000038,162.97703470000124,162.97703470000124,162.97703470000124,162.97703470000124,163.02686970000104,163.02686970000104,163.02686970000104,163.02686970000104,163.02686970000104,163.02686970000104,163.02686970000104,163.02686970000104,163.02686970000104,right,0.4959296999986691,163.54410730000018,163.54410730000018,None,,7,001,2025-12-17_15h05.53.213,2025C_exp1_comp,2022.2.4,60.003624219431245,
39.2,45,-1,1,0,101,101,43,163.54410730000018,163.54410730000018,164.04462560000138,164.11136820000138,164.16161000000102,164.16161000000102,164.16161000000102,164.16161000000102,164.21139760000005,164.21139760000005,164.21139760000005,164.21139760000005,164.21139760000005,164.21139760000005,164.21139760000005,164.21139760000005,164.21139760000005,left,0.5276054999994813,164.76147000000128,164.76147000000128,None,,7,001,2025-12-17_15h05.53.213,2025C_exp1_comp,2022.2.4,60.003624219431245,
25.5,315,-1,0,0,102,102,13,164.76147000000128,164.76147000000128,165.26194620000024,165.32863780000116,165.37892880000072,165.37892880000072,165.37892880000072,165.37892880000072,165.42874160000065,165.42874160000065,165.42874160000065,165.42874160000065,165.42874160000065,165.42874160000065,165.42874160000065,165.42874160000065,165.42874160000065,right,0.5340184999986377,165.97929470000054,165.97929470000054,None,,7,001,2025-12-17_15h05.53.213,2025C_exp1_comp,2022.2.4,60.003624219431245,
12.1,315,-1,1,0,103,103,45,165.97929470000054,165.97929470000054,166.47980200000165,166.5465365,166.596868300001,166.596868300001,166.596868300001,166.596868300001,166.6466332,166.6466332,166.6466332,166.6466332,166.6466332,166.6466332,166.6466332,166.6466332,166.6466332,right,0.46008980000078736,167.1308465000002,167.1308465000002,None,,7,001,2025-12-17_15h05.53.213,2025C_exp1_comp,2022.2.4,60.003624219431245,
42.7,45,-1,0,0,104,104,8,167.1308465000002,167.1308465000002,167.63106440000047,167.6978734000004,167.7482327000016,167.7482327000016,167.7482327000016,167.7482327000016,167.7980821000001,167.7980821000001,167.7980821000001,167.7980821000001,167.7980821000001,167.7980821000001,167.7980821000001,167.7980821000001,167.7980821000001,left,0.5168444999999338,168.33165140000165,168.33165140000165,None,,7,001,2025-12-17_15h05.53.213,2025C_exp1_comp,2022.2.4,60.003624219431245,
42.7,45,1,0,0,105,105,26,168.33165140000165,168.33165140000165,168.8324080000002,168.8991915000006,168.94949690000067,168.94949690000067,168.94949690000067,168.94949690000067,168.9993056000003,168.9993056000003,168.9993056000003,168.9993056000003,168.9993056000003,168.9993056000003,168.9993056000003,168.9993056000003,168.9993056000003,right,0.4437163000002329,169.4664741000015,169.4664741000015,None,,7,001,2025-12-17_15h05.53.213,2025C_exp1_comp,2022.2.4,60.003624219431245,
35.3,315,1,-1,0,106,106,105,169.4664741000015,169.4664741000015,169.96672510000099,170.0333279000006,170.0836330000002,170.0836330000002,170.0836330000002,170.0836330000002,170.1334577000016,170.1334577000016,170.1334577000016,170.1334577000016,170.1334577000016,170.1334577000016,170.1334577000016,170.1334577000016,170.1334577000016,right,0.48550780000005034,170.651234500001,170.651234500001,None,,7,001,2025-12-17_15h05.53.213,2025C_exp1_comp,2022.2.4,60.003624219431245,
25.5,315,-1,-1,0,107,107,85,170.651234500001,170.651234500001,171.15150060000087,171.21827610000037,171.2686966000001,171.2686966000001,171.2686966000001,171.2686966000001,171.3183267000004,171.3183267000004,171.3183267000004,171.3183267000004,171.3183267000004,171.3183267000004,171.3183267000004,171.3183267000004,171.3183267000004,left,0.40465369999947143,171.7518596000009,171.7518596000009,space,57.78612280000016,7,001,2025-12-17_15h05.53.213,2025C_exp1_comp,2022.2.4,60.003624219431245,
22.7,45,1,-1,1,0,108,93,229.55948050000006,229.55948050000006,230.0599654000016,230.126721300001,230.17701800000032,230.17701800000032,230.17701800000032,230.17701800000032,230.22692730000017,230.22692730000017,230.22692730000017,230.22692730000017,230.22692730000017,230.22692730000017,230.22692730000017,230.22692730000017,230.22692730000017,left,0.6880902999982936,230.9443280000014,230.9443280000014,None,,7,001,2025-12-17_15h05.53.213,2025C_exp1_comp,2022.2.4,60.003624219431245,
25.5,45,-1,1,1,1,109,40,230.9443280000014,230.9443280000014,231.44467460000124,231.51139350000085,231.56174290000126,231.56174290000126,231.56174290000126,231.56174290000126,231.6115105000008,231.6115105000008,231.6115105000008,231.6115105000008,231.6115105000008,231.6115105000008,231.6115105000008,231.6115105000008,231.6115105000008,right,0.4548564999986411,232.0953025000017,232.0953025000017,None,,7,001,2025-12-17_15h05.53.213,2025C_exp1_comp,2022.2.4,60.003624219431245,
25.5,315,-1,1,1,2,110,49,232.0953025000017,232.0953025000017,232.59582480000063,232.66261080000004,232.71283660000154,232.71283660000154,232.71283660000154,232.71283660000154,232.76264179999998,232.76264179999998,232.76264179999998,232.76264179999998,232.76264179999998,232.76264179999998,232.76264179999998,232.76264179999998,232.76264179999998,right,0.47976810000000114,233.26349180000034,233.26349180000034,None,,7,001,2025-12-17_15h05.53.213,2025C_exp1_comp,2022.2.4,60.003624219431245,
15.7,315,-1,1,1,3,111,46,233.26349180000034,233.26349180000034,233.76377670000147,233.83042770000066,233.88075400000162,233.88075400000162,233.88075400000162,233.88075400000162,233.93051320000086,233.93051320000086,233.93051320000086,233.93051320000086,233.93051320000086,233.93051320000086,233.93051320000086,233.93051320000086,233.93051320000086,right,0.5040143000005628,234.46435080000083,234.46435080000083,None,,7,001,2025-12-17_15h05.53.213,2025C_exp1_comp,2022.2.4,60.003624219431245,
15.7,315,-1,-1,1,4,112,82,234.46435080000083,234.46435080000083,234.96486750000076,235.03161480000017,235.08187400000133,235.08187400000133,235.08187400000133,235.08187400000133,235.13194600000134,235.13194600000134,235.13194600000134,235.13194600000134,235.13194600000134,235.13194600000134,235.13194600000134,235.13194600000134,235.13194600000134,right,0.47911000000021886,235.63218100000086,235.63218100000086,None,,7,001,2025-12-17_15h05.53.213,2025C_exp1_comp,2022.2.4,60.003624219431245,
15.7,45,-1,0,1,5,113,1,235.63218100000086,235.63218100000086,236.1327250000013,236.19940160000078,236.2496841000011,236.2496841000011,236.2496841000011,236.2496841000011,236.29950910000116,236.29950910000116,236.29950910000116,236.29950910000116,236.29950910000116,236.29950910000116,236.29950910000116,236.29950910000116,236.29950910000116,right,0.5185342000004312,236.85013860000072,236.85013860000072,None,,7,001,2025-12-17_15h05.53.213,2025C_exp1_comp,2022.2.4,60.003624219431245,
29.4,315,1,1,1,6,114,68,236.85013860000072,236.85013860000072,237.3505692000017,237.41731840000102,237.4675958000007,237.4675958000007,237.4675958000007,237.4675958000007,237.5173992,237.5173992,237.5173992,237.5173992,237.5173992,237.5173992,237.5173992,237.5173992,237.5173992,left,0.47765699999945355,238.01930430000175,238.01930430000175,None,,7,001,2025-12-17_15h05.53.213,2025C_exp1_comp,2022.2.4,60.003624219431245,
35.3,315,1,1,1,7,115,69,238.01930430000175,238.01930430000175,238.5184859000001,238.58511570000155,238.63543260000006,238.63543260000006,238.63543260000006,238.63543260000006,238.68522350000057,238.68522350000057,238.68522350000057,238.68522350000057,238.68522350000057,238.68522350000057,238.68522350000057,238.68522350000057,238.68522350000057,right,0.4614885000009963,239.16907620000165,239.16907620000165,None,,7,001,2025-12-17_15h05.53.213,2025C_exp1_comp,2022.2.4,60.003624219431245,
15.7,315,1,-1,1,8,116,100,239.16907620000165,239.16907620000165,239.6695621000017,239.73626990000048,239.78668590000052,239.78668590000052,239.78668590000052,239.78668590000052,239.83637010000166,239.83637010000166,239.83637010000166,239.83637010000166,239.83637010000166,239.83637010000166,239.83637010000166,239.83637010000166,239.83637010000166,left,0.5344898000003013,240.40365100000054,240.40365100000054,None,,7,001,2025-12-17_15h05.53.213,2025C_exp1_comp,2022.2.4,60.003624219431245,
42.7,315,-1,-1,1,9,117,89,240.40365100000054,240.40365100000054,240.90446880000127,240.97081890000118,241.02111839999998,241.02111839999998,241.02111839999998,241.02111839999998,241.07094100000177,241.07094100000177,241.07094100000177,241.07094100000177,241.07094100000177,241.07094100000177,241.07094100000177,241.07094100000177,241.07094100000177,right,0.4755948999991233,241.57144300000073,241.57144300000073,None,,7,001,2025-12-17_15h05.53.213,2025C_exp1_comp,2022.2.4,60.003624219431245,
29.4,315,1,0,1,10,118,32,241.57144300000073,241.57144300000073,242.07195840000168,242.13866720000078,242.18898640000043,242.18898640000043,242.18898640000043,242.18898640000043,242.238774200001,242.238774200001,242.238774200001,242.238774200001,242.238774200001,242.238774200001,242.238774200001,242.238774200001,242.238774200001,left,0.5235048999984429,242.7893307000013,242.7893307000013,None,,7,001,2025-12-17_15h05.53.213,2025C_exp1_comp,2022.2.4,60.003624219431245,
15.7,45,1,0,1,11,119,19,242.7893307000013,242.7893307000013,243.28982460000043,243.35654440000144,243.40685550000126,243.40685550000126,243.40685550000126,243.40685550000126,243.45671010000115,243.45671010000115,243.45671010000115,243.45671010000115,243.45671010000115,243.45671010000115,243.45671010000115,243.45671010000115,243.45671010000115,left,0.514194999999745,243.9905165,243.9905165,None,,7,001,2025-12-17_15h05.53.213,2025C_exp1_comp,2022.2.4,60.003624219431245,
19.6,45,-1,-1,1,12,120,74,243.9905165,243.9905165,244.49111090000042,244.5577505000001,244.60805360000086,244.60805360000086,244.60805360000086,244.60805360000086,244.65792300000066,244.65792300000066,244.65792300000066,244.65792300000066,244.65792300000066,244.65792300000066,244.65792300000066,244.65792300000066,244.65792300000066,right,0.48812790000010864,245.17504090000148,245.17504090000148,None,,7,001,2025-12-17_15h05.53.213,2025C_exp1_comp,2022.2.4,60.003624219431245,
22.7,45,-1,1,1,13,121,39,245.17504090000148,245.17504090000148,245.6755608000003,245.7422680000018,245.79286430000138,245.79286430000138,245.79286430000138,245.79286430000138,245.84238790000018,245.84238790000018,245.84238790000018,245.84238790000018,245.84238790000018,245.84238790000018,245.84238790000018,245.84238790000018,245.84238790000018,right,0.5598147000000608,246.42632010000125,246.42632010000125,None,,7,001,2025-12-17_15h05.53.213,2025C_exp1_comp,2022.2.4,60.003624219431245,
25.5,45,1,0,1,14,122,22,246.42632010000125,246.42632010000125,246.926801900001,246.99408040000162,247.04395870000008,247.04395870000008,247.04395870000008,247.04395870000008,247.09361660000104,247.09361660000104,247.09361660000104,247.09361660000104,247.09361660000104,247.09361660000104,247.09361660000104,247.09361660000104,247.09361660000104,left,0.46105329999954847,247.5774334000016,247.5774334000016,None,,7,001,2025-12-17_15h05.53.213,2025C_exp1_comp,2022.2.4,60.003624219431245,
15.7,315,-1,0,1,15,123,10,247.5774334000016,247.5774334000016,248.07794530000137,248.14466790000006,248.19496570000047,248.19496570000047,248.19496570000047,248.19496570000047,248.24477320000005,248.24477320000005,248.24477320000005,248.24477320000005,248.24477320000005,248.24477320000005,248.24477320000005,248.24477320000005,248.24477320000005,right,0.461817899999005,248.72858540000016,248.72858540000016,None,,7,001,2025-12-17_15h05.53.213,2025C_exp1_comp,2022.2.4,60.003624219431245,
22.7,45,-1,0,1,16,124,3,248.72858540000016,248.72858540000016,249.2290987000015,249.29581550000148,249.3461485000007,249.3461485000007,249.3461485000007,249.3461485000007,249.39595550000013,249.39595550000013,249.39595550000013,249.39595550000013,249.39595550000013,249.39595550000013,249.39595550000013,249.39595550000013,249.39595550000013,right,0.4707565999997314,249.8964192000003,249.8964192000003,None,,7,001,2025-12-17_15h05.53.213,2025C_exp1_comp,2022.2.4,60.003624219431245,
39.2,315,-1,1,1,17,125,52,249.8964192000003,249.8964192000003,250.39694120000058,250.46365100000003,250.51396340000065,250.51396340000065,250.51396340000065,250.51396340000065,250.5637598000012,250.5637598000012,250.5637598000012,250.5637598000012,250.5637598000012,250.5637598000012,250.5637598000012,250.5637598000012,250.5637598000012,left,0.47915049999937764,251.06425650000165,251.06425650000165,None,,7,001,2025-12-17_15h05.53.213,2025C_exp1_comp,2022.2.4,60.003624219431245,
42.7,45,1,-1,1,18,126,98,251.06425650000165,251.06425650000165,251.56481060000078,251.63152000000082,251.68180360000042,251.68180360000042,251.68180360000042,251.68180360000042,251.73183300000164,251.73183300000164,251.73183300000164,251.73183300000164,251.73183300000164,251.73183300000164,251.73183300000164,251.73183300000164,251.73183300000164,left,0.4864293999999063,252.24877070000002,252.24877070000002,None,,7,001,2025-12-17_15h05.53.213,2025C_exp1_comp,2022.2.4,60.003624219431245,
35.3,315,1,0,1,19,127,33,252.24877070000002,252.24877070000002,252.74928190000173,252.81600290000097,252.8663086000015,252.8663086000015,252.8663086000015,252.8663086000015,252.9161077000008,252.9161077000008,252.9161077000008,252.9161077000008,252.9161077000008,252.9161077000008,252.9161077000008,252.9161077000008,252.9161077000008,left,0.5101015000000189,253.44999020000068,253.44999020000068,None,,7,001,2025-12-17_15h05.53.213,2025C_exp1_comp,2022.2.4,60.003624219431245,
35.3,315,-1,1,1,20,128,51,253.44999020000068,253.44999020000068,253.95049500000096,254.01735570000164,254.06750120000106,254.06750120000106,254.06750120000106,254.06750120000106,254.11730120000175,254.11730120000175,254.11730120000175,254.11730120000175,254.11730120000175,254.11730120000175,254.11730120000175,254.11730120000175,254.11730120000175,right,0.46905730000071344,254.61782970000058,254.61782970000058,None,,7,001,2025-12-17_15h05.53.213,2025C_exp1_comp,2022.2.4,60.003624219431245,
42.7,315,1,0,1,21,129,35,254.61782970000058,254.61782970000058,255.1183344000001,255.18534020000152,255.23538530000042,255.23538530000042,255.23538530000042,255.23538530000042,255.2851507000014,255.2851507000014,255.2851507000014,255.2851507000014,255.2851507000014,255.2851507000014,255.2851507000014,255.2851507000014,255.2851507000014,left,0.38956340000004275,255.7027190000008,255.7027190000008,None,,7,001,2025-12-17_15h05.53.213,2025C_exp1_comp,2022.2.4,60.003624219431245,
39.2,45,1,-1,1,22,130,97,255.7027190000008,255.7027190000008,256.20279890000165,256.26949500000046,256.31991460000063,256.31991460000063,256.31991460000063,256.31991460000063,256.36999650000143,256.36999650000143,256.36999650000143,256.36999650000143,256.36999650000143,256.36999650000143,256.36999650000143,256.36999650000143,256.36999650000143,left,0.4960702999997011,256.8867414000015,256.8867414000015,None,,7,001,2025-12-17_15h05.53.213,2025C_exp1_comp,2022.2.4,60.003624219431245,
25.5,45,1,-1,1,23,131,94,256.8867414000015,256.8867414000015,257.3872536000017,257.45396510000137,257.5042925000016,257.5042925000016,257.5042925000016,257.5042925000016,257.55455150000125,257.55455150000125,257.55455150000125,257.55455150000125,257.55455150000125,257.55455150000125,257.55455150000125,257.55455150000125,257.55455150000125,right,0.41555739999967045,257.98787430000084,257.98787430000084,None,,7,001,2025-12-17_15h05.53.213,2025C_exp1_comp,2022.2.4,60.003624219431245,
42.7,315,-1,1,1,24,132,53,257.98787430000084,257.98787430000084,258.4883608,258.5550740000017,258.60538110000016,258.60538110000016,258.60538110000016,258.60538110000016,258.6551872,258.6551872,258.6551872,258.6551872,258.6551872,258.6551872,258.6551872,258.6551872,258.6551872,left,0.38725269999849843,259.07224940000015,259.07224940000015,None,,7,001,2025-12-17_15h05.53.213,2025C_exp1_comp,2022.2.4,60.003624219431245,
42.7,45,-1,1,1,25,133,44,259.07224940000015,259.07224940000015,259.5727702000004,259.6394840000012,259.6897968000012,259.6897968000012,259.6897968000012,259.6897968000012,259.7396407000015,259.7396407000015,259.7396407000015,259.7396407000015,259.7396407000015,259.7396407000015,259.7396407000015,259.7396407000015,259.7396407000015,left,0.4468146999988676,260.2067155000004,260.2067155000004,None,,7,001,2025-12-17_15h05.53.213,2025C_exp1_comp,2022.2.4,60.003624219431245,
29.4,45,-1,0,1,26,134,5,260.2067155000004,260.2067155000004,260.70719890000146,260.77399980000155,260.8242512000015,260.8242512000015,260.8242512000015,260.8242512000015,260.87405130000116,260.87405130000116,260.87405130000116,260.87405130000116,260.87405130000116,260.87405130000116,260.87405130000116,260.87405130000116,260.87405130000116,left,0.5599423000003299,261.4579965000012,261.4579965000012,None,,7,001,2025-12-17_15h05.53.213,2025C_exp1_comp,2022.2.4,60.003624219431245,
39.2,315,1,-1,1,27,135,106,261.4579965000012,261.4579965000012,261.9585052000002,262.02530220000153,262.07553180000104,262.07553180000104,262.07553180000104,262.07553180000104,262.1253445000002,262.1253445000002,262.1253445000002,262.1253445000002,262.1253445000002,262.1253445000002,262.1253445000002,262.1253445000002,262.1253445000002,left,0.4369487999992998,262.5925560000014,262.5925560000014,None,,7,001,2025-12-17_15h05.53.213,2025C_exp1_comp,2022.2.4,60.003624219431245,
35.3,45,-1,1,1,28,136,42,262.5925560000014,262.5925560000014,263.09360760000163,263.15967100000125,263.2099782000005,263.2099782000005,263.2099782000005,263.2099782000005,263.25976620000074,263.25976620000074,263.25976620000074,263.25976620000074,263.25976620000074,263.25976620000074,263.25976620000074,263.25976620000074,263.25976620000074,right,0.4705618999996659,263.7602630000001,263.7602630000001,None,,7,001,2025-12-17_15h05.53.213,2025C_exp1_comp,2022.2.4,60.003624219431245,
29.4,45,1,1,1,29,137,59,263.7602630000001,263.7602630000001,264.2607764000004,264.32754880000175,264.37779930000033,264.37779930000033,264.37779930000033,264.37779930000033,264.42760420000013,264.42760420000013,264.42760420000013,264.42760420000013,264.42760420000013,264.42760420000013,264.42760420000013,264.42760420000013,264.42760420000013,left,0.6068374000005861,265.0615658000006,265.0615658000006,None,,7,001,2025-12-17_15h05.53.213,2025C_exp1_comp,2022.2.4,60.003624219431245,
29.4,315,-1,-1,1,30,138,86,265.0615658000006,265.0615658000006,265.56210120000105,265.6290719000008,265.6791744000002,265.6791744000002,265.6791744000002,265.6791744000002,265.72886780000044,265.72886780000044,265.72886780000044,265.72886780000044,265.72886780000044,265.72886780000044,265.72886780000044,265.72886780000044,265.72886780000044,right,0.49790349999966566,266.2460907000004,266.2460907000004,None,,7,001,2025-12-17_15h05.53.213,2025C_exp1_comp,2022.2.4,60.003624219431245,
22.7,315,-1,-1,1,31,139,84,266.2460907000004,266.2460907000004,266.74665560000176,266.8133237000002,266.8636169000001,266.8636169000001,266.8636169000001,266.8636169000001,266.91351660000146,266.91351660000146,266.91351660000146,266.91351660000146,266.91351660000146,266.91351660000146,266.91351660000146,266.91351660000146,266.91351660000146,left,0.40124529999957304,267.3473106000001,267.3473106000001,None,,7,001,2025-12-17_15h05.53.213,2025C_exp1_comp,2022.2.4,60.003624219431245,
42.7,45,-1,0,1,32,140,8,267.3473106000001,267.3473106000001,267.8480221000009,267.9144219000009,267.9647182000008,267.9647182000008,267.9647182000008,267.9647182000008,268.01451760000054,268.01451760000054,268.01451760000054,268.01451760000054,268.01451760000054,268.01451760000054,268.01451760000054,268.01451760000054,268.01451760000054,left,0.36423760000070615,268.39834520000113,268.39834520000113,None,,7,001,2025-12-17_15h05.53.213,2025C_exp1_comp,2022.2.4,60.003624219431245,
39.2,45,-1,-1,1,33,141,79,268.39834520000113,268.39834520000113,268.8988268000012,268.96554580000156,269.0158914000003,269.0158914000003,269.0158914000003,269.0158914000003,269.06557130000147,269.06557130000147,269.06557130000147,269.06557130000147,269.06557130000147,269.06557130000147,269.06557130000147,269.06557130000147,269.06557130000147,left,0.5369365000005928,269.6328345000002,269.6328345000002,None,,7,001,2025-12-17_15h05.53.213,2025C_exp1_comp,2022.2.4,60.003624219431245,
15.7,45,1,-1,1,34,142,91,269.6328345000002,269.6328345000002,270.13332750000154,270.2001138000014,270.2504020000015,270.2504020000015,270.2504020000015,270.2504020000015,270.30040480000025,270.30040480000025,270.30040480000025,270.30040480000025,270.30040480000025,270.30040480000025,270.30040480000025,270.30040480000025,270.30040480000025,left,0.4776726999989478,270.80067540000164,270.80067540000164,None,,7,001,2025-12-17_15h05.53.213,2025C_exp1_comp,2022.2.4,60.003624219431245,
25.5,315,-1,-1,1,35,143,85,270.80067540000164,270.80067540000164,271.3013441000003,271.3678624000004,271.4182077000005,271.4182077000005,271.4182077000005,271.4182077000005,271.4680253000006,271.4680253000006,271.4680253000006,271.4680253000006,271.4680253000006,271.4680253000006,271.4680253000006,271.4680253000006,271.4680253000006,right,0.502463999999236,272.00182570000106,272.00182570000106,None,,7,001,2025-12-17_15h05.53.213,2025C_exp1_comp,2022.2.4,60.003624219431245,
25.5,315,-1,0,1,36,144,13,272.00182570000106,272.00182570000106,272.5023598000007,272.56906490000074,272.61937520000174,272.61937520000174,272.61937520000174,272.61937520000174,272.6691978000017,272.6691978000017,272.6691978000017,272.6691978000017,272.6691978000017,272.6691978000017,272.6691978000017,272.6691978000017,272.6691978000017,right,0.7176345999996556,273.41991060000146,273.41991060000146,None,,7,001,2025-12-17_15h05.53.213,2025C_exp1_comp,2022.2.4,60.003624219431245,
39.2,45,-1,0,1,37,145,7,273.41991060000146,273.41991060000146,273.92043300000114,273.9871856000009,274.0380744000013,274.0380744000013,274.0380744000013,274.0380744000013,274.0872595000001,274.0872595000001,274.0872595000001,274.0872595000001,274.0872595000001,274.0872595000001,274.0872595000001,274.0872595000001,274.0872595000001,left,0.5076257000000624,274.6211273000008,274.6211273000008,None,,7,001,2025-12-17_15h05.53.213,2025C_exp1_comp,2022.2.4,60.003624219431245,
12.1,315,1,0,1,38,146,27,274.6211273000008,274.6211273000008,275.12162630000057,275.1883486000006,275.238672200001,275.238672200001,275.238672200001,275.238672200001,275.28844370000115,275.28844370000115,275.28844370000115,275.28844370000115,275.28844370000115,275.28844370000115,275.28844370000115,275.28844370000115,275.28844370000115,left,0.5780924999999115,275.8890508000004,275.8890508000004,None,,7,001,2025-12-17_15h05.53.213,2025C_exp1_comp,2022.2.4,60.003624219431245,
42.7,315,1,-1,1,39,147,107,275.8890508000004,275.8890508000004,276.3897613000008,276.4563171000009,276.50659540000015,276.50659540000015,276.50659540000015,276.50659540000015,276.5563809000014,276.5563809000014,276.5563809000014,276.5563809000014,276.5563809000014,276.5563809000014,276.5563809000014,276.5563809000014,276.5563809000014,left,0.48591749999832246,277.07356210000034,277.07356210000034,None,,7,001,2025-12-17_15h05.53.213,2025C_exp1_comp,2022.2.4,60.003624219431245,
12.1,315,1,1,1,40,148,63,277.07356210000034,277.07356210000034,277.5740796000009,277.64085890000024,277.6911168000006,277.6911168000006,277.6911168000006,277.6911168000006,277.74090530000103,277.74090530000103,277.74090530000103,277.74090530000103,277.74090530000103,277.74090530000103,277.74090530000103,277.74090530000103,277.74090530000103,left,0.4854637000007642,278.25808900000084,278.25808900000084,None,,7,001,2025-12-17_15h05.53.213,2025C_exp1_comp,2022.2.4,60.003624219431245,
25.5,315,1,0,1,41,149,31,278.25808900000084,278.25808900000084,278.7586076000007,278.82538600000044,278.8757329,278.8757329,278.8757329,278.8757329,278.92539060000126,278.92539060000126,278.92539060000126,278.92539060000126,278.92539060000126,278.92539060000126,278.92539060000126,278.92539060000126,278.92539060000126,right,0.46907420000025013,279.4259191000001,279.4259191000001,None,,7,001,2025-12-17_15h05.53.213,2025C_exp1_comp,2022.2.4,60.003624219431245,
42.7,315,1,1,1,42,150,71,279.4259191000001,279.4259191000001,279.92643490000046,279.99386400000003,280.0434526000008,280.0434526000008,280.0434526000008,280.0434526000008,280.0932580000008,280.0932580000008,280.0932580000008,280.0932580000008,280.0932580000008,280.0932580000008,280.0932580000008,280.0932580000008,280.0932580000008,left,0.4207289000005403,280.54375790000086,280.54375790000086,None,,7,001,2025-12-17_15h05.53.213,2025C_exp1_comp,2022.2.4,60.003624219431245,
25.5,45,-1,0,1,43,151,4,280.54375790000086,280.54375790000086,281.0443071000009,281.1113785000016,281.1612571000005,281.1612571000005,281.1612571000005,281.1612571000005,281.21104430000014,281.21104430000014,281.21104430000014,281.21104430000014,281.21104430000014,281.21104430000014,281.21104430000014,281.21104430000014,281.21104430000014,left,0.5198811999998725,281.76159610000104,281.76159610000104,None,,7,001,2025-12-17_15h05.53.213,2025C_exp1_comp,2022.2.4,60.003624219431245,
15.7,45,1,1,1,44,152,55,281.76159610000104,281.76159610000104,282.26211370000055,282.3288110000012,282.3791118000008,282.3791118000008,282.3791118000008,282.3791118000008,282.4289206000012,282.4289206000012,282.4289206000012,282.4289206000012,282.4289206000012,282.4289206000012,282.4289206000012,282.4289206000012,282.4289206000012,left,0.41333210000084364,282.8627634000004,282.8627634000004,None,,7,001,2025-12-17_15h05.53.213,2025C_exp1_comp,2022.2.4,60.003624219431245,
42.7,45,1,0,1,45,153,26,282.8627634000004,282.8627634000004,283.3633183000002,283.42989580000176,283.4802195000011,283.4802195000011,283.4802195000011,283.4802195000011,283.5300177000008,283.5300177000008,283.5300177000008,283.5300177000008,283.5300177000008,283.5300177000008,283.5300177000008,283.5300177000008,283.5300177000008,right,0.4644248000004154,284.01384340000004,284.01384340000004,None,,7,001,2025-12-17_15h05.53.213,2025C_exp1_comp,2022.2.4,60.003624219431245,
19.6,45,-1,0,1,46,154,2,284.01384340000004,284.01384340000004,284.5143433000012,284.5810876000014,284.6316562000011,284.6316562000011,284.6316562000011,284.6316562000011,284.6812557000012,284.6812557000012,284.6812557000012,284.6812557000012,284.6812557000012,284.6812557000012,284.6812557000012,284.6812557000012,284.6812557000012,left,0.49027059999934863,285.1983618000013,285.1983618000013,None,,7,001,2025-12-17_15h05.53.213,2025C_exp1_comp,2022.2.4,60.003624219431245,
15.7,45,-1,1,1,47,155,37,285.1983618000013,285.1983618000013,285.69890450000094,285.76557870000033,285.81589330000133,285.81589330000133,285.81589330000133,285.81589330000133,285.865643000001,285.865643000001,285.865643000001,285.865643000001,285.865643000001,285.865643000001,285.865643000001,285.865643000001,285.865643000001,right,0.4723169999997481,286.3661924000007,286.3661924000007,None,,7,001,2025-12-17_15h05.53.213,2025C_exp1_comp,2022.2.4,60.003624219431245,
29.4,45,-1,1,1,48,156,41,286.3661924000007,286.3661924000007,286.866714400001,286.93350440000177,286.98371660000157,286.98371660000157,286.98371660000157,286.98371660000157,287.0335111000004,287.0335111000004,287.0335111000004,287.0335111000004,287.0335111000004,287.0335111000004,287.0335111000004,287.0335111000004,287.0335111000004,right,0.8889648000003945,287.95110100000056,287.95110100000056,None,,7,001,2025-12-17_15h05.53.213,2025C_exp1_comp,2022.2.4,60.003624219431245,
29.4,45,-1,-1,1,49,157,77,287.95110100000056,287.95110100000056,288.4516581000007,288.51861030000146,288.56863150000027,288.56863150000027,288.56863150000027,288.56863150000027,288.61843580000095,288.61843580000095,288.61843580000095,288.61843580000095,288.61843580000095,288.61843580000095,288.61843580000095,288.61843580000095,288.61843580000095,right,0.5202879999997094,289.1689776000003,289.1689776000003,None,,7,001,2025-12-17_15h05.53.213,2025C_exp1_comp,2022.2.4,60.003624219431245,
35.3,45,-1,0,1,50,158,6,289.1689776000003,289.1689776000003,289.66947100000107,289.7368739000012,289.78649790000054,289.78649790000054,289.78649790000054,289.78649790000054,289.83632150000085,289.83632150000085,289.83632150000085,289.83632150000085,289.83632150000085,289.83632150000085,289.83632150000085,289.83632150000085,289.83632150000085,right,0.4626224000003276,290.320139200001,290.320139200001,None,,7,001,2025-12-17_15h05.53.213,2025C_exp1_comp,2022.2.4,60.003624219431245,
39.2,45,1,0,1,51,159,25,290.320139200001,290.320139200001,290.82065090000106,290.8873650000005,290.93768790000104,290.93768790000104,290.93768790000104,290.93768790000104,290.9875522000002,290.9875522000002,290.9875522000002,290.9875522000002,290.9875522000002,290.9875522000002,290.9875522000002,290.9875522000002,290.9875522000002,right,0.5188369999996212,291.53807380000035,291.53807380000035,None,,7,001,2025-12-17_15h05.53.213,2025C_exp1_comp,2022.2.4,60.003624219431245,
15.7,315,1,0,1,52,160,28,291.53807380000035,291.53807380000035,292.0385357000014,292.1052574000005,292.15555940000013,292.15555940000013,292.15555940000013,292.15555940000013,292.20533520000026,292.20533520000026,292.20533520000026,292.20533520000026,292.20533520000026,292.20533520000026,292.20533520000026,292.20533520000026,292.20533520000026,left,0.5408690000003844,292.7726132000007,292.7726132000007,None,,7,001,2025-12-17_15h05.53.213,2025C_exp1_comp,2022.2.4,60.003624219431245,
19.6,315,1,-1,1,53,161,101,292.7726132000007,292.7726132000007,293.27313610000056,293.3398448000007,293.3907285000005,293.3907285000005,293.3907285000005,293.3907285000005,293.4399140000005,293.4399140000005,293.4399140000005,293.4399140000005,293.4399140000005,293.4399140000005,293.4399140000005,293.4399140000005,293.4399140000005,right,0.6424387999995815,294.1072572000012,294.1072572000012,None,,7,001,2025-12-17_15h05.53.213,2025C_exp1_comp,2022.2.4,60.003624219431245,
12.1,45,-1,1,1,54,162,36,294.1072572000012,294.1072572000012,294.6077828000016,294.67502980000063,294.7255139000008,294.7255139000008,294.7255139000008,294.7255139000008,294.77460640000027,294.77460640000027,294.77460640000027,294.77460640000027,294.77460640000027,294.77460640000027,294.77460640000027,294.77460640000027,294.77460640000027,right,0.5315331000001606,295.3257973,295.3257973,None,,7,001,2025-12-17_15h05.53.213,2025C_exp1_comp,2022.2.4,60.003624219431245,
35.3,315,-1,0,1,55,163,15,295.3257973,295.3257973,295.82624580000083,295.89274470000055,295.94289950000166,295.94289950000166,295.94289950000166,295.94289950000166,295.9934030000004,295.9934030000004,295.9934030000004,295.9934030000004,295.9934030000004,295.9934030000004,295.9934030000004,295.9934030000004,295.9934030000004,left,0.570125399999597,296.5940825000016,296.5940825000016,None,,7,001,2025-12-17_15h05.53.213,2025C_exp1_comp,2022.2.4,60.003624219431245,
19.6,315,-1,-1,1,56,164,83,296.5940825000016,296.5940825000016,297.0950565000003,297.16081270000177,297.2105870000014,297.2105870000014,297.2105870000014,297.2105870000014,297.260416000001,297.260416000001,297.260416000001,297.260416000001,297.260416000001,297.260416000001,297.260416000001,297.260416000001,297.260416000001,right,0.4865434000003006,297.77765870000076,297.77765870000076,None,,7,001,2025-12-17_15h05.53.213,2025C_exp1_comp,2022.2.4,60.003624219431245,
35.3,315,1,-1,1,57,165,105,297.77765870000076,297.77765870000076,298.2781074000013,298.34482540000135,298.3951509000017,298.3951509000017,298.3951509000017,298.3951509000017,298.44510140000057,298.44510140000057,298.44510140000057,298.44510140000057,298.44510140000057,298.44510140000057,298.44510140000057,298.44510140000057,298.44510140000057,right,0.5730837999999494,299.04553580000174,299.04553580000174,None,,7,001,2025-12-17_15h05.53.213,2025C_exp1_comp,2022.2.4,60.003624219431245,
22.7,315,-1,1,1,58,166,48,299.04553580000174,299.04553580000174,299.54609690000143,299.61284930000147,299.66314690000036,299.66314690000036,299.66314690000036,299.66314690000036,299.71302260000084,299.71302260000084,299.71302260000084,299.71302260000084,299.71302260000084,299.71302260000084,299.71302260000084,299.71302260000084,299.71302260000084,right,0.5376730999996653,300.280193300001,300.280193300001,None,,7,001,2025-12-17_15h05.53.213,2025C_exp1_comp,2022.2.4,60.003624219431245,
35.3,45,1,-1,1,59,167,96,300.280193300001,300.280193300001,300.7806008000007,300.847308800001,300.89761290000024,300.89761290000024,300.89761290000024,300.89761290000024,300.94741480000084,300.94741480000084,300.94741480000084,300.94741480000084,300.94741480000084,300.94741480000084,300.94741480000084,300.94741480000084,300.94741480000084,right,0.5828070999996271,301.54802570000174,301.54802570000174,None,,7,001,2025-12-17_15h05.53.213,2025C_exp1_comp,2022.2.4,60.003624219431245,
39.2,45,1,1,1,60,168,61,301.54802570000174,301.54802570000174,302.04852890000075,302.11523920000036,302.1655533000012,302.1655533000012,302.1655533000012,302.1655533000012,302.21535570000015,302.21535570000015,302.21535570000015,302.21535570000015,302.21535570000015,302.21535570000015,302.21535570000015,302.21535570000015,302.21535570000015,right,0.4670946999995067,302.6991964000008,302.6991964000008,None,,7,001,2025-12-17_15h05.53.213,2025C_exp1_comp,2022.2.4,60.003624219431245,
19.6,315,-1,0,1,61,169,11,302.6991964000008,302.6991964000008,303.1996747000012,303.26699180000105,303.31669650000003,303.31669650000003,303.31669650000003,303.31669650000003,303.36649380000017,303.36649380000017,303.36649380000017,303.36649380000017,303.36649380000017,303.36649380000017,303.36649380000017,303.36649380000017,303.36649380000017,right,0.5796139999984007,303.9670965000005,303.9670965000005,None,,7,001,2025-12-17_15h05.53.213,2025C_exp1_comp,2022.2.4,60.003624219431245,
19.6,45,1,1,1,62,170,56,303.9670965000005,303.9670965000005,304.46763310000097,304.53435680000075,304.58461870000065,304.58461870000065,304.58461870000065,304.58461870000065,304.63442620000023,304.63442620000023,304.63442620000023,304.63442620000023,304.63442620000023,304.63442620000023,304.63442620000023,304.63442620000023,304.63442620000023,right,0.5363483000000997,305.2019040000014,305.2019040000014,None,,7,001,2025-12-17_15h05.53.213,2025C_exp1_comp,2022.2.4,60.003624219431245,
35.3,45,1,0,1,63,171,24,305.2019040000014,305.2019040000014,305.7021820000009,305.7689468000008,305.81924570000047,305.81924570000047,305.81924570000047,305.81924570000047,305.86907280000014,305.86907280000014,305.86907280000014,305.86907280000014,305.86907280000014,305.86907280000014,305.86907280000014,305.86907280000014,305.86907280000014,left,0.7088331999984803,306.60303080000085,306.60303080000085,None,,7,001,2025-12-17_15h05.53.213,2025C_exp1_comp,2022.2.4,60.003624219431245,
12.1,45,1,-1,1,64,172,90,306.60303080000085,306.60303080000085,307.1036081000002,307.1703242000003,307.22060560000136,307.22060560000136,307.22060560000136,307.22060560000136,307.2705713000014,307.2705713000014,307.2705713000014,307.2705713000014,307.2705713000014,307.2705713000014,307.2705713000014,307.2705713000014,307.2705713000014,right,1.2596231999996235,308.5550495000007,308.5550495000007,None,,7,001,2025-12-17_15h05.53.213,2025C_exp1_comp,2022.2.4,60.003624219431245,
22.7,315,-1,0,1,65,173,12,308.5550495000007,308.5550495000007,309.0555804000014,309.12236700000176,309.1725277000005,309.1725277000005,309.1725277000005,309.1725277000005,309.222403400001,309.222403400001,309.222403400001,309.222403400001,309.222403400001,309.222403400001,309.222403400001,309.222403400001,309.222403400001,left,0.6680909999995492,309.92306980000103,309.92306980000103,None,,7,001,2025-12-17_15h05.53.213,2025C_exp1_comp,2022.2.4,60.003624219431245,
39.2,315,-1,-1,1,66,174,88,309.92306980000103,309.92306980000103,310.42357080000147,310.4903122000014,310.54059570000027,310.54059570000027,310.54059570000027,310.54059570000027,310.59036130000095,310.59036130000095,310.59036130000095,310.59036130000095,310.59036130000095,310.59036130000095,310.59036130000095,310.59036130000095,310.59036130000095,left,0.6679027999998652,311.29115850000017,311.29115850000017,None,,7,001,2025-12-17_15h05.53.213,2025C_exp1_comp,2022.2.4,60.003624219431245,
19.6,315,1,1,1,67,175,65,311.29115850000017,311.29115850000017,311.79164350000065,311.85835450000013,311.9086496,311.9086496,311.9086496,311.9086496,311.9584040000009,311.9584040000009,311.9584040000009,311.9584040000009,311.9584040000009,311.9584040000009,311.9584040000009,311.9584040000009,311.9584040000009,left,0.7396809000001667,312.72589170000174,312.72589170000174,None,,7,001,2025-12-17_15h05.53.213,2025C_exp1_comp,2022.2.4,60.003624219431245,
25.5,315,1,-1,1,68,176,103,312.72589170000174,312.72589170000174,313.22637680000116,313.29308460000175,313.343387500001,313.343387500001,313.343387500001,313.343387500001,313.39321780000137,313.39321780000137,313.39321780000137,313.39321780000137,313.39321780000137,313.39321780000137,313.39321780000137,313.39321780000137,313.39321780000137,right,0.7206855000003998,314.1441192000002,314.1441192000002,None,,7,001,2025-12-17_15h05.53.213,2025C_exp1_comp,2022.2.4,60.003624219431245,
19.6,45,1,-1,1,69,177,92,314.1441192000002,314.1441192000002,314.6444493000017,314.7111883000016,314.7614676000012,314.7614676000012,314.7614676000012,314.7614676000012,314.81126250000125,314.81126250000125,314.81126250000125,314.81126250000125,314.81126250000125,314.81126250000125,314.81126250000125,314.81126250000125,314.81126250000125,left,0.622998999999254,315.4621595000008,315.4621595000008,None,,7,001,2025-12-17_15h05.53.213,2025C_exp1_comp,2022.2.4,60.003624219431245,
29.4,315,-1,0,1,70,178,14,315.4621595000008,315.4621595000008,315.9624434000016,316.02915920000123,316.0795614000017,316.0795614000017,316.0795614000017,316.0795614000017,316.1292590000012,316.1292590000012,316.1292590000012,316.1292590000012,316.1292590000012,316.1292590000012,316.1292590000012,316.1292590000012,316.1292590000012,left,0.8087474999992992,316.9634240000014,316.9634240000014,None,,7,001,2025-12-17_15h05.53.213,2025C_exp1_comp,2022.2.4,60.003624219431245,
35.3,45,-1,-1,1,71,179,78,316.9634240000014,316.9634240000014,317.4642735000016,317.53083440000046,317.58103460000166,317.58103460000166,317.58103460000166,317.58103460000166,317.6309912000015,317.6309912000015,317.6309912000015,317.6309912000015,317.6309912000015,317.6309912000015,317.6309912000015,317.6309912000015,317.6309912000015,right,0.8284144999997807,318.4819212000002,318.4819212000002,None,,7,001,2025-12-17_15h05.53.213,2025C_exp1_comp,2022.2.4,60.003624219431245,
42.7,45,1,1,1,72,180,62,318.4819212000002,318.4819212000002,318.9824492000007,319.04912180000065,319.09945340000013,319.09945340000013,319.09945340000013,319.09945340000013,319.14930650000133,319.14930650000133,319.14930650000133,319.14930650000133,319.14930650000133,319.14930650000133,319.14930650000133,319.14930650000133,319.14930650000133,right,0.5575489000002563,319.73304090000056,319.73304090000056,None,,7,001,2025-12-17_15h05.53.213,2025C_exp1_comp,2022.2.4,60.003624219431245,
12.1,45,1,0,1,73,181,18,319.73304090000056,319.73304090000056,320.23377960000107,320.3005129000012,320.3507002000006,320.3507002000006,320.3507002000006,320.3507002000006,320.40064860000166,320.40064860000166,320.40064860000166,320.40064860000166,320.40064860000166,320.40064860000166,320.40064860000166,320.40064860000166,320.40064860000166,left,0.5225583999999799,320.9510880000016,320.9510880000016,None,,7,001,2025-12-17_15h05.53.213,2025C_exp1_comp,2022.2.4,60.003624219431245,
29.4,45,1,0,1,74,182,23,320.9510880000016,320.9510880000016,321.45159780000176,321.51830920000066,321.5686061000015,321.5686061000015,321.5686061000015,321.5686061000015,321.61839300000065,321.61839300000065,321.61839300000065,321.61839300000065,321.61839300000065,321.61839300000065,321.61839300000065,321.61839300000065,321.61839300000065,left,0.6084413999997196,322.25238470000113,322.25238470000113,None,,7,001,2025-12-17_15h05.53.213,2025C_exp1_comp,2022.2.4,60.003624219431245,
22.7,45,1,1,1,75,183,57,322.25238470000113,322.25238470000113,322.752843100001,322.8196394000006,322.8698897000013,322.8698897000013,322.8698897000013,322.8698897000013,322.9196182000014,322.9196182000014,322.9196182000014,322.9196182000014,322.9196182000014,322.9196182000014,322.9196182000014,322.9196182000014,322.9196182000014,right,0.5394962999998825,323.4869084000002,323.4869084000002,None,,7,001,2025-12-17_15h05.53.213,2025C_exp1_comp,2022.2.4,60.003624219431245,
12.1,315,-1,-1,1,76,184,81,323.4869084000002,323.4869084000002,323.9874643000003,324.0538598000003,324.1044156000007,324.1044156000007,324.1044156000007,324.1044156000007,324.1543776000017,324.1543776000017,324.1543776000017,324.1543776000017,324.1543776000017,324.1543776000017,324.1543776000017,324.1543776000017,324.1543776000017,left,0.6477814000008948,324.821586,324.821586,None,,7,001,2025-12-17_15h05.53.213,2025C_exp1_comp,2022.2.4,60.003624219431245,
15.7,315,1,1,1,77,185,64,324.821586,324.821586,325.3221269000005,325.3888214000017,325.4391099000004,325.4391099000004,325.4391099000004,325.4391099000004,325.48891060000096,325.48891060000096,325.48891060000096,325.48891060000096,325.48891060000096,325.48891060000096,325.48891060000096,325.48891060000096,325.48891060000096,left,0.6173997999994754,326.1229293000015,326.1229293000015,None,,7,001,2025-12-17_15h05.53.213,2025C_exp1_comp,2022.2.4,60.003624219431245,
22.7,315,1,0,1,78,186,30,326.1229293000015,326.1229293000015,326.6234050000003,326.6901390000003,326.7404450000013,326.7404450000013,326.7404450000013,326.7404450000013,326.79015900000013,326.79015900000013,326.79015900000013,326.79015900000013,326.79015900000013,326.79015900000013,326.79015900000013,326.79015900000013,326.79015900000013,left,0.6524033999994572,327.4742382000004,327.4742382000004,None,,7,001,2025-12-17_15h05.53.213,2025C_exp1_comp,2022.2.4,60.003624219431245,
25.5,45,1,1,1,79,187,58,327.4742382000004,327.4742382000004,327.97453790000145,328.04137920000176,328.0915190000014,328.0915190000014,328.0915190000014,328.0915190000014,328.1415893000012,328.1415893000012,328.1415893000012,328.1415893000012,328.1415893000012,328.1415893000012,328.1415893000012,328.1415893000012,328.1415893000012,left,0.5725897999982408,328.74203470000066,328.74203470000066,None,,7,001,2025-12-17_15h05.53.213,2025C_exp1_comp,2022.2.4,60.003624219431245,
22.7,315,1,-1,1,80,188,102,328.74203470000066,328.74203470000066,329.2427421000011,329.30940460000056,329.3596155000014,329.3596155000014,329.3596155000014,329.3596155000014,329.4095105000015,329.4095105000015,329.4095105000015,329.4095105000015,329.4095105000015,329.4095105000015,329.4095105000015,329.4095105000015,329.4095105000015,left,0.5293438999997306,329.96006900000066,329.96006900000066,None,,7,001,2025-12-17_15h05.53.213,2025C_exp1_comp,2022.2.4,60.003624219431245,
12.1,45,-1,0,1,81,189,0,329.96006900000066,329.96006900000066,330.4604917000015,330.5273085000008,330.57764790000147,330.57764790000147,330.57764790000147,330.57764790000147,330.6274491000004,330.6274491000004,330.6274491000004,330.6274491000004,330.6274491000004,330.6274491000004,330.6274491000004,330.6274491000004,330.6274491000004,right,0.5761496999984956,331.2281285000008,331.2281285000008,None,,7,001,2025-12-17_15h05.53.213,2025C_exp1_comp,2022.2.4,60.003624219431245,
35.3,45,1,1,1,82,190,60,331.2281285000008,331.2281285000008,331.72858070000075,331.7953548000005,331.84563640000124,331.84563640000124,331.84563640000124,331.84563640000124,331.8953110000002,331.8953110000002,331.8953110000002,331.8953110000002,331.8953110000002,331.8953110000002,331.8953110000002,331.8953110000002,331.8953110000002,right,0.6439521000011155,332.5627067000005,332.5627067000005,None,,7,001,2025-12-17_15h05.53.213,2025C_exp1_comp,2022.2.4,60.003624219431245,
19.6,315,1,0,1,83,191,29,332.5627067000005,332.5627067000005,333.06321260000004,333.12972380000065,333.18018310000116,333.18018310000116,333.18018310000116,333.18018310000116,333.23002760000054,333.23002760000054,333.23002760000054,333.23002760000054,333.23002760000054,333.23002760000054,333.23002760000054,333.23002760000054,333.23002760000054,left,0.7004232999988744,333.9472530000003,333.9472530000003,None,,7,001,2025-12-17_15h05.53.213,2025C_exp1_comp,2022.2.4,60.003624219431245,
39.2,315,1,0,1,84,192,34,333.9472530000003,333.9472530000003,334.44787870000073,334.5145276000003,334.5648183000012,334.5648183000012,334.5648183000012,334.5648183000012,334.61458530000164,334.61458530000164,334.61458530000164,334.61458530000164,334.61458530000164,334.61458530000164,334.61458530000164,334.61458530000164,334.61458530000164,right,0.5248400000000402,335.1651225000005,335.1651225000005,None,,7,001,2025-12-17_15h05.53.213,2025C_exp1_comp,2022.2.4,60.003624219431245,
29.4,315,1,-1,1,85,193,104,335.1651225000005,335.1651225000005,335.66578130000016,335.7323741,335.7827915000016,335.7827915000016,335.7827915000016,335.7827915000016,335.83245330000136,335.83245330000136,335.83245330000136,335.83245330000136,335.83245330000136,335.83245330000136,335.83245330000136,335.83245330000136,335.83245330000136,left,0.6345320000000356,336.4832143000003,336.4832143000003,None,,7,001,2025-12-17_15h05.53.213,2025C_exp1_comp,2022.2.4,60.003624219431245,
39.2,315,-1,0,1,86,194,16,336.4832143000003,336.4832143000003,336.98375190000115,337.0504125000007,337.1007584000017,337.1007584000017,337.1007584000017,337.1007584000017,337.1506279000005,337.1506279000005,337.1506279000005,337.1506279000005,337.1506279000005,337.1506279000005,337.1506279000005,337.1506279000005,337.1506279000005,right,0.7807776999998168,337.9513932000009,337.9513932000009,None,,7,001,2025-12-17_15h05.53.213,2025C_exp1_comp,2022.2.4,60.003624219431245,
29.4,45,1,-1,1,87,195,95,337.9513932000009,337.9513932000009,338.4517201000017,338.51874230000067,338.5690568000009,338.5690568000009,338.5690568000009,338.5690568000009,338.6187209000018,338.6187209000018,338.6187209000018,338.6187209000018,338.6187209000018,338.6187209000018,338.6187209000018,338.6187209000018,338.6187209000018,left,0.5196816999996372,339.16901920000055,339.16901920000055,None,,7,001,2025-12-17_15h05.53.213,2025C_exp1_comp,2022.2.4,60.003624219431245,
12.1,45,1,1,1,88,196,54,339.16901920000055,339.16901920000055,339.66966390000016,339.7365015000014,339.7867984000004,339.7867984000004,339.7867984000004,339.7867984000004,339.8364829000002,339.8364829000002,339.8364829000002,339.8364829000002,339.8364829000002,339.8364829000002,339.8364829000002,339.8364829000002,339.8364829000002,left,0.4870379000003595,340.35402910000084,340.35402910000084,None,,7,001,2025-12-17_15h05.53.213,2025C_exp1_comp,2022.2.4,60.003624219431245,
39.2,315,1,1,1,89,197,70,340.35402910000084,340.35402910000084,340.85428820000016,340.92102740000155,340.97131360000094,340.97131360000094,340.97131360000094,340.97131360000094,341.02110620000167,341.02110620000167,341.02110620000167,341.02110620000167,341.02110620000167,341.02110620000167,341.02110620000167,341.02110620000167,341.02110620000167,right,0.8620812999997725,341.9053597000002,341.9053597000002,None,,7,001,2025-12-17_15h05.53.213,2025C_exp1_comp,2022.2.4,60.003624219431245,
12.1,315,-1,0,1,90,198,9,341.9053597000002,341.9053597000002,342.4058134000006,342.4725055000017,342.5226212000016,342.5226212000016,342.5226212000016,342.5226212000016,342.5724684000015,342.5724684000015,342.5724684000015,342.5724684000015,342.5724684000015,342.5724684000015,342.5724684000015,342.5724684000015,342.5724684000015,right,0.5744467999993503,343.17309060000116,343.17309060000116,None,,7,001,2025-12-17_15h05.53.213,2025C_exp1_comp,2022.2.4,60.003624219431245,
12.1,315,-1,1,1,91,199,45,343.17309060000116,343.17309060000116,343.67378140000073,343.7405608000008,343.79093620000094,343.79093620000094,343.79093620000094,343.79093620000094,343.84064300000136,343.84064300000136,343.84064300000136,343.84064300000136,343.84064300000136,343.84064300000136,343.84064300000136,343.84064300000136,343.84064300000136,right,0.5939478000000236,344.4579177000014,344.4579177000014,None,,7,001,2025-12-17_15h05.53.213,2025C_exp1_comp,2022.2.4,60.003624219431245,
22.7,45,-1,-1,1,92,200,75,344.4579177000014,344.4579177000014,344.95815850000145,345.02489050000077,345.0751168000006,345.0751168000006,345.0751168000006,345.0751168000006,345.1248978000003,345.1248978000003,345.1248978000003,345.1248978000003,345.1248978000003,345.1248978000003,345.1248978000003,345.1248978000003,345.1248978000003,right,0.6296722999995836,345.7755539000009,345.7755539000009,None,,7,001,2025-12-17_15h05.53.213,2025C_exp1_comp,2022.2.4,60.003624219431245,
12.1,45,-1,-1,1,93,201,72,345.7755539000009,345.7755539000009,346.27617870000176,346.34280690000014,346.3933805000015,346.3933805000015,346.3933805000015,346.3933805000015,346.44293500000094,346.44293500000094,346.44293500000094,346.44293500000094,346.44293500000094,346.44293500000094,346.44293500000094,346.44293500000094,346.44293500000094,right,0.5350576000000729,347.010129100001,347.010129100001,None,,7,001,2025-12-17_15h05.53.213,2025C_exp1_comp,2022.2.4,60.003624219431245,
25.5,315,1,1,1,94,202,67,347.010129100001,347.010129100001,347.51123910000024,347.57778300000064,347.6282067000011,347.6282067000011,347.6282067000011,347.6282067000011,347.6779006000015,347.6779006000015,347.6779006000015,347.6779006000015,347.6779006000015,347.6779006000015,347.6779006000015,347.6779006000015,347.6779006000015,right,0.6690586999993684,348.3784742000007,348.3784742000007,None,,7,001,2025-12-17_15h05.53.213,2025C_exp1_comp,2022.2.4,60.003624219431245,
19.6,45,1,0,1,95,203,20,348.3784742000007,348.3784742000007,348.87911370000074,348.94555630000104,348.99585500000103,348.99585500000103,348.99585500000103,348.99585500000103,349.0458296000015,349.0458296000015,349.0458296000015,349.0458296000015,349.0458296000015,349.0458296000015,349.0458296000015,349.0458296000015,349.0458296000015,left,0.5329568999986805,349.5962016000012,349.5962016000012,None,,7,001,2025-12-17_15h05.53.213,2025C_exp1_comp,2022.2.4,60.003624219431245,
19.6,45,-1,1,1,96,204,38,349.5962016000012,349.5962016000012,350.09654520000004,350.1634636000017,350.21366650000164,350.21366650000164,350.21366650000164,350.21366650000164,350.26335590000053,350.26335590000053,350.26335590000053,350.26335590000053,350.26335590000053,350.26335590000053,350.26335590000053,350.26335590000053,350.26335590000053,right,0.5871093999994628,350.8808863000013,350.8808863000013,None,,7,001,2025-12-17_15h05.53.213,2025C_exp1_comp,2022.2.4,60.003624219431245,
42.7,45,-1,-1,1,97,205,80,350.8808863000013,350.8808863000013,351.38165130000016,351.4483427000014,351.4985049000006,351.4985049000006,351.4985049000006,351.4985049000006,351.54828120000093,351.54828120000093,351.54828120000093,351.54828120000093,351.54828120000093,351.54828120000093,351.54828120000093,351.54828120000093,351.54828120000093,right,0.6950665999993362,352.2656414000012,352.2656414000012,None,,7,001,2025-12-17_15h05.53.213,2025C_exp1_comp,2022.2.4,60.003624219431245,
42.7,315,-1,0,1,98,206,17,352.2656414000012,352.2656414000012,352.76620080000066,352.83290750000015,352.8829428000008,352.8829428000008,352.8829428000008,352.8829428000008,352.9327200000007,352.9327200000007,352.9327200000007,352.9327200000007,352.9327200000007,352.9327200000007,352.9327200000007,352.9327200000007,352.9327200000007,right,0.5104685999995127,353.4668892000009,353.4668892000009,None,,7,001,2025-12-17_15h05.53.213,2025C_exp1_comp,2022.2.4,60.003624219431245,
