contrast,ori,side,precue,trials.thisRepN,trials.thisTrialN,trials.thisN,trials.thisIndex,fix1.started,fix2.started,precue_2.started,precue_2.stopped,left_grating.started,right_grating.started,noise_left2.started,noise_right2.started,fix1.stopped,fix2.stopped,left_grating.stopped,right_grating.stopped,noise_left2.stopped,noise_right2.stopped,key_resp.started,fix1_2.started,fix2_2.started,key_resp.keys,key_resp.rt,key_resp_2.started,break_text_2.started,key_resp_2.keys,key_resp_2.rt,participant,session,date,expName,psychopyVersion,frameRate,
19.6,45,-1,0,0,0,0,2,32.01418040000135,32.01418040000135,32.48860820000118,32.555078699999285,32.61467350000021,32.61467350000021,32.61467350000021,32.61467350000021,32.65531259999989,32.65531259999989,32.65531259999989,32.65531259999989,32.65531259999989,32.65531259999989,32.671898799999326,32.671898799999326,32.671898799999326,right,7.212844399997266,39.9127905000023,39.9127905000023,None,,8,001,2025-12-17_17h01.30.411,2025C_exp1_comp,2022.2.4,59.85518636256305,
35.3,45,1,1,0,1,1,60,39.9127905000023,39.9127905000023,40.41322819999914,40.479951600002096,40.53026580000005,40.53026580000005,40.53026580000005,40.53026580000005,40.57992880000165,40.57992880000165,40.57992880000165,40.57992880000165,40.57992880000165,40.57992880000165,40.57992880000165,40.57992880000165,40.57992880000165,right,5.736579099997471,46.33556350000072,46.33556350000072,None,,8,001,2025-12-17_17h01.30.411,2025C_exp1_comp,2022.2.4,59.85518636256305,
42.7,315,1,1,0,2,2,71,46.33556350000072,46.33556350000072,46.83609450000222,46.902800700001535,46.95299920000252,46.95299920000252,46.95299920000252,46.95299920000252,47.002989500000695,47.002989500000695,47.002989500000695,47.002989500000695,47.002989500000695,47.002989500000695,47.002989500000695,47.002989500000695,47.002989500000695,left,8.834471799997118,55.862110900001426,55.862110900001426,None,,8,001,2025-12-17_17h01.30.411,2025C_exp1_comp,2022.2.4,59.85518636256305,
12.1,315,-1,1,0,3,3,45,55.862110900001426,55.862110900001426,56.36227390000204,56.429209800000535,56.47938680000152,56.47938680000152,56.47938680000152,56.47938680000152,56.529321800000616,56.529321800000616,56.529321800000616,56.529321800000616,56.529321800000616,56.529321800000616,56.529321800000616,56.529321800000616,56.529321800000616,right,7.987105799998972,64.53719400000045,64.53719400000045,None,,8,001,2025-12-17_17h01.30.411,2025C_exp1_comp,2022.2.4,59.85518636256305,
25.5,315,-1,-1,0,4,4,85,64.53719400000045,64.53719400000045,65.03781879999951,65.10454010000103,65.1548240000011,65.1548240000011,65.1548240000011,65.1548240000011,65.20465870000044,65.20465870000044,65.20465870000044,65.20465870000044,65.20465870000044,65.20465870000044,65.20465870000044,65.20465870000044,65.20465870000044,right,2.3679817999945953,67.59035869999934,67.59035869999934,None,,8,001,2025-12-17_17h01.30.411,2025C_exp1_comp,2022.2.4,59.85518636256305,
12.1,45,-1,0,0,5,5,0,67.59035869999934,67.59035869999934,68.09104560000196,68.15757170000143,68.20771620000232,68.20771620000232,68.20771620000232,68.20771620000232,68.25758540000243,68.25758540000243,68.25758540000243,68.25758540000243,68.25758540000243,68.25758540000243,68.25758540000243,68.25758540000243,68.25758540000243,right,1.0431750999996439,69.32540510000035,69.32540510000035,None,,8,001,2025-12-17_17h01.30.411,2025C_exp1_comp,2022.2.4,59.85518636256305,
22.7,315,-1,-1,0,6,6,84,69.32540510000035,69.32540510000035,69.82593560000169,69.89255540000158,69.94311110000126,69.94311110000126,69.94311110000126,69.94311110000126,69.99278720000075,69.99278720000075,69.99278720000075,69.99278720000075,69.99278720000075,69.99278720000075,69.99278720000075,69.99278720000075,69.99278720000075,right,18.28293219999614,88.29438339999979,88.29438339999979,None,,8,001,2025-12-17_17h01.30.411,2025C_exp1_comp,2022.2.4,59.85518636256305,
12.1,315,1,-1,0,7,7,99,88.29438339999979,88.29438339999979,88.79487680000238,88.861378900001,88.91162560000157,88.91162560000157,88.91162560000157,88.91162560000157,88.96145049999905,88.96145049999905,88.96145049999905,88.96145049999905,88.96145049999905,88.96145049999905,88.96145049999905,88.96145049999905,88.96145049999905,left,0.7143537999982073,89.69572100000005,89.69572100000005,None,,8,001,2025-12-17_17h01.30.411,2025C_exp1_comp,2022.2.4,59.85518636256305,
29.4,315,1,0,0,8,8,32,89.69572100000005,89.69572100000005,90.19635779999953,90.26295360000222,90.31340140000248,90.31340140000248,90.31340140000248,90.31340140000248,90.3631755000024,90.3631755000024,90.3631755000024,90.3631755000024,90.3631755000024,90.3631755000024,90.3631755000024,90.3631755000024,90.3631755000024,left,1.1936084999942977,91.58094560000245,91.58094560000245,None,,8,001,2025-12-17_17h01.30.411,2025C_exp1_comp,2022.2.4,59.85518636256305,
29.4,315,1,-1,0,9,9,104,91.58094560000245,91.58094560000245,92.0815892999999,92.14833820000058,92.19863479999913,92.19863479999913,92.19863479999913,92.19863479999913,92.24827390000064,92.24827390000064,92.24827390000064,92.24827390000064,92.24827390000064,92.24827390000064,92.24827390000064,92.24827390000064,92.24827390000064,left,0.8839603999949759,93.1492481000023,93.1492481000023,None,,8,001,2025-12-17_17h01.30.411,2025C_exp1_comp,2022.2.4,59.85518636256305,
42.7,45,1,-1,0,10,10,98,93.1492481000023,93.1492481000023,93.64975989999948,93.71655689999898,93.76687610000226,93.76687610000226,93.76687610000226,93.76687610000226,93.81670840000152,93.81670840000152,93.81670840000152,93.81670840000152,93.81670840000152,93.81670840000152,93.81670840000152,93.81670840000152,93.81670840000152,right,1.4762564999946335,95.31792060000225,95.31792060000225,None,,8,001,2025-12-17_17h01.30.411,2025C_exp1_comp,2022.2.4,59.85518636256305,
12.1,45,1,0,0,11,11,18,95.31792060000225,95.31792060000225,95.81861070000014,95.88537670000005,95.93557320000036,95.93557320000036,95.93557320000036,95.93557320000036,95.9853643000024,95.9853643000024,95.9853643000024,95.9853643000024,95.9853643000024,95.9853643000024,95.9853643000024,95.9853643000024,95.9853643000024,left,0.6510753999973531,96.65281390000018,96.65281390000018,None,,8,001,2025-12-17_17h01.30.411,2025C_exp1_comp,2022.2.4,59.85518636256305,
19.6,45,1,0,0,12,12,20,96.65281390000018,96.65281390000018,97.15296110000054,97.2199572999998,97.27010850000079,97.27010850000079,97.27010850000079,97.27010850000079,97.32006779999938,97.32006779999938,97.32006779999938,97.32006779999938,97.32006779999938,97.32006779999938,97.32006779999938,97.32006779999938,97.32006779999938,left,0.6604697999973723,98.00407570000243,98.00407570000243,None,,8,001,2025-12-17_17h01.30.411,2025C_exp1_comp,2022.2.4,59.85518636256305,
25.5,315,1,1,0,13,13,67,98.00407570000243,98.00407570000243,98.50475830000141,98.57133439999961,98.62156790000154,98.62156790000154,98.62156790000154,98.62156790000154,98.67128450000018,98.67128450000018,98.67128450000018,98.67128450000018,98.67128450000018,98.67128450000018,98.67128450000018,98.67128450000018,98.67128450000018,left,0.6931052999971143,99.38873450000028,99.38873450000028,None,,8,001,2025-12-17_17h01.30.411,2025C_exp1_comp,2022.2.4,59.85518636256305,
42.7,315,-1,0,0,14,14,17,99.38873450000028,99.38873450000028,99.88922960000127,99.95602200000212,100.00634680000076,100.00634680000076,100.00634680000076,100.00634680000076,100.05614609999975,100.05614609999975,100.05614609999975,100.05614609999975,100.05614609999975,100.05614609999975,100.05614609999975,100.05614609999975,100.05614609999975,left,1.1317985999994562,101.20703940000021,101.20703940000021,None,,8,001,2025-12-17_17h01.30.411,2025C_exp1_comp,2022.2.4,59.85518636256305,
15.7,45,-1,-1,0,15,15,73,101.20703940000021,101.20703940000021,101.70782730000064,101.77420790000178,101.82454180000059,101.82454180000059,101.82454180000059,101.82454180000059,101.87429920000068,101.87429920000068,101.87429920000068,101.87429920000068,101.87429920000068,101.87429920000068,101.87429920000068,101.87429920000068,101.87429920000068,right,0.722123499996087,102.6250942000006,102.6250942000006,None,,8,001,2025-12-17_17h01.30.411,2025C_exp1_comp,2022.2.4,59.85518636256305,
39.2,45,1,0,0,16,16,25,102.6250942000006,102.6250942000006,103.12556640000184,103.19238849999965,103.24263889999929,103.24263889999929,103.24263889999929,103.24263889999929,103.29239120000057,103.29239120000057,103.29239120000057,103.29239120000057,103.29239120000057,103.29239120000057,103.29239120000057,103.29239120000057,103.29239120000057,right,1.2873335999975097,104.61036500000046,104.61036500000046,None,,8,001,2025-12-17_17h01.30.411,2025C_exp1_comp,2022.2.4,59.85518636256305,
35.3,315,-1,1,0,17,17,51,104.61036500000046,104.61036500000046,105.11091690000103,105.17763170000035,105.2279337,105.2279337,105.2279337,105.2279337,105.27774150000187,105.27774150000187,105.27774150000187,105.27774150000187,105.27774150000187,105.27774150000187,105.27774150000187,105.27774150000187,105.27774150000187,left,0.8940422999985458,106.19543200000044,106.19543200000044,None,,8,001,2025-12-17_17h01.30.411,2025C_exp1_comp,2022.2.4,59.85518636256305,
42.7,45,1,1,0,18,18,62,106.19543200000044,106.19543200000044,106.69586039999922,106.76251690000208,106.81282040000224,106.81282040000224,106.81282040000224,106.81282040000224,106.86258409999937,106.86258409999937,106.86258409999937,106.86258409999937,106.86258409999937,106.86258409999937,106.86258409999937,106.86258409999937,106.86258409999937,left,0.8458747999975458,107.73014400000102,107.73014400000102,None,,8,001,2025-12-17_17h01.30.411,2025C_exp1_comp,2022.2.4,59.85518636256305,
22.7,315,1,0,0,19,19,30,107.73014400000102,107.73014400000102,108.23125260000234,108.29769769999984,108.34802950000085,108.34802950000085,108.34802950000085,108.34802950000085,108.39805160000105,108.39805160000105,108.39805160000105,108.39805160000105,108.39805160000105,108.39805160000105,108.39805160000105,108.39805160000105,108.39805160000105,left,0.8061632999997528,109.2318426999991,109.2318426999991,None,,8,001,2025-12-17_17h01.30.411,2025C_exp1_comp,2022.2.4,59.85518636256305,
25.5,45,-1,0,0,20,20,4,109.2318426999991,109.2318426999991,109.73245800000223,109.79917080000087,109.84949839999899,109.84949839999899,109.84949839999899,109.84949839999899,109.89927259999968,109.89927259999968,109.89927259999968,109.89927259999968,109.89927259999968,109.89927259999968,109.89927259999968,109.89927259999968,109.89927259999968,left,0.793645400000969,110.7166524000022,110.7166524000022,None,,8,001,2025-12-17_17h01.30.411,2025C_exp1_comp,2022.2.4,59.85518636256305,
35.3,315,-1,0,0,21,21,15,110.7166524000022,110.7166524000022,111.21733180000228,111.2840400999994,111.33448950000093,111.33448950000093,111.33448950000093,111.33448950000093,111.38395089999904,111.38395089999904,111.38395089999904,111.38395089999904,111.38395089999904,111.38395089999904,111.38395089999904,111.38395089999904,111.38395089999904,left,0.6439602999962517,112.05152640000233,112.05152640000233,None,,8,001,2025-12-17_17h01.30.411,2025C_exp1_comp,2022.2.4,59.85518636256305,
29.4,315,-1,1,0,22,22,50,112.05152640000233,112.05152640000233,112.55201660000239,112.61859270000059,112.66903749999983,112.66903749999983,112.66903749999983,112.66903749999983,112.71883140000136,112.71883140000136,112.71883140000136,112.71883140000136,112.71883140000136,112.71883140000136,112.71883140000136,112.71883140000136,112.71883140000136,left,0.846369599999889,113.58642429999963,113.58642429999963,None,,8,001,2025-12-17_17h01.30.411,2025C_exp1_comp,2022.2.4,59.85518636256305,
42.7,315,-1,-1,0,23,23,89,113.58642429999963,113.58642429999963,114.08678290000171,114.15355310000086,114.2037550999994,114.2037550999994,114.2037550999994,114.2037550999994,114.25358310000229,114.25358310000229,114.25358310000229,114.25358310000229,114.25358310000229,114.25358310000229,114.25358310000229,114.25358310000229,114.25358310000229,right,0.7913485999997647,115.07112070000221,115.07112070000221,None,,8,001,2025-12-17_17h01.30.411,2025C_exp1_comp,2022.2.4,59.85518636256305,
22.7,45,1,0,0,24,24,21,115.07112070000221,115.07112070000221,115.57147070000065,115.63823360000242,115.68866340000022,115.68866340000022,115.68866340000022,115.68866340000022,115.73817250000138,115.73817250000138,115.73817250000138,115.73817250000138,115.73817250000138,115.73817250000138,115.73817250000138,115.73817250000138,115.73817250000138,left,0.6340090999947279,116.38908100000117,116.38908100000117,None,,8,001,2025-12-17_17h01.30.411,2025C_exp1_comp,2022.2.4,59.85518636256305,
39.2,45,1,1,0,25,25,61,116.38908100000117,116.38908100000117,116.88963240000157,116.95638180000242,117.00664669999969,117.00664669999969,117.00664669999969,117.00664669999969,117.05637539999952,117.05637539999952,117.05637539999952,117.05637539999952,117.05637539999952,117.05637539999952,117.05637539999952,117.05637539999952,117.05637539999952,left,0.8680843999973149,117.95730510000067,117.95730510000067,None,,8,001,2025-12-17_17h01.30.411,2025C_exp1_comp,2022.2.4,59.85518636256305,
12.1,315,-1,0,0,26,26,9,117.95730510000067,117.95730510000067,118.45772650000072,118.52458320000005,118.57504360000166,118.57504360000166,118.57504360000166,118.57504360000166,118.62482860000091,118.62482860000091,118.62482860000091,118.62482860000091,118.62482860000091,118.62482860000091,118.62482860000091,118.62482860000091,118.62482860000091,right,0.635366200000135,119.29200720000154,119.29200720000154,None,,8,001,2025-12-17_17h01.30.411,2025C_exp1_comp,2022.2.4,59.85518636256305,
39.2,315,1,-1,0,27,27,106,119.29200720000154,119.29200720000154,119.79252439999982,119.85901379999996,119.90943130000232,119.90943130000232,119.90943130000232,119.90943130000232,119.95934760000091,119.95934760000091,119.95934760000091,119.95934760000091,119.95934760000091,119.95934760000091,119.95934760000091,119.95934760000091,119.95934760000091,right,0.7574806999982684,120.74352100000033,120.74352100000033,None,,8,001,2025-12-17_17h01.30.411,2025C_exp1_comp,2022.2.4,59.85518636256305,
25.5,45,1,1,0,28,28,58,120.74352100000033,120.74352100000033,121.24422160000177,121.31095629999982,121.36099119999926,121.36099119999926,121.36099119999926,121.36099119999926,121.41079810000156,121.41079810000156,121.41079810000156,121.41079810000156,121.41079810000156,121.41079810000156,121.41079810000156,121.41079810000156,121.41079810000156,left,0.6570281999956933,122.09454410000035,122.09454410000035,None,,8,001,2025-12-17_17h01.30.411,2025C_exp1_comp,2022.2.4,59.85518636256305,
15.7,315,-1,1,0,29,29,46,122.09454410000035,122.09454410000035,122.59521070000119,122.66197920000195,122.71225799999957,122.71225799999957,122.71225799999957,122.71225799999957,122.76211030000195,122.76211030000195,122.76211030000195,122.76211030000195,122.76211030000195,122.76211030000195,122.76211030000195,122.76211030000195,122.76211030000195,right,0.8254395999974804,123.61282470000151,123.61282470000151,None,,8,001,2025-12-17_17h01.30.411,2025C_exp1_comp,2022.2.4,59.85518636256305,
19.6,315,-1,-1,0,30,30,83,123.61282470000151,123.61282470000151,124.11378519999926,124.18047630000001,124.23077399999966,124.23077399999966,124.23077399999966,124.23077399999966,124.28058990000136,124.28058990000136,124.28058990000136,124.28058990000136,124.28058990000136,124.28058990000136,124.28058990000136,124.28058990000136,124.28058990000136,right,0.5802570999985619,124.88119350000125,124.88119350000125,None,,8,001,2025-12-17_17h01.30.411,2025C_exp1_comp,2022.2.4,59.85518636256305,
15.7,45,-1,1,0,31,31,37,124.88119350000125,124.88119350000125,125.38170130000071,125.44815390000076,125.49849610000092,125.49849610000092,125.49849610000092,125.49849610000092,125.54825260000143,125.54825260000143,125.54825260000143,125.54825260000143,125.54825260000143,125.54825260000143,125.54825260000143,125.54825260000143,125.54825260000143,right,0.6084700999963388,126.18226630000208,126.18226630000208,None,,8,001,2025-12-17_17h01.30.411,2025C_exp1_comp,2022.2.4,59.85518636256305,
39.2,315,-1,-1,0,32,32,88,126.18226630000208,126.18226630000208,126.68274880000172,126.74959410000156,126.79994950000037,126.79994950000037,126.79994950000037,126.79994950000037,126.8497212000002,126.8497212000002,126.8497212000002,126.8497212000002,126.8497212000002,126.8497212000002,126.8497212000002,126.8497212000002,126.8497212000002,left,0.5781411999996635,127.45017890000236,127.45017890000236,None,,8,001,2025-12-17_17h01.30.411,2025C_exp1_comp,2022.2.4,59.85518636256305,
29.4,315,-1,-1,0,33,33,86,127.45017890000236,127.45017890000236,127.95085760000075,128.01752359999955,128.06781830000182,128.06781830000182,128.06781830000182,128.06781830000182,128.11740500000087,128.11740500000087,128.11740500000087,128.11740500000087,128.11740500000087,128.11740500000087,128.11740500000087,128.11740500000087,128.11740500000087,right,1.0635963999993692,129.20190390000062,129.20190390000062,None,,8,001,2025-12-17_17h01.30.411,2025C_exp1_comp,2022.2.4,59.85518636256305,
15.7,315,-1,-1,0,34,34,82,129.20190390000062,129.20190390000062,129.70219010000073,129.76911599999949,129.81934390000242,129.81934390000242,129.81934390000242,129.81934390000242,129.86925379999957,129.86925379999957,129.86925379999957,129.86925379999957,129.86925379999957,129.86925379999957,129.86925379999957,129.86925379999957,129.86925379999957,right,0.5117502999964927,130.4031156000019,130.4031156000019,None,,8,001,2025-12-17_17h01.30.411,2025C_exp1_comp,2022.2.4,59.85518636256305,
29.4,45,-1,1,0,35,35,41,130.4031156000019,130.4031156000019,130.90366020000147,130.9702483000001,131.02044670000032,131.02044670000032,131.02044670000032,131.02044670000032,131.07056759999978,131.07056759999978,131.07056759999978,131.07056759999978,131.07056759999978,131.07056759999978,131.07056759999978,131.07056759999978,131.07056759999978,right,0.5893472999996447,131.68759630000204,131.68759630000204,None,,8,001,2025-12-17_17h01.30.411,2025C_exp1_comp,2022.2.4,59.85518636256305,
19.6,45,1,1,0,36,36,56,131.68759630000204,131.68759630000204,132.18793460000234,132.25514850000036,132.3054645000011,132.3054645000011,132.3054645000011,132.3054645000011,132.35475159999987,132.35475159999987,132.35475159999987,132.35475159999987,132.35475159999987,132.35475159999987,132.35475159999987,132.35475159999987,132.35475159999987,left,0.4896195999972406,132.8719600000004,132.8719600000004,None,,8,001,2025-12-17_17h01.30.411,2025C_exp1_comp,2022.2.4,59.85518636256305,
15.7,315,1,1,0,37,37,64,132.8719600000004,132.8719600000004,133.3726878000016,133.43914750000113,133.4895710000019,133.4895710000019,133.4895710000019,133.4895710000019,133.5392821000023,133.5392821000023,133.5392821000023,133.5392821000023,133.5392821000023,133.5392821000023,133.5392821000023,133.5392821000023,133.5392821000023,left,0.5290895999969507,134.0898113000003,134.0898113000003,None,,8,001,2025-12-17_17h01.30.411,2025C_exp1_comp,2022.2.4,59.85518636256305,
22.7,45,-1,-1,0,38,38,75,134.0898113000003,134.0898113000003,134.59032950000255,134.6570654999996,134.70742330000212,134.70742330000212,134.70742330000212,134.70742330000212,134.75713929999984,134.75713929999984,134.75713929999984,134.75713929999984,134.75713929999984,134.75713929999984,134.75713929999984,134.75713929999984,134.75713929999984,right,0.6386854999982461,135.42450780000217,135.42450780000217,None,,8,001,2025-12-17_17h01.30.411,2025C_exp1_comp,2022.2.4,59.85518636256305,
15.7,45,-1,0,0,39,39,1,135.42450780000217,135.42450780000217,135.9252106999993,135.99171360000037,136.04204160000154,136.04204160000154,136.04204160000154,136.04204160000154,136.0918199000007,136.0918199000007,136.0918199000007,136.0918199000007,136.0918199000007,136.0918199000007,136.0918199000007,136.0918199000007,136.0918199000007,right,0.9283460999977251,137.04277450000154,137.04277450000154,None,,8,001,2025-12-17_17h01.30.411,2025C_exp1_comp,2022.2.4,59.85518636256305,
12.1,45,-1,1,0,40,40,36,137.04277450000154,137.04277450000154,137.54330879999907,137.61005060000025,137.66047570000228,137.66047570000228,137.66047570000228,137.66047570000228,137.71027850000246,137.71027850000246,137.71027850000246,137.71027850000246,137.71027850000246,137.71027850000246,137.71027850000246,137.71027850000246,137.71027850000246,right,0.4860826999974961,138.2276192999998,138.2276192999998,None,,8,001,2025-12-17_17h01.30.411,2025C_exp1_comp,2022.2.4,59.85518636256305,
22.7,45,1,1,0,41,41,57,138.2276192999998,138.2276192999998,138.7279621000016,138.79483900000196,138.84502390000125,138.84502390000125,138.84502390000125,138.84502390000125,138.89490289999958,138.89490289999958,138.89490289999958,138.89490289999958,138.89490289999958,138.89490289999958,138.89490289999958,138.89490289999958,138.89490289999958,left,0.46984560000055353,139.3954343000005,139.3954343000005,None,,8,001,2025-12-17_17h01.30.411,2025C_exp1_comp,2022.2.4,59.85518636256305,
19.6,45,1,-1,0,42,42,92,139.3954343000005,139.3954343000005,139.8959849999992,139.96264359999986,140.012883899999,140.012883899999,140.012883899999,140.012883899999,140.0626192000018,140.0626192000018,140.0626192000018,140.0626192000018,140.0626192000018,140.0626192000018,140.0626192000018,140.0626192000018,140.0626192000018,left,0.45345889999589417,140.54627660000187,140.54627660000187,None,,8,001,2025-12-17_17h01.30.411,2025C_exp1_comp,2022.2.4,59.85518636256305,
29.4,315,1,1,0,43,43,68,140.54627660000187,140.54627660000187,141.04714180000155,141.1136778,141.16420389999985,141.16420389999985,141.16420389999985,141.16420389999985,141.2139160000006,141.2139160000006,141.2139160000006,141.2139160000006,141.2139160000006,141.2139160000006,141.2139160000006,141.2139160000006,141.2139160000006,left,0.494979199997033,141.73113809999995,141.73113809999995,None,,8,001,2025-12-17_17h01.30.411,2025C_exp1_comp,2022.2.4,59.85518636256305,
25.5,315,1,0,0,44,44,31,141.73113809999995,141.73113809999995,142.2317361000023,142.29859770000257,142.3488939000017,142.3488939000017,142.3488939000017,142.3488939000017,142.39868639999986,142.39868639999986,142.39868639999986,142.39868639999986,142.39868639999986,142.39868639999986,142.39868639999986,142.39868639999986,142.39868639999986,left,0.5175052999948093,142.94901469999968,142.94901469999968,None,,8,001,2025-12-17_17h01.30.411,2025C_exp1_comp,2022.2.4,59.85518636256305,
22.7,315,-1,0,0,45,45,12,142.94901469999968,142.94901469999968,143.44958260000203,143.51620840000032,143.56653619999997,143.56653619999997,143.56653619999997,143.56653619999997,143.61617820000174,143.61617820000174,143.61617820000174,143.61617820000174,143.61617820000174,143.61617820000174,143.61617820000174,143.61617820000174,143.61617820000174,right,0.5398225999997521,144.18334120000145,144.18334120000145,None,,8,001,2025-12-17_17h01.30.411,2025C_exp1_comp,2022.2.4,59.85518636256305,
42.7,45,1,0,0,46,46,26,144.18334120000145,144.18334120000145,144.6837630000009,144.75067780000245,144.80100850000235,144.80100850000235,144.80100850000235,144.80100850000235,144.85087380000186,144.85087380000186,144.85087380000186,144.85087380000186,144.85087380000186,144.85087380000186,144.85087380000186,144.85087380000186,144.85087380000186,left,0.584825699996145,145.46816860000035,145.46816860000035,None,,8,001,2025-12-17_17h01.30.411,2025C_exp1_comp,2022.2.4,59.85518636256305,
19.6,315,1,0,0,47,47,29,145.46816860000035,145.46816860000035,145.9684268000019,146.03544049999982,146.08561910000208,146.08561910000208,146.08561910000208,146.08561910000208,146.135509300002,146.135509300002,146.135509300002,146.135509300002,146.135509300002,146.135509300002,146.135509300002,146.135509300002,146.135509300002,left,0.4602433999971254,146.61932150000212,146.61932150000212,None,,8,001,2025-12-17_17h01.30.411,2025C_exp1_comp,2022.2.4,59.85518636256305,
25.5,45,1,0,0,48,48,22,146.61932150000212,146.61932150000212,147.11970850000216,147.1865484000009,147.23654610000085,147.23654610000085,147.23654610000085,147.23654610000085,147.28669580000133,147.28669580000133,147.28669580000133,147.28669580000133,147.28669580000133,147.28669580000133,147.28669580000133,147.28669580000133,147.28669580000133,left,0.4937897999989218,147.80364050000207,147.80364050000207,None,,8,001,2025-12-17_17h01.30.411,2025C_exp1_comp,2022.2.4,59.85518636256305,
35.3,45,-1,1,0,49,49,42,147.80364050000207,147.80364050000207,148.30422140000155,148.37108060000173,148.42137390000062,148.42137390000062,148.42137390000062,148.42137390000062,148.4711709000003,148.4711709000003,148.4711709000003,148.4711709000003,148.4711709000003,148.4711709000003,148.4711709000003,148.4711709000003,148.4711709000003,left,0.4525110999966273,148.95498910000242,148.95498910000242,None,,8,001,2025-12-17_17h01.30.411,2025C_exp1_comp,2022.2.4,59.85518636256305,
42.7,45,-1,1,0,50,50,44,148.95498910000242,148.95498910000242,149.45538230000238,149.52219089999926,149.57251180000094,149.57251180000094,149.57251180000094,149.57251180000094,149.62229920000027,149.62229920000027,149.62229920000027,149.62229920000027,149.62229920000027,149.62229920000027,149.62229920000027,149.62229920000027,149.62229920000027,left,0.5106553999976313,150.1560313000009,150.1560313000009,None,,8,001,2025-12-17_17h01.30.411,2025C_exp1_comp,2022.2.4,59.85518636256305,
35.3,45,-1,0,0,51,51,6,150.1560313000009,150.1560313000009,150.65684690000126,150.7234481000014,150.77382950000174,150.77382950000174,150.77382950000174,150.77382950000174,150.82355140000072,150.82355140000072,150.82355140000072,150.82355140000072,150.82355140000072,150.82355140000072,150.82355140000072,150.82355140000072,150.82355140000072,left,0.5009197999970638,151.35708010000235,151.35708010000235,None,,8,001,2025-12-17_17h01.30.411,2025C_exp1_comp,2022.2.4,59.85518636256305,
25.5,45,-1,-1,0,52,52,76,151.35708010000235,151.35708010000235,151.85794650000025,151.92462890000024,151.9749042000003,151.9749042000003,151.9749042000003,151.9749042000003,152.0247546999999,152.0247546999999,152.0247546999999,152.0247546999999,152.0247546999999,152.0247546999999,152.0247546999999,152.0247546999999,152.0247546999999,right,0.5482982999965316,152.59183309999935,152.59183309999935,None,,8,001,2025-12-17_17h01.30.411,2025C_exp1_comp,2022.2.4,59.85518636256305,
35.3,315,1,0,0,53,53,33,152.59183309999935,152.59183309999935,153.092156900002,153.1592141000001,153.20949960000144,153.20949960000144,153.20949960000144,153.20949960000144,153.2589626000008,153.2589626000008,153.2589626000008,153.2589626000008,153.2589626000008,153.2589626000008,153.2589626000008,153.2589626000008,153.2589626000008,left,0.4735032999997202,153.75970080000116,153.75970080000116,None,,8,001,2025-12-17_17h01.30.411,2025C_exp1_comp,2022.2.4,59.85518636256305,
29.4,45,-1,0,0,54,54,5,153.75970080000116,153.75970080000116,154.26031480000165,154.32693760000257,154.3772753000012,154.3772753000012,154.3772753000012,154.3772753000012,154.4271097000019,154.4271097000019,154.4271097000019,154.4271097000019,154.4271097000019,154.4271097000019,154.4271097000019,154.4271097000019,154.4271097000019,left,0.4737918999962858,154.9275783000012,154.9275783000012,None,,8,001,2025-12-17_17h01.30.411,2025C_exp1_comp,2022.2.4,59.85518636256305,
12.1,315,1,1,0,55,55,63,154.9275783000012,154.9275783000012,155.42838060000213,155.49511640000128,155.5453395000004,155.5453395000004,155.5453395000004,155.5453395000004,155.59519179999916,155.59519179999916,155.59519179999916,155.59519179999916,155.59519179999916,155.59519179999916,155.59519179999916,155.59519179999916,155.59519179999916,left,0.497409499999776,156.11218849999932,156.11218849999932,None,,8,001,2025-12-17_17h01.30.411,2025C_exp1_comp,2022.2.4,59.85518636256305,
15.7,45,1,-1,0,56,56,91,156.11218849999932,156.11218849999932,156.61263400000098,156.679323700002,156.72968039999978,156.72968039999978,156.72968039999978,156.72968039999978,156.77945510000063,156.77945510000063,156.77945510000063,156.77945510000063,156.77945510000063,156.77945510000063,156.77945510000063,156.77945510000063,156.77945510000063,left,0.5044177999989188,157.31300159999955,157.31300159999955,None,,8,001,2025-12-17_17h01.30.411,2025C_exp1_comp,2022.2.4,59.85518636256305,
39.2,45,1,-1,0,57,57,97,157.31300159999955,157.31300159999955,157.81357610000123,157.88027200000215,157.93059730000095,157.93059730000095,157.93059730000095,157.93059730000095,157.9804597000002,157.9804597000002,157.9804597000002,157.9804597000002,157.9804597000002,157.9804597000002,157.9804597000002,157.9804597000002,157.9804597000002,left,0.9351070999982767,158.9479664999999,158.9479664999999,None,,8,001,2025-12-17_17h01.30.411,2025C_exp1_comp,2022.2.4,59.85518636256305,
29.4,45,-1,-1,0,58,58,77,158.9479664999999,158.9479664999999,159.44857029999912,159.51527390000047,159.56551330000002,159.56551330000002,159.56551330000002,159.56551330000002,159.61529840000003,159.61529840000003,159.61529840000003,159.61529840000003,159.61529840000003,159.61529840000003,159.61529840000003,159.61529840000003,159.61529840000003,left,0.5966206999983115,160.232757400001,160.232757400001,None,,8,001,2025-12-17_17h01.30.411,2025C_exp1_comp,2022.2.4,59.85518636256305,
12.1,45,1,-1,0,59,59,90,160.232757400001,160.232757400001,160.73311000000103,160.79985840000154,160.8502847000018,160.8502847000018,160.8502847000018,160.8502847000018,160.89992390000043,160.89992390000043,160.89992390000043,160.89992390000043,160.89992390000043,160.89992390000043,160.89992390000043,160.89992390000043,160.89992390000043,left,0.48018859999865526,161.400418600002,161.400418600002,None,,8,001,2025-12-17_17h01.30.411,2025C_exp1_comp,2022.2.4,59.85518636256305,
19.6,315,1,-1,0,60,60,101,161.400418600002,161.400418600002,161.90093830000114,161.9676911000024,162.01796240000112,162.01796240000112,162.01796240000112,162.01796240000112,162.06776589999936,162.06776589999936,162.06776589999936,162.06776589999936,162.06776589999936,162.06776589999936,162.06776589999936,162.06776589999936,162.06776589999936,left,0.5122065999967162,162.60162160000255,162.60162160000255,None,,8,001,2025-12-17_17h01.30.411,2025C_exp1_comp,2022.2.4,59.85518636256305,
35.3,45,1,-1,0,61,61,96,162.60162160000255,162.60162160000255,163.10214110000015,163.16888290000134,163.21920170000158,163.21920170000158,163.21920170000158,163.21920170000158,163.26898060000167,163.26898060000167,163.26898060000167,163.26898060000167,163.26898060000167,163.26898060000167,163.26898060000167,163.26898060000167,163.26898060000167,left,0.47100769999451586,163.76949260000038,163.76949260000038,None,,8,001,2025-12-17_17h01.30.411,2025C_exp1_comp,2022.2.4,59.85518636256305,
12.1,315,1,0,0,62,62,27,163.76949260000038,163.76949260000038,164.26996800000052,164.33668699999907,164.38696859999982,164.38696859999982,164.38696859999982,164.38696859999982,164.43717509999988,164.43717509999988,164.43717509999988,164.43717509999988,164.43717509999988,164.43717509999988,164.43717509999988,164.43717509999988,164.43717509999988,left,0.47840769999675103,164.93727990000116,164.93727990000116,None,,8,001,2025-12-17_17h01.30.411,2025C_exp1_comp,2022.2.4,59.85518636256305,
39.2,315,-1,1,0,63,63,52,164.93727990000116,164.93727990000116,165.4378108000019,165.50452829999995,165.55482940000002,165.55482940000002,165.55482940000002,165.55482940000002,165.6046277000023,165.6046277000023,165.6046277000023,165.6046277000023,165.6046277000023,165.6046277000023,165.6046277000023,165.6046277000023,165.6046277000023,left,0.47136269999828073,166.10514830000102,166.10514830000102,None,,8,001,2025-12-17_17h01.30.411,2025C_exp1_comp,2022.2.4,59.85518636256305,
19.6,315,-1,1,0,64,64,47,166.10514830000102,166.10514830000102,166.60565780000252,166.67245130000083,166.72266850000233,166.72266850000233,166.72266850000233,166.72266850000233,166.77247030000217,166.77247030000217,166.77247030000217,166.77247030000217,166.77247030000217,166.77247030000217,166.77247030000217,166.77247030000217,166.77247030000217,right,0.647821099995781,167.43986439999935,167.43986439999935,None,,8,001,2025-12-17_17h01.30.411,2025C_exp1_comp,2022.2.4,59.85518636256305,
22.7,315,-1,1,0,65,65,48,167.43986439999935,167.43986439999935,167.9403850000017,168.00704219999898,168.0573551000016,168.0573551000016,168.0573551000016,168.0573551000016,168.1071593000015,168.1071593000015,168.1071593000015,168.1071593000015,168.1071593000015,168.1071593000015,168.1071593000015,168.1071593000015,168.1071593000015,right,0.4568520999964676,168.5909305000023,168.5909305000023,None,,8,001,2025-12-17_17h01.30.411,2025C_exp1_comp,2022.2.4,59.85518636256305,
19.6,315,-1,0,0,66,66,11,168.5909305000023,168.5909305000023,169.09153030000016,169.1584999000006,169.2085060999998,169.2085060999998,169.2085060999998,169.2085060999998,169.25828000000183,169.25828000000183,169.25828000000183,169.25828000000183,169.25828000000183,169.25828000000183,169.25828000000183,169.25828000000183,169.25828000000183,right,0.6016255999966234,169.89220190000196,169.89220190000196,None,,8,001,2025-12-17_17h01.30.411,2025C_exp1_comp,2022.2.4,59.85518636256305,
12.1,315,-1,-1,0,67,67,81,169.89220190000196,169.89220190000196,170.39276049999899,170.45944660000168,170.50981130000218,170.50981130000218,170.50981130000218,170.50981130000218,170.55956510000033,170.55956510000033,170.55956510000033,170.55956510000033,170.55956510000033,170.55956510000033,170.55956510000033,170.55956510000033,170.55956510000033,right,0.4279787999948894,171.01012710000214,171.01012710000214,None,,8,001,2025-12-17_17h01.30.411,2025C_exp1_comp,2022.2.4,59.85518636256305,
39.2,45,-1,1,0,68,68,43,171.01012710000214,171.01012710000214,171.51062210000237,171.57729499999914,171.62784259999898,171.62784259999898,171.62784259999898,171.62784259999898,171.6774503000015,171.6774503000015,171.6774503000015,171.6774503000015,171.6774503000015,171.6774503000015,171.6774503000015,171.6774503000015,171.6774503000015,left,0.5180849999997008,172.2279140999999,172.2279140999999,None,,8,001,2025-12-17_17h01.30.411,2025C_exp1_comp,2022.2.4,59.85518636256305,
15.7,45,1,0,0,69,69,19,172.2279140999999,172.2279140999999,172.72841750000225,172.79513700000098,172.84552959999928,172.84552959999928,172.84552959999928,172.84552959999928,172.89543179999964,172.89543179999964,172.89543179999964,172.89543179999964,172.89543179999964,172.89543179999964,172.89543179999964,172.89543179999964,172.89543179999964,left,0.45293039999887696,173.3790614999998,173.3790614999998,None,,8,001,2025-12-17_17h01.30.411,2025C_exp1_comp,2022.2.4,59.85518636256305,
15.7,315,1,0,0,70,70,28,173.3790614999998,173.3790614999998,173.87956300000224,173.94632199999978,173.99724440000136,173.99724440000136,173.99724440000136,173.99724440000136,174.04640010000003,174.04640010000003,174.04640010000003,174.04640010000003,174.04640010000003,174.04640010000003,174.04640010000003,174.04640010000003,174.04640010000003,left,0.5023518999987573,174.58026320000135,174.58026320000135,None,,8,001,2025-12-17_17h01.30.411,2025C_exp1_comp,2022.2.4,59.85518636256305,
22.7,315,1,-1,0,71,71,102,174.58026320000135,174.58026320000135,175.08089210000253,175.14750900000217,175.19783530000132,175.19783530000132,175.19783530000132,175.19783530000132,175.2476155000004,175.2476155000004,175.2476155000004,175.2476155000004,175.2476155000004,175.2476155000004,175.2476155000004,175.2476155000004,175.2476155000004,left,0.44394289999763714,175.71475500000088,175.71475500000088,None,,8,001,2025-12-17_17h01.30.411,2025C_exp1_comp,2022.2.4,59.85518636256305,
29.4,45,1,0,0,72,72,23,175.71475500000088,175.71475500000088,176.21523530000195,176.2820954000017,176.33226510000168,176.33226510000168,176.33226510000168,176.33226510000168,176.3820952999995,176.3820952999995,176.3820952999995,176.3820952999995,176.3820952999995,176.3820952999995,176.3820952999995,176.3820952999995,176.3820952999995,left,0.6858287999966706,177.09947250000187,177.09947250000187,None,,8,001,2025-12-17_17h01.30.411,2025C_exp1_comp,2022.2.4,59.85518636256305,
42.7,315,-1,1,0,73,73,53,177.09947250000187,177.09947250000187,177.59996450000108,177.6666652999993,177.71698040000047,177.71698040000047,177.71698040000047,177.71698040000047,177.76677800000107,177.76677800000107,177.76677800000107,177.76677800000107,177.76677800000107,177.76677800000107,177.76677800000107,177.76677800000107,177.76677800000107,left,0.5575075999986439,178.35094410000238,178.35094410000238,None,,8,001,2025-12-17_17h01.30.411,2025C_exp1_comp,2022.2.4,59.85518636256305,
42.7,45,-1,0,0,74,74,8,178.35094410000238,178.35094410000238,178.85123980000208,178.91795560000173,178.9682599000007,178.9682599000007,178.9682599000007,178.9682599000007,179.01800840000215,179.01800840000215,179.01800840000215,179.01800840000215,179.01800840000215,179.01800840000215,179.01800840000215,179.01800840000215,179.01800840000215,left,0.4904670999967493,179.53518780000013,179.53518780000013,None,,8,001,2025-12-17_17h01.30.411,2025C_exp1_comp,2022.2.4,59.85518636256305,
42.7,45,-1,-1,0,75,75,80,179.53518780000013,179.53518780000013,180.03571730000112,180.1025260000024,180.15273340000203,180.15273340000203,180.15273340000203,180.15273340000203,180.20255610000095,180.20255610000095,180.20255610000095,180.20255610000095,180.20255610000095,180.20255610000095,180.20255610000095,180.20255610000095,180.20255610000095,left,0.44120529999781866,180.66978129999916,180.66978129999916,None,,8,001,2025-12-17_17h01.30.411,2025C_exp1_comp,2022.2.4,59.85518636256305,
35.3,315,-1,-1,0,76,76,87,180.66978129999916,180.66978129999916,181.17043550000017,181.2369002000014,181.28721030000088,181.28721030000088,181.28721030000088,181.28721030000088,181.3370403000008,181.3370403000008,181.3370403000008,181.3370403000008,181.3370403000008,181.3370403000008,181.3370403000008,181.3370403000008,181.3370403000008,left,0.49888219999775174,181.85418690000006,181.85418690000006,None,,8,001,2025-12-17_17h01.30.411,2025C_exp1_comp,2022.2.4,59.85518636256305,
39.2,315,1,1,0,77,77,70,181.85418690000006,181.85418690000006,182.3547342999991,182.42144570000164,182.47174870000163,182.47174870000163,182.47174870000163,182.47174870000163,182.52155119999952,182.52155119999952,182.52155119999952,182.52155119999952,182.52155119999952,182.52155119999952,182.52155119999952,182.52155119999952,182.52155119999952,left,0.6426819999978761,183.18882040000244,183.18882040000244,None,,8,001,2025-12-17_17h01.30.411,2025C_exp1_comp,2022.2.4,59.85518636256305,
22.7,45,-1,1,0,78,78,39,183.18882040000244,183.18882040000244,183.68939730000056,183.7561186999992,183.80655380000098,183.80655380000098,183.80655380000098,183.80655380000098,183.85616220000156,183.85616220000156,183.85616220000156,183.85616220000156,183.85616220000156,183.85616220000156,183.85616220000156,183.85616220000156,183.85616220000156,right,0.4435464999951364,184.32331469999917,184.32331469999917,None,,8,001,2025-12-17_17h01.30.411,2025C_exp1_comp,2022.2.4,59.85518636256305,
19.6,315,1,1,0,79,79,65,184.32331469999917,184.32331469999917,184.8244267000009,184.89100750000216,184.94113170000128,184.94113170000128,184.94113170000128,184.94113170000128,184.99110780000046,184.99110780000046,184.99110780000046,184.99110780000046,184.99110780000046,184.99110780000046,184.99110780000046,184.99110780000046,184.99110780000046,left,0.5325343000004068,185.541400099999,185.541400099999,None,,8,001,2025-12-17_17h01.30.411,2025C_exp1_comp,2022.2.4,59.85518636256305,
29.4,315,-1,0,0,80,80,14,185.541400099999,185.541400099999,186.04178329999922,186.1086099000022,186.1590553999995,186.1590553999995,186.1590553999995,186.1590553999995,186.2088427000017,186.2088427000017,186.2088427000017,186.2088427000017,186.2088427000017,186.2088427000017,186.2088427000017,186.2088427000017,186.2088427000017,right,0.5479927999949723,186.77596510000149,186.77596510000149,None,,8,001,2025-12-17_17h01.30.411,2025C_exp1_comp,2022.2.4,59.85518636256305,
19.6,45,-1,-1,0,81,81,74,186.77596510000149,186.77596510000149,187.27668339999946,187.34321420000197,187.3936805000012,187.3936805000012,187.3936805000012,187.3936805000012,187.4434586999996,187.4434586999996,187.4434586999996,187.4434586999996,187.4434586999996,187.4434586999996,187.4434586999996,187.4434586999996,187.4434586999996,left,0.6012021999958961,188.07721900000251,188.07721900000251,None,,8,001,2025-12-17_17h01.30.411,2025C_exp1_comp,2022.2.4,59.85518636256305,
15.7,315,-1,0,0,82,82,10,188.07721900000251,188.07721900000251,188.57777800000258,188.6445743000004,188.69486700000198,188.69486700000198,188.69486700000198,188.69486700000198,188.7447850000026,188.7447850000026,188.7447850000026,188.7447850000026,188.7447850000026,188.7447850000026,188.7447850000026,188.7447850000026,188.7447850000026,right,0.523803099997167,189.29527679999956,189.29527679999956,None,,8,001,2025-12-17_17h01.30.411,2025C_exp1_comp,2022.2.4,59.85518636256305,
15.7,45,1,1,0,83,83,55,189.29527679999956,189.29527679999956,189.79583900000216,189.8623934999996,189.9128559000019,189.9128559000019,189.9128559000019,189.9128559000019,189.96249080000052,189.96249080000052,189.96249080000052,189.96249080000052,189.96249080000052,189.96249080000052,189.96249080000052,189.96249080000052,189.96249080000052,left,0.5623500999972748,190.54644259999986,190.54644259999986,None,,8,001,2025-12-17_17h01.30.411,2025C_exp1_comp,2022.2.4,59.85518636256305,
22.7,45,-1,0,0,84,84,3,190.54644259999986,190.54644259999986,191.0471722000002,191.1139473000003,191.1642021000007,191.1642021000007,191.1642021000007,191.1642021000007,191.21386260000145,191.21386260000145,191.21386260000145,191.21386260000145,191.21386260000145,191.21386260000145,191.21386260000145,191.21386260000145,191.21386260000145,right,0.5585271999989345,191.79769170000145,191.79769170000145,None,,8,001,2025-12-17_17h01.30.411,2025C_exp1_comp,2022.2.4,59.85518636256305,
22.7,315,1,1,0,85,85,66,191.79769170000145,191.79769170000145,192.29830199999924,192.3649992999999,192.41523520000192,192.41523520000192,192.41523520000192,192.41523520000192,192.46511020000253,192.46511020000253,192.46511020000253,192.46511020000253,192.46511020000253,192.46511020000253,192.46511020000253,192.46511020000253,192.46511020000253,left,0.46686379999664496,192.94877610000185,192.94877610000185,None,,8,001,2025-12-17_17h01.30.411,2025C_exp1_comp,2022.2.4,59.85518636256305,
35.3,315,1,-1,0,86,86,105,192.94877610000185,192.94877610000185,193.44939689999956,193.51631239999915,193.56671090000236,193.56671090000236,193.56671090000236,193.56671090000236,193.61648880000212,193.61648880000212,193.61648880000212,193.61648880000212,193.61648880000212,193.61648880000212,193.61648880000212,193.61648880000212,193.61648880000212,right,0.5394521999987774,194.18336389999968,194.18336389999968,None,,8,001,2025-12-17_17h01.30.411,2025C_exp1_comp,2022.2.4,59.85518636256305,
25.5,315,1,-1,0,87,87,103,194.18336389999968,194.18336389999968,194.6839175999994,194.75099200000113,194.80133130000104,194.80133130000104,194.80133130000104,194.80133130000104,194.8509324000006,194.8509324000006,194.8509324000006,194.8509324000006,194.8509324000006,194.8509324000006,194.8509324000006,194.8509324000006,194.8509324000006,left,0.5212293999975373,195.4013769000012,195.4013769000012,None,,8,001,2025-12-17_17h01.30.411,2025C_exp1_comp,2022.2.4,59.85518636256305,
35.3,45,1,0,0,88,88,24,195.4013769000012,195.4013769000012,195.9015698000003,195.96832690000156,196.0186868000019,196.0186868000019,196.0186868000019,196.0186868000019,196.06839330000003,196.06839330000003,196.06839330000003,196.06839330000003,196.06839330000003,196.06839330000003,196.06839330000003,196.06839330000003,196.06839330000003,left,0.9993437999983144,197.08617220000087,197.08617220000087,None,,8,001,2025-12-17_17h01.30.411,2025C_exp1_comp,2022.2.4,59.85518636256305,
15.7,315,1,-1,0,89,89,100,197.08617220000087,197.08617220000087,197.5866883000017,197.6537812000024,197.70406920000096,197.70406920000096,197.70406920000096,197.70406920000096,197.7539753000019,197.7539753000019,197.7539753000019,197.7539753000019,197.7539753000019,197.7539753000019,197.7539753000019,197.7539753000019,197.7539753000019,left,0.43502839999928256,198.22112539999944,198.22112539999944,None,,8,001,2025-12-17_17h01.30.411,2025C_exp1_comp,2022.2.4,59.85518636256305,
25.5,45,1,-1,0,90,90,94,198.22112539999944,198.22112539999944,198.72136709999904,198.78802870000072,198.83825740000248,198.83825740000248,198.83825740000248,198.83825740000248,198.88813410000148,198.88813410000148,198.88813410000148,198.88813410000148,198.88813410000148,198.88813410000148,198.88813410000148,198.88813410000148,198.88813410000148,right,0.7800726999957988,199.6889024000011,199.6889024000011,None,,8,001,2025-12-17_17h01.30.411,2025C_exp1_comp,2022.2.4,59.85518636256305,
39.2,45,-1,-1,0,91,91,79,199.6889024000011,199.6889024000011,200.18957650000084,200.2561870999998,200.30646310000157,200.30646310000157,200.30646310000157,200.30646310000157,200.35622950000106,200.35622950000106,200.35622950000106,200.35622950000106,200.35622950000106,200.35622950000106,200.35622950000106,200.35622950000106,200.35622950000106,right,0.6714510999991035,201.05704669999977,201.05704669999977,None,,8,001,2025-12-17_17h01.30.411,2025C_exp1_comp,2022.2.4,59.85518636256305,
42.7,315,1,-1,0,92,92,107,201.05704669999977,201.05704669999977,201.55752389999907,201.62421840000025,201.67458190000252,201.67458190000252,201.67458190000252,201.67458190000252,201.72434590000194,201.72434590000194,201.72434590000194,201.72434590000194,201.72434590000194,201.72434590000194,201.72434590000194,201.72434590000194,201.72434590000194,right,0.4635007999968366,202.2080358000021,202.2080358000021,None,,8,001,2025-12-17_17h01.30.411,2025C_exp1_comp,2022.2.4,59.85518636256305,
19.6,45,-1,1,0,93,93,38,202.2080358000021,202.2080358000021,202.70868370000244,202.77541829999973,202.82552980000037,202.82552980000037,202.82552980000037,202.82552980000037,202.8753628000013,202.8753628000013,202.8753628000013,202.8753628000013,202.8753628000013,202.8753628000013,202.8753628000013,202.8753628000013,202.8753628000013,right,0.521539399996982,203.4259673000015,203.4259673000015,None,,8,001,2025-12-17_17h01.30.411,2025C_exp1_comp,2022.2.4,59.85518636256305,
12.1,45,-1,-1,0,94,94,72,203.4259673000015,203.4259673000015,203.92676740000024,203.9934409000016,204.0437321999998,204.0437321999998,204.0437321999998,204.0437321999998,204.09344670000064,204.09344670000064,204.09344670000064,204.09344670000064,204.09344670000064,204.09344670000064,204.09344670000064,204.09344670000064,204.09344670000064,right,0.45442479999837815,204.57735800000228,204.57735800000228,None,,8,001,2025-12-17_17h01.30.411,2025C_exp1_comp,2022.2.4,59.85518636256305,
39.2,45,-1,0,0,95,95,7,204.57735800000228,204.57735800000228,205.07775440000114,205.14452800000072,205.19474679999985,205.19474679999985,205.19474679999985,205.19474679999985,205.24441529999967,205.24441529999967,205.24441529999967,205.24441529999967,205.24441529999967,205.24441529999967,205.24441529999967,205.24441529999967,205.24441529999967,left,0.48827889999665786,205.7617269000002,205.7617269000002,None,,8,001,2025-12-17_17h01.30.411,2025C_exp1_comp,2022.2.4,59.85518636256305,
25.5,45,-1,1,0,96,96,40,205.7617269000002,205.7617269000002,206.26223260000188,206.32898130000103,206.37912440000218,206.37912440000218,206.37912440000218,206.37912440000218,206.4288830000005,206.4288830000005,206.4288830000005,206.4288830000005,206.4288830000005,206.4288830000005,206.4288830000005,206.4288830000005,206.4288830000005,right,0.4949514999971143,206.94625799999994,206.94625799999994,None,,8,001,2025-12-17_17h01.30.411,2025C_exp1_comp,2022.2.4,59.85518636256305,
39.2,315,1,0,0,97,97,34,206.94625799999994,206.94625799999994,207.44674590000068,207.51347929999974,207.56365690000166,207.56365690000166,207.56365690000166,207.56365690000166,207.61344140000074,207.61344140000074,207.61344140000074,207.61344140000074,207.61344140000074,207.61344140000074,207.61344140000074,207.61344140000074,207.61344140000074,right,0.48702229999616975,208.13073540000187,208.13073540000187,None,,8,001,2025-12-17_17h01.30.411,2025C_exp1_comp,2022.2.4,59.85518636256305,
35.3,45,-1,-1,0,98,98,78,208.13073540000187,208.13073540000187,208.63132620000033,208.69801690000168,208.7483334000026,208.7483334000026,208.7483334000026,208.7483334000026,208.7979645000014,208.7979645000014,208.7979645000014,208.7979645000014,208.7979645000014,208.7979645000014,208.7979645000014,208.7979645000014,208.7979645000014,right,0.6709459999947285,209.49863940000068,209.49863940000068,None,,8,001,2025-12-17_17h01.30.411,2025C_exp1_comp,2022.2.4,59.85518636256305,
25.5,315,-1,0,0,99,99,13,209.49863940000068,209.49863940000068,209.99931750000178,210.06604700000025,210.1162480000021,210.1162480000021,210.1162480000021,210.1162480000021,210.1661494,210.1661494,210.1661494,210.1661494,210.1661494,210.1661494,210.1661494,210.1661494,210.1661494,right,0.5106101999990642,210.70002659999955,210.70002659999955,None,,8,001,2025-12-17_17h01.30.411,2025C_exp1_comp,2022.2.4,59.85518636256305,
42.7,315,1,0,0,100,100,35,210.70002659999955,210.70002659999955,211.2003489000017,211.2672287000023,211.31758869999976,211.31758869999976,211.31758869999976,211.31758869999976,211.367322099999,211.367322099999,211.367322099999,211.367322099999,211.367322099999,211.367322099999,211.367322099999,211.367322099999,211.367322099999,right,0.5892980999960855,211.9845103000007,211.9845103000007,None,,8,001,2025-12-17_17h01.30.411,2025C_exp1_comp,2022.2.4,59.85518636256305,
29.4,45,1,1,0,101,101,59,211.9845103000007,211.9845103000007,212.4851122,212.55184139999983,212.6021710999994,212.6021710999994,212.6021710999994,212.6021710999994,212.65182470000218,212.65182470000218,212.65182470000218,212.65182470000218,212.65182470000218,212.65182470000218,212.65182470000218,212.65182470000218,212.65182470000218,left,0.5284996999944269,213.20240380000178,213.20240380000178,None,,8,001,2025-12-17_17h01.30.411,2025C_exp1_comp,2022.2.4,59.85518636256305,
25.5,315,-1,1,0,102,102,49,213.20240380000178,213.20240380000178,213.70304899999974,213.76976809999906,213.81997520000004,213.81997520000004,213.81997520000004,213.81997520000004,213.86985339999956,213.86985339999956,213.86985339999956,213.86985339999956,213.86985339999956,213.86985339999956,213.86985339999956,213.86985339999956,213.86985339999956,right,0.46261799999774667,214.35368010000093,214.35368010000093,None,,8,001,2025-12-17_17h01.30.411,2025C_exp1_comp,2022.2.4,59.85518636256305,
39.2,315,-1,0,0,103,103,16,214.35368010000093,214.35368010000093,214.85423079999964,214.9208022999992,214.9712541000008,214.9712541000008,214.9712541000008,214.9712541000008,215.0208015999997,215.0208015999997,215.0208015999997,215.0208015999997,215.0208015999997,215.0208015999997,215.0208015999997,215.0208015999997,215.0208015999997,left,0.4718243999959668,215.5214663000006,215.5214663000006,None,,8,001,2025-12-17_17h01.30.411,2025C_exp1_comp,2022.2.4,59.85518636256305,
22.7,45,1,-1,0,104,104,93,215.5214663000006,215.5214663000006,216.02196370000092,216.08865300000252,216.1389904000025,216.1389904000025,216.1389904000025,216.1389904000025,216.18892530000085,216.18892530000085,216.18892530000085,216.18892530000085,216.18892530000085,216.18892530000085,216.18892530000085,216.18892530000085,216.18892530000085,left,0.479766299999028,216.68917470000088,216.68917470000088,None,,8,001,2025-12-17_17h01.30.411,2025C_exp1_comp,2022.2.4,59.85518636256305,
29.4,45,1,-1,0,105,105,95,216.68917470000088,216.68917470000088,217.189816099999,217.2566982999997,217.30702530000053,217.30702530000053,217.30702530000053,217.30702530000053,217.356758599999,217.356758599999,217.356758599999,217.356758599999,217.356758599999,217.356758599999,217.356758599999,217.356758599999,217.356758599999,left,0.5756886999952258,217.95729500000016,217.95729500000016,None,,8,001,2025-12-17_17h01.30.411,2025C_exp1_comp,2022.2.4,59.85518636256305,
12.1,45,1,1,0,106,106,54,217.95729500000016,217.95729500000016,218.4577868000015,218.52446699999928,218.57471749999968,218.57471749999968,218.57471749999968,218.57471749999968,218.62454580000121,218.62454580000121,218.62454580000121,218.62454580000121,218.62454580000121,218.62454580000121,218.62454580000121,218.62454580000121,218.62454580000121,left,0.46794819999922765,219.12474809999912,219.12474809999912,None,,8,001,2025-12-17_17h01.30.411,2025C_exp1_comp,2022.2.4,59.85518636256305,
35.3,315,1,1,0,107,107,69,219.12474809999912,219.12474809999912,219.6258581000002,219.69244270000127,219.74284570000236,219.74284570000236,219.74284570000236,219.74284570000236,219.79218500000206,219.79218500000206,219.79218500000206,219.79218500000206,219.79218500000206,219.79218500000206,219.79218500000206,219.79218500000206,219.79218500000206,left,0.5965280999989773,220.42211329999918,220.42211329999918,space,7.286047300000064,8,001,2025-12-17_17h01.30.411,2025C_exp1_comp,2022.2.4,59.85518636256305,
42.7,45,1,0,1,0,108,26,227.73339739999938,227.73339739999938,228.23419869999998,228.3010506999999,228.35135140000057,228.35135140000057,228.35135140000057,228.35135140000057,228.40114990000075,228.40114990000075,228.40114990000075,228.40114990000075,228.40114990000075,228.40114990000075,228.40114990000075,228.40114990000075,228.40114990000075,left,1.115516199999547,229.53518140000233,229.53518140000233,None,,8,001,2025-12-17_17h01.30.411,2025C_exp1_comp,2022.2.4,59.85518636256305,
22.7,315,-1,-1,1,1,109,84,229.53518140000233,229.53518140000233,230.0358942999992,230.1025527999991,230.15301570000156,230.15301570000156,230.15301570000156,230.15301570000156,230.20265980000113,230.20265980000113,230.20265980000113,230.20265980000113,230.20265980000113,230.20265980000113,230.20265980000113,230.20265980000113,230.20265980000113,right,0.49830899999506073,230.72002129999964,230.72002129999964,None,,8,001,2025-12-17_17h01.30.411,2025C_exp1_comp,2022.2.4,59.85518636256305,
39.2,315,-1,-1,1,2,110,88,230.72002129999964,230.72002129999964,231.22025919999942,231.28725140000097,231.33745640000052,231.33745640000052,231.33745640000052,231.33745640000052,231.38730790000045,231.38730790000045,231.38730790000045,231.38730790000045,231.38730790000045,231.38730790000045,231.38730790000045,231.38730790000045,231.38730790000045,left,0.39392289999887,231.80452440000226,231.80452440000226,None,,8,001,2025-12-17_17h01.30.411,2025C_exp1_comp,2022.2.4,59.85518636256305,
35.3,45,1,0,1,3,111,24,231.80452440000226,231.80452440000226,232.30494349999935,232.37151160000212,232.42193400000178,232.42193400000178,232.42193400000178,232.42193400000178,232.47174970000196,232.47174970000196,232.47174970000196,232.47174970000196,232.47174970000196,232.47174970000196,232.47174970000196,232.47174970000196,232.47174970000196,left,0.4363714999999502,232.9388801999994,232.9388801999994,None,,8,001,2025-12-17_17h01.30.411,2025C_exp1_comp,2022.2.4,59.85518636256305,
35.3,45,1,-1,1,4,112,96,232.9388801999994,232.9388801999994,233.43936530000065,233.50608479999937,233.55639689999953,233.55639689999953,233.55639689999953,233.55639689999953,233.60628250000082,233.60628250000082,233.60628250000082,233.60628250000082,233.60628250000082,233.60628250000082,233.60628250000082,233.60628250000082,233.60628250000082,left,0.374202899998636,234.00674680000157,234.00674680000157,None,,8,001,2025-12-17_17h01.30.411,2025C_exp1_comp,2022.2.4,59.85518636256305,
35.3,315,1,1,1,5,113,69,234.00674680000157,234.00674680000157,234.50712790000034,234.5738455999999,234.62417840000126,234.62417840000126,234.62417840000126,234.62417840000126,234.67388510000092,234.67388510000092,234.67388510000092,234.67388510000092,234.67388510000092,234.67388510000092,234.67388510000092,234.67388510000092,234.67388510000092,left,0.41082339999775286,235.10760550000123,235.10760550000123,None,,8,001,2025-12-17_17h01.30.411,2025C_exp1_comp,2022.2.4,59.85518636256305,
12.1,315,-1,1,1,6,114,45,235.10760550000123,235.10760550000123,235.60823309999978,235.67498350000096,235.7249761000021,235.7249761000021,235.7249761000021,235.7249761000021,235.7748070000016,235.7748070000016,235.7748070000016,235.7748070000016,235.7748070000016,235.7748070000016,235.7748070000016,235.7748070000016,235.7748070000016,right,0.453890799995861,236.25886620000165,236.25886620000165,None,,8,001,2025-12-17_17h01.30.411,2025C_exp1_comp,2022.2.4,59.85518636256305,
39.2,315,-1,1,1,7,115,52,236.25886620000165,236.25886620000165,236.75923970000076,236.82606510000187,236.8763515999999,236.8763515999999,236.8763515999999,236.8763515999999,236.92618290000246,236.92618290000246,236.92618290000246,236.92618290000246,236.92618290000246,236.92618290000246,236.92618290000246,236.92618290000246,236.92618290000246,left,0.5267532999969262,237.4766015999994,237.4766015999994,None,,8,001,2025-12-17_17h01.30.411,2025C_exp1_comp,2022.2.4,59.85518636256305,
35.3,45,1,1,1,8,116,60,237.4766015999994,237.4766015999994,237.97730910000246,238.0440610000005,238.09395620000214,238.09395620000214,238.09395620000214,238.09395620000214,238.1439597000026,238.1439597000026,238.1439597000026,238.1439597000026,238.1439597000026,238.1439597000026,238.1439597000026,238.1439597000026,238.1439597000026,left,0.40479140000024927,238.5777433000003,238.5777433000003,None,,8,001,2025-12-17_17h01.30.411,2025C_exp1_comp,2022.2.4,59.85518636256305,
12.1,45,-1,1,1,9,117,36,238.5777433000003,238.5777433000003,239.07828850000078,239.1450244000007,239.1953848000012,239.1953848000012,239.1953848000012,239.1953848000012,239.2451753000023,239.2451753000023,239.2451753000023,239.2451753000023,239.2451753000023,239.2451753000023,239.2451753000023,239.2451753000023,239.2451753000023,right,0.4557325999958266,239.7289152000012,239.7289152000012,None,,8,001,2025-12-17_17h01.30.411,2025C_exp1_comp,2022.2.4,59.85518636256305,
15.7,315,-1,-1,1,10,118,82,239.7289152000012,239.7289152000012,240.22953280000002,240.2963469999995,240.34669059999942,240.34669059999942,240.34669059999942,240.34669059999942,240.39648339999985,240.39648339999985,240.39648339999985,240.39648339999985,240.39648339999985,240.39648339999985,240.39648339999985,240.39648339999985,240.39648339999985,right,0.4235287999981665,240.84691260000182,240.84691260000182,None,,8,001,2025-12-17_17h01.30.411,2025C_exp1_comp,2022.2.4,59.85518636256305,
25.5,315,1,-1,1,11,119,103,240.84691260000182,240.84691260000182,241.34728969999924,241.41401570000016,241.46433070000057,241.46433070000057,241.46433070000057,241.46433070000057,241.51396319999913,241.51396319999913,241.51396319999913,241.51396319999913,241.51396319999913,241.51396319999913,241.51396319999913,241.51396319999913,241.51396319999913,left,0.41089889999784646,241.94775740000114,241.94775740000114,None,,8,001,2025-12-17_17h01.30.411,2025C_exp1_comp,2022.2.4,59.85518636256305,
22.7,45,1,1,1,12,120,57,241.94775740000114,241.94775740000114,242.44837030000053,242.51508459999968,242.565411399999,242.565411399999,242.565411399999,242.565411399999,242.61517770000137,242.61517770000137,242.61517770000137,242.61517770000137,242.61517770000137,242.61517770000137,242.61517770000137,242.61517770000137,242.61517770000137,left,0.40560549999645445,243.0489830000006,243.0489830000006,None,,8,001,2025-12-17_17h01.30.411,2025C_exp1_comp,2022.2.4,59.85518636256305,
29.4,45,1,0,1,13,121,23,243.0489830000006,243.0489830000006,243.54933420000089,243.61619690000225,243.6665049000003,243.6665049000003,243.6665049000003,243.6665049000003,243.7160628999991,243.7160628999991,243.7160628999991,243.7160628999991,243.7160628999991,243.7160628999991,243.7160628999991,243.7160628999991,243.7160628999991,left,0.4485971999965841,244.1834388999996,244.1834388999996,None,,8,001,2025-12-17_17h01.30.411,2025C_exp1_comp,2022.2.4,59.85518636256305,
39.2,45,-1,0,1,14,122,7,244.1834388999996,244.1834388999996,244.68396040000152,244.7508569999991,244.80109880000236,244.80109880000236,244.80109880000236,244.80109880000236,244.85091029999967,244.85091029999967,244.85091029999967,244.85091029999967,244.85091029999967,244.85091029999967,244.85091029999967,244.85091029999967,244.85091029999967,left,0.4326980999976513,245.30112930000178,245.30112930000178,None,,8,001,2025-12-17_17h01.30.411,2025C_exp1_comp,2022.2.4,59.85518636256305,
12.1,45,1,1,1,15,123,54,245.30112930000178,245.30112930000178,245.80171080000218,245.8684463999998,245.91864720000012,245.91864720000012,245.91864720000012,245.91864720000012,245.96855330000108,245.96855330000108,245.96855330000108,245.96855330000108,245.96855330000108,245.96855330000108,245.96855330000108,245.96855330000108,245.96855330000108,left,0.4829824999978882,246.4693886999994,246.4693886999994,None,,8,001,2025-12-17_17h01.30.411,2025C_exp1_comp,2022.2.4,59.85518636256305,
15.7,45,1,-1,1,16,124,91,246.4693886999994,246.4693886999994,246.96974450000198,247.03641870000138,247.08673590000035,247.08673590000035,247.08673590000035,247.08673590000035,247.13649559999976,247.13649559999976,247.13649559999976,247.13649559999976,247.13649559999976,247.13649559999976,247.13649559999976,247.13649559999976,247.13649559999976,left,0.4276038999996672,247.58679160000247,247.58679160000247,None,,8,001,2025-12-17_17h01.30.411,2025C_exp1_comp,2022.2.4,59.85518636256305,
25.5,45,1,1,1,17,125,58,247.58679160000247,247.58679160000247,248.08734050000203,248.15406430000075,248.20436210000116,248.20436210000116,248.20436210000116,248.20436210000116,248.2538753000008,248.2538753000008,248.2538753000008,248.2538753000008,248.2538753000008,248.2538753000008,248.2538753000008,248.2538753000008,248.2538753000008,left,0.45451239999601967,248.73787789999915,248.73787789999915,None,,8,001,2025-12-17_17h01.30.411,2025C_exp1_comp,2022.2.4,59.85518636256305,
22.7,45,-1,1,1,18,126,39,248.73787789999915,248.73787789999915,249.23850080000193,249.3051959000004,249.35547339999903,249.35547339999903,249.35547339999903,249.35547339999903,249.405303800002,249.405303800002,249.405303800002,249.405303800002,249.405303800002,249.405303800002,249.405303800002,249.405303800002,249.405303800002,right,0.566248999999516,249.98920750000252,249.98920750000252,None,,8,001,2025-12-17_17h01.30.411,2025C_exp1_comp,2022.2.4,59.85518636256305,
39.2,315,1,0,1,19,127,34,249.98920750000252,249.98920750000252,250.48992179999914,250.55651800000123,250.60671830000138,250.60671830000138,250.60671830000138,250.60671830000138,250.65646890000062,250.65646890000062,250.65646890000062,250.65646890000062,250.65646890000062,250.65646890000062,250.65646890000062,250.65646890000062,250.65646890000062,right,0.7643510999951104,251.44073000000208,251.44073000000208,None,,8,001,2025-12-17_17h01.30.411,2025C_exp1_comp,2022.2.4,59.85518636256305,
19.6,315,-1,1,1,20,128,47,251.44073000000208,251.44073000000208,251.9411951000002,252.00780470000245,252.05821239999932,252.05821239999932,252.05821239999932,252.05821239999932,252.1080062000001,252.1080062000001,252.1080062000001,252.1080062000001,252.1080062000001,252.1080062000001,252.1080062000001,252.1080062000001,252.1080062000001,right,0.4406374999998661,252.5750990000015,252.5750990000015,None,,8,001,2025-12-17_17h01.30.411,2025C_exp1_comp,2022.2.4,59.85518636256305,
19.6,45,-1,0,1,21,129,2,252.5750990000015,252.5750990000015,253.0758308000004,253.1423051999991,253.1926913999996,253.1926913999996,253.1926913999996,253.1926913999996,253.24250170000232,253.24250170000232,253.24250170000232,253.24250170000232,253.24250170000232,253.24250170000232,253.24250170000232,253.24250170000232,253.24250170000232,right,0.7291172000004735,253.99309350000112,253.99309350000112,None,,8,001,2025-12-17_17h01.30.411,2025C_exp1_comp,2022.2.4,59.85518636256305,
29.4,45,1,-1,1,22,130,95,253.99309350000112,253.99309350000112,254.49371090000204,254.56045520000043,254.61091110000052,254.61091110000052,254.61091110000052,254.61091110000052,254.6606255000006,254.6606255000006,254.6606255000006,254.6606255000006,254.6606255000006,254.6606255000006,254.6606255000006,254.6606255000006,254.6606255000006,left,0.624009399994975,255.31111969999984,255.31111969999984,None,,8,001,2025-12-17_17h01.30.411,2025C_exp1_comp,2022.2.4,59.85518636256305,
22.7,45,-1,0,1,23,131,3,255.31111969999984,255.31111969999984,255.8114067000024,255.87812770000164,255.9284329000002,255.9284329000002,255.9284329000002,255.9284329000002,255.97826120000173,255.97826120000173,255.97826120000173,255.97826120000173,255.97826120000173,255.97826120000173,255.97826120000173,255.97826120000173,255.97826120000173,right,0.5051542999972298,256.5123601000014,256.5123601000014,None,,8,001,2025-12-17_17h01.30.411,2025C_exp1_comp,2022.2.4,59.85518636256305,
25.5,315,-1,-1,1,24,132,85,256.5123601000014,256.5123601000014,257.012659,257.07937759999913,257.12967610000123,257.12967610000123,257.12967610000123,257.12967610000123,257.17942089999997,257.17942089999997,257.17942089999997,257.17942089999997,257.17942089999997,257.17942089999997,257.17942089999997,257.17942089999997,257.17942089999997,right,0.5369019999961893,257.74714270000186,257.74714270000186,None,,8,001,2025-12-17_17h01.30.411,2025C_exp1_comp,2022.2.4,59.85518636256305,
12.1,315,1,1,1,25,133,63,257.74714270000186,257.74714270000186,258.2475278999991,258.31420770000113,258.36442480000187,258.36442480000187,258.36442480000187,258.36442480000187,258.41433640000105,258.41433640000105,258.41433640000105,258.41433640000105,258.41433640000105,258.41433640000105,258.41433640000105,258.41433640000105,258.41433640000105,left,0.45341589999952703,258.8979467999998,258.8979467999998,None,,8,001,2025-12-17_17h01.30.411,2025C_exp1_comp,2022.2.4,59.85518636256305,
19.6,315,-1,-1,1,26,134,83,258.8979467999998,258.8979467999998,259.39851160000035,259.46535199999926,259.5156139999999,259.5156139999999,259.5156139999999,259.5156139999999,259.5653519000007,259.5653519000007,259.5653519000007,259.5653519000007,259.5653519000007,259.5653519000007,259.5653519000007,259.5653519000007,259.5653519000007,right,0.49524969999765744,260.08250060000137,260.08250060000137,None,,8,001,2025-12-17_17h01.30.411,2025C_exp1_comp,2022.2.4,59.85518636256305,
35.3,45,-1,-1,1,27,135,78,260.08250060000137,260.08250060000137,260.58328790000087,260.6496979000003,260.6998773000014,260.6998773000014,260.6998773000014,260.6998773000014,260.75005760000204,260.75005760000204,260.75005760000204,260.75005760000204,260.75005760000204,260.75005760000204,260.75005760000204,260.75005760000204,260.75005760000204,left,0.494351800000004,261.26719030000095,261.26719030000095,None,,8,001,2025-12-17_17h01.30.411,2025C_exp1_comp,2022.2.4,59.85518636256305,
15.7,315,1,0,1,28,136,28,261.26719030000095,261.26719030000095,261.7676587999995,261.8343820000009,261.8843987,261.8843987,261.8843987,261.8843987,261.9344775999998,261.9344775999998,261.9344775999998,261.9344775999998,261.9344775999998,261.9344775999998,261.9344775999998,261.9344775999998,261.9344775999998,left,0.4850756999985606,262.45164080000177,262.45164080000177,None,,8,001,2025-12-17_17h01.30.411,2025C_exp1_comp,2022.2.4,59.85518636256305,
29.4,45,-1,0,1,29,137,5,262.45164080000177,262.45164080000177,262.95218260000183,263.01893140000175,263.0692111000026,263.0692111000026,263.0692111000026,263.0692111000026,263.11901430000216,263.11901430000216,263.11901430000216,263.11901430000216,263.11901430000216,263.11901430000216,263.11901430000216,263.11901430000216,263.11901430000216,right,0.4936719999968773,263.63619290000133,263.63619290000133,None,,8,001,2025-12-17_17h01.30.411,2025C_exp1_comp,2022.2.4,59.85518636256305,
22.7,315,-1,1,1,30,138,48,263.63619290000133,263.63619290000133,264.1365690999992,264.2032431000007,264.2537482000007,264.2537482000007,264.2537482000007,264.2537482000007,264.3035338000009,264.3035338000009,264.3035338000009,264.3035338000009,264.3035338000009,264.3035338000009,264.3035338000009,264.3035338000009,264.3035338000009,right,0.47651479999694857,264.80379820000235,264.80379820000235,None,,8,001,2025-12-17_17h01.30.411,2025C_exp1_comp,2022.2.4,59.85518636256305,
19.6,315,1,1,1,31,139,65,264.80379820000235,264.80379820000235,265.30445840000175,265.37115690000064,265.42151640000156,265.42151640000156,265.42151640000156,265.42151640000156,265.47139310000057,265.47139310000057,265.47139310000057,265.47139310000057,265.47139310000057,265.47139310000057,265.47139310000057,265.47139310000057,265.47139310000057,left,0.46045849999791244,265.9549345000014,265.9549345000014,None,,8,001,2025-12-17_17h01.30.411,2025C_exp1_comp,2022.2.4,59.85518636256305,
29.4,315,-1,0,1,32,140,14,265.9549345000014,265.9549345000014,266.4556757999999,266.522297800002,266.5727192000013,266.5727192000013,266.5727192000013,266.5727192000013,266.6224312000013,266.6224312000013,266.6224312000013,266.6224312000013,266.6224312000013,266.6224312000013,266.6224312000013,266.6224312000013,266.6224312000013,left,0.5980587999983982,267.239809900002,267.239809900002,None,,8,001,2025-12-17_17h01.30.411,2025C_exp1_comp,2022.2.4,59.85518636256305,
22.7,315,1,0,1,33,141,30,267.239809900002,267.239809900002,267.7401902999991,267.8069290000021,267.85731959999976,267.85731959999976,267.85731959999976,267.85731959999976,267.9069958,267.9069958,267.9069958,267.9069958,267.9069958,267.9069958,267.9069958,267.9069958,267.9069958,left,0.5053011999989394,268.4408829999993,268.4408829999993,None,,8,001,2025-12-17_17h01.30.411,2025C_exp1_comp,2022.2.4,59.85518636256305,
35.3,315,-1,-1,1,34,142,87,268.4408829999993,268.4408829999993,268.9415079999999,269.0079175999999,269.05837959999917,269.05837959999917,269.05837959999917,269.05837959999917,269.10859899999923,269.10859899999923,269.10859899999923,269.10859899999923,269.10859899999923,269.10859899999923,269.10859899999923,269.10859899999923,269.10859899999923,left,0.42437259999860544,269.55891990000237,269.55891990000237,None,,8,001,2025-12-17_17h01.30.411,2025C_exp1_comp,2022.2.4,59.85518636256305,
22.7,315,1,1,1,35,143,66,269.55891990000237,269.55891990000237,270.05906250000044,270.1258779000018,270.17631560000154,270.17631560000154,270.17631560000154,270.17631560000154,270.226140499999,270.226140499999,270.226140499999,270.226140499999,270.226140499999,270.226140499999,270.226140499999,270.226140499999,270.226140499999,left,0.49758509999810485,270.74316230000113,270.74316230000113,None,,8,001,2025-12-17_17h01.30.411,2025C_exp1_comp,2022.2.4,59.85518636256305,
15.7,315,1,-1,1,36,144,100,270.74316230000113,270.74316230000113,271.2438097000013,271.3104263999994,271.3608583999994,271.3608583999994,271.3608583999994,271.3608583999994,271.4106506999997,271.4106506999997,271.4106506999997,271.4106506999997,271.4106506999997,271.4106506999997,271.4106506999997,271.4106506999997,271.4106506999997,left,0.4969601999982842,271.9276639000018,271.9276639000018,None,,8,001,2025-12-17_17h01.30.411,2025C_exp1_comp,2022.2.4,59.85518636256305,
25.5,45,-1,1,1,37,145,40,271.9276639000018,271.9276639000018,272.4283816999996,272.4950452000012,272.54538550000143,272.54538550000143,272.54538550000143,272.54538550000143,272.5951621999993,272.5951621999993,272.5951621999993,272.5951621999993,272.5951621999993,272.5951621999993,272.5951621999993,272.5951621999993,272.5951621999993,right,0.4173168999986956,273.02888639999946,273.02888639999946,None,,8,001,2025-12-17_17h01.30.411,2025C_exp1_comp,2022.2.4,59.85518636256305,
42.7,315,-1,-1,1,38,146,89,273.02888639999946,273.02888639999946,273.5292828999991,273.59612760000164,273.64643630000137,273.64643630000137,273.64643630000137,273.64643630000137,273.6962482000017,273.6962482000017,273.6962482000017,273.6962482000017,273.6962482000017,273.6962482000017,273.6962482000017,273.6962482000017,273.6962482000017,right,0.7153513999983261,274.4302764000022,274.4302764000022,None,,8,001,2025-12-17_17h01.30.411,2025C_exp1_comp,2022.2.4,59.85518636256305,
15.7,315,-1,0,1,39,147,10,274.4302764000022,274.4302764000022,274.93074049999996,274.99757150000005,275.04784120000113,275.04784120000113,275.04784120000113,275.04784120000113,275.09766239999954,275.09766239999954,275.09766239999954,275.09766239999954,275.09766239999954,275.09766239999954,275.09766239999954,275.09766239999954,275.09766239999954,right,0.48276889999760897,275.5980711000011,275.5980711000011,None,,8,001,2025-12-17_17h01.30.411,2025C_exp1_comp,2022.2.4,59.85518636256305,
12.1,45,-1,0,1,40,148,0,275.5980711000011,275.5980711000011,276.09869320000143,276.16534429999956,276.2169993999996,276.2169993999996,276.2169993999996,276.2169993999996,276.2653721000024,276.2653721000024,276.2653721000024,276.2653721000024,276.2653721000024,276.2653721000024,276.2653721000024,276.2653721000024,276.2653721000024,right,0.4023764999983541,276.69927240000106,276.69927240000106,None,,8,001,2025-12-17_17h01.30.411,2025C_exp1_comp,2022.2.4,59.85518636256305,
25.5,45,-1,0,1,41,149,4,276.69927240000106,276.69927240000106,277.199840199999,277.2665192000022,277.3164895000009,277.3164895000009,277.3164895000009,277.3164895000009,277.36658420000094,277.36658420000094,277.36658420000094,277.36658420000094,277.36658420000094,277.36658420000094,277.36658420000094,277.36658420000094,277.36658420000094,right,0.606156199995894,278.000379000001,278.000379000001,None,,8,001,2025-12-17_17h01.30.411,2025C_exp1_comp,2022.2.4,59.85518636256305,
25.5,315,1,1,1,42,150,67,278.000379000001,278.000379000001,278.5010703000007,278.56767670000045,278.6180987000007,278.6180987000007,278.6180987000007,278.6180987000007,278.66792500000156,278.66792500000156,278.66792500000156,278.66792500000156,278.66792500000156,278.66792500000156,278.66792500000156,278.66792500000156,278.66792500000156,left,0.6002535999978136,279.28516730000047,279.28516730000047,None,,8,001,2025-12-17_17h01.30.411,2025C_exp1_comp,2022.2.4,59.85518636256305,
15.7,45,1,0,1,43,151,19,279.28516730000047,279.28516730000047,279.7855046000004,279.8523814,279.9025432000017,279.9025432000017,279.9025432000017,279.9025432000017,279.9525012000013,279.9525012000013,279.9525012000013,279.9525012000013,279.9525012000013,279.9525012000013,279.9525012000013,279.9525012000013,279.9525012000013,left,0.46720039999854635,280.43610439999975,280.43610439999975,None,,8,001,2025-12-17_17h01.30.411,2025C_exp1_comp,2022.2.4,59.85518636256305,
29.4,315,-1,1,1,44,152,50,280.43610439999975,280.43610439999975,280.9368789,281.003442600002,281.05386980000185,281.05386980000185,281.05386980000185,281.05386980000185,281.10364050000135,281.10364050000135,281.10364050000135,281.10364050000135,281.10364050000135,281.10364050000135,281.10364050000135,281.10364050000135,281.10364050000135,left,0.40374379999775556,281.5372575000001,281.5372575000001,None,,8,001,2025-12-17_17h01.30.411,2025C_exp1_comp,2022.2.4,59.85518636256305,
25.5,45,1,-1,1,45,153,94,281.5372575000001,281.5372575000001,282.0379642000007,282.10456429999977,282.15496859999985,282.15496859999985,282.15496859999985,282.15496859999985,282.20475290000104,282.20475290000104,282.20475290000104,282.20475290000104,282.20475290000104,282.20475290000104,282.20475290000104,282.20475290000104,282.20475290000104,left,0.44802949999575503,282.6717088000005,282.6717088000005,None,,8,001,2025-12-17_17h01.30.411,2025C_exp1_comp,2022.2.4,59.85518636256305,
22.7,315,-1,0,1,46,154,12,282.6717088000005,282.6717088000005,283.17237419999947,283.23908289999963,283.2894324000008,283.2894324000008,283.2894324000008,283.2894324000008,283.3391322000025,283.3391322000025,283.3391322000025,283.3391322000025,283.3391322000025,283.3391322000025,283.3391322000025,283.3391322000025,283.3391322000025,right,0.681474299995898,284.04001849999986,284.04001849999986,None,,8,001,2025-12-17_17h01.30.411,2025C_exp1_comp,2022.2.4,59.85518636256305,
15.7,45,-1,-1,1,47,155,73,284.04001849999986,284.04001849999986,284.54041340000185,284.60700870000073,284.65732050000224,284.65732050000224,284.65732050000224,284.65732050000224,284.70724770000015,284.70724770000015,284.70724770000015,284.70724770000015,284.70724770000015,284.70724770000015,284.70724770000015,284.70724770000015,284.70724770000015,right,0.40090760000020964,285.1410319000024,285.1410319000024,None,,8,001,2025-12-17_17h01.30.411,2025C_exp1_comp,2022.2.4,59.85518636256305,
19.6,45,1,-1,1,48,156,92,285.1410319000024,285.1410319000024,285.64123889999973,285.7081364000005,285.7582803000005,285.7582803000005,285.7582803000005,285.7582803000005,285.80802699999913,285.80802699999913,285.80802699999913,285.80802699999913,285.80802699999913,285.80802699999913,285.80802699999913,285.80802699999913,285.80802699999913,left,0.4595859000000928,286.29185359999974,286.29185359999974,None,,8,001,2025-12-17_17h01.30.411,2025C_exp1_comp,2022.2.4,59.85518636256305,
39.2,45,-1,-1,1,49,157,79,286.29185359999974,286.29185359999974,286.7923593000014,286.85907130000123,286.90940129999944,286.90940129999944,286.90940129999944,286.90940129999944,286.9592147000003,286.9592147000003,286.9592147000003,286.9592147000003,286.9592147000003,286.9592147000003,286.9592147000003,286.9592147000003,286.9592147000003,left,0.5007428999997501,287.47654890000194,287.47654890000194,None,,8,001,2025-12-17_17h01.30.411,2025C_exp1_comp,2022.2.4,59.85518636256305,
35.3,45,-1,0,1,50,158,6,287.47654890000194,287.47654890000194,287.9770707000025,288.04390839999905,288.0942141000014,288.0942141000014,288.0942141000014,288.0942141000014,288.14390099999946,288.14390099999946,288.14390099999946,288.14390099999946,288.14390099999946,288.14390099999946,288.14390099999946,288.14390099999946,288.14390099999946,left,0.5959088999989035,288.7613186000017,288.7613186000017,None,,8,001,2025-12-17_17h01.30.411,2025C_exp1_comp,2022.2.4,59.85518636256305,
15.7,315,-1,1,1,51,159,46,288.7613186000017,288.7613186000017,289.2619859000006,289.3286463000004,289.3787881999997,289.3787881999997,289.3787881999997,289.3787881999997,289.42851750000045,289.42851750000045,289.42851750000045,289.42851750000045,289.42851750000045,289.42851750000045,289.42851750000045,289.42851750000045,289.42851750000045,right,0.41565559999799007,289.86241150000205,289.86241150000205,None,,8,001,2025-12-17_17h01.30.411,2025C_exp1_comp,2022.2.4,59.85518636256305,
15.7,45,1,1,1,52,160,55,289.86241150000205,289.86241150000205,290.3629037999999,290.42970409999907,290.47983170000225,290.47983170000225,290.47983170000225,290.47983170000225,290.5294243999997,290.5294243999997,290.5294243999997,290.5294243999997,290.5294243999997,290.5294243999997,290.5294243999997,290.5294243999997,290.5294243999997,left,0.4825107999968168,291.0303363000021,291.0303363000021,None,,8,001,2025-12-17_17h01.30.411,2025C_exp1_comp,2022.2.4,59.85518636256305,
19.6,315,1,0,1,53,161,29,291.0303363000021,291.0303363000021,291.53068500000154,291.5974884999996,291.647804799999,291.647804799999,291.647804799999,291.647804799999,291.69759540000086,291.69759540000086,291.69759540000086,291.69759540000086,291.69759540000086,291.69759540000086,291.69759540000086,291.69759540000086,291.69759540000086,left,0.6989870999968844,292.41474970000127,292.41474970000127,None,,8,001,2025-12-17_17h01.30.411,2025C_exp1_comp,2022.2.4,59.85518636256305,
25.5,315,1,0,1,54,162,31,292.41474970000127,292.41474970000127,292.91543060000186,292.98218740000084,293.03248240000175,293.03248240000175,293.03248240000175,293.03248240000175,293.0822549000004,293.0822549000004,293.0822549000004,293.0822549000004,293.0822549000004,293.0822549000004,293.0822549000004,293.0822549000004,293.0822549000004,left,0.6104129999985162,293.7162707999996,293.7162707999996,None,,8,001,2025-12-17_17h01.30.411,2025C_exp1_comp,2022.2.4,59.85518636256305,
25.5,45,1,0,1,55,163,22,293.7162707999996,293.7162707999996,294.2167754000002,294.28333679999923,294.33371199999965,294.33371199999965,294.33371199999965,294.33371199999965,294.3835747000012,294.3835747000012,294.3835747000012,294.3835747000012,294.3835747000012,294.3835747000012,294.3835747000012,294.3835747000012,294.3835747000012,left,0.5560517999983858,294.96748819999993,294.96748819999993,None,,8,001,2025-12-17_17h01.30.411,2025C_exp1_comp,2022.2.4,59.85518636256305,
35.3,315,-1,0,1,56,164,15,294.96748819999993,294.96748819999993,295.4678848000003,295.534711100001,295.58502880000015,295.58502880000015,295.58502880000015,295.58502880000015,295.6348168000004,295.6348168000004,295.6348168000004,295.6348168000004,295.6348168000004,295.6348168000004,295.6348168000004,295.6348168000004,295.6348168000004,right,0.5378641999996034,296.20207070000106,296.20207070000106,None,,8,001,2025-12-17_17h01.30.411,2025C_exp1_comp,2022.2.4,59.85518636256305,
29.4,45,-1,-1,1,57,165,77,296.20207070000106,296.20207070000106,296.70253720000255,296.76935660000163,296.8196448000017,296.8196448000017,296.8196448000017,296.8196448000017,296.8694318000016,296.8694318000016,296.8694318000016,296.8694318000016,296.8694318000016,296.8694318000016,296.8694318000016,296.8694318000016,296.8694318000016,right,1.2062427999990177,298.10392870000214,298.10392870000214,None,,8,001,2025-12-17_17h01.30.411,2025C_exp1_comp,2022.2.4,59.85518636256305,
35.3,315,1,0,1,58,166,33,298.10392870000214,298.10392870000214,298.6046376000013,298.67104720000134,298.7214096000025,298.7214096000025,298.7214096000025,298.7214096000025,298.7711092999998,298.7711092999998,298.7711092999998,298.7711092999998,298.7711092999998,298.7711092999998,298.7711092999998,298.7711092999998,298.7711092999998,left,0.8816875999982585,299.6721963000018,299.6721963000018,None,,8,001,2025-12-17_17h01.30.411,2025C_exp1_comp,2022.2.4,59.85518636256305,
12.1,315,1,-1,1,59,167,99,299.6721963000018,299.6721963000018,300.1726970000018,300.23942250000255,300.2897569000015,300.2897569000015,300.2897569000015,300.2897569000015,300.3395187999995,300.3395187999995,300.3395187999995,300.3395187999995,300.3395187999995,300.3395187999995,300.3395187999995,300.3395187999995,300.3395187999995,left,0.688158699998894,301.0569436000005,301.0569436000005,None,,8,001,2025-12-17_17h01.30.411,2025C_exp1_comp,2022.2.4,59.85518636256305,
22.7,45,1,0,1,60,168,21,301.0569436000005,301.0569436000005,301.557431199999,301.6239870999998,301.6743764999992,301.6743764999992,301.6743764999992,301.6743764999992,301.7241721999999,301.7241721999999,301.7241721999999,301.7241721999999,301.7241721999999,301.7241721999999,301.7241721999999,301.7241721999999,301.7241721999999,left,0.4640648999957193,302.20802399999957,302.20802399999957,None,,8,001,2025-12-17_17h01.30.411,2025C_exp1_comp,2022.2.4,59.85518636256305,
35.3,45,-1,1,1,61,169,42,302.20802399999957,302.20802399999957,302.7085446000019,302.77514040000096,302.8255635000023,302.8255635000023,302.8255635000023,302.8255635000023,302.87538549999954,302.87538549999954,302.87538549999954,302.87538549999954,302.87538549999954,302.87538549999954,302.87538549999954,302.87538549999954,302.87538549999954,left,0.6569191999988107,303.55952270000125,303.55952270000125,None,,8,001,2025-12-17_17h01.30.411,2025C_exp1_comp,2022.2.4,59.85518636256305,
25.5,315,-1,0,1,62,170,13,303.55952270000125,303.55952270000125,304.06006700000216,304.1263289000017,304.17704819999926,304.17704819999926,304.17704819999926,304.17704819999926,304.2264391000026,304.2264391000026,304.2264391000026,304.2264391000026,304.2264391000026,304.2264391000026,304.2264391000026,304.2264391000026,304.2264391000026,right,0.49799979999806965,304.74367390000043,304.74367390000043,None,,8,001,2025-12-17_17h01.30.411,2025C_exp1_comp,2022.2.4,59.85518636256305,
25.5,315,-1,1,1,63,171,49,304.74367390000043,304.74367390000043,305.24455690000104,305.31128270000045,305.36157880000246,305.36157880000246,305.36157880000246,305.36157880000246,305.4112764999991,305.4112764999991,305.4112764999991,305.4112764999991,305.4112764999991,305.4112764999991,305.4112764999991,305.4112764999991,305.4112764999991,right,0.5932574999969802,306.0286610000003,306.0286610000003,None,,8,001,2025-12-17_17h01.30.411,2025C_exp1_comp,2022.2.4,59.85518636256305,
42.7,315,1,-1,1,64,172,107,306.0286610000003,306.0286610000003,306.52909139999974,306.59577360000185,306.64597800000047,306.64597800000047,306.64597800000047,306.64597800000047,306.6957390999996,306.6957390999996,306.6957390999996,306.6957390999996,306.6957390999996,306.6957390999996,306.6957390999996,306.6957390999996,306.6957390999996,right,0.7249997999970219,307.44683219999933,307.44683219999933,None,,8,001,2025-12-17_17h01.30.411,2025C_exp1_comp,2022.2.4,59.85518636256305,
42.7,315,1,0,1,65,173,35,307.44683219999933,307.44683219999933,307.94709290000173,308.0138776999993,308.06415050000214,308.06415050000214,308.06415050000214,308.06415050000214,308.11398570000165,308.11398570000165,308.11398570000165,308.11398570000165,308.11398570000165,308.11398570000165,308.11398570000165,308.11398570000165,308.11398570000165,left,0.5787343999982113,308.7145285000006,308.7145285000006,None,,8,001,2025-12-17_17h01.30.411,2025C_exp1_comp,2022.2.4,59.85518636256305,
22.7,45,-1,-1,1,66,174,75,308.7145285000006,308.7145285000006,309.21506919999956,309.2817897999994,309.3320731999993,309.3320731999993,309.3320731999993,309.3320731999993,309.3818867000009,309.3818867000009,309.3818867000009,309.3818867000009,309.3818867000009,309.3818867000009,309.3818867000009,309.3818867000009,309.3818867000009,left,0.5589978999996674,309.9659424999991,309.9659424999991,None,,8,001,2025-12-17_17h01.30.411,2025C_exp1_comp,2022.2.4,59.85518636256305,
12.1,315,-1,-1,1,67,175,81,309.9659424999991,309.9659424999991,310.4662688999997,310.5329966999998,310.58324880000146,310.58324880000146,310.58324880000146,310.58324880000146,310.6330076000013,310.6330076000013,310.6330076000013,310.6330076000013,310.6330076000013,310.6330076000013,310.6330076000013,310.6330076000013,310.6330076000013,right,0.4668082999960461,311.1170908000022,311.1170908000022,None,,8,001,2025-12-17_17h01.30.411,2025C_exp1_comp,2022.2.4,59.85518636256305,
22.7,315,1,-1,1,68,176,102,311.1170908000022,311.1170908000022,311.61755149999954,311.6840704000024,311.7345224000019,311.7345224000019,311.7345224000019,311.7345224000019,311.78432070000053,311.78432070000053,311.78432070000053,311.78432070000053,311.78432070000053,311.78432070000053,311.78432070000053,311.78432070000053,311.78432070000053,left,0.48342829999819514,312.28480540000237,312.28480540000237,None,,8,001,2025-12-17_17h01.30.411,2025C_exp1_comp,2022.2.4,59.85518636256305,
19.6,45,-1,-1,1,69,177,74,312.28480540000237,312.28480540000237,312.78519080000115,312.85203080000065,312.9020722999994,312.9020722999994,312.9020722999994,312.9020722999994,312.95216100000107,312.95216100000107,312.95216100000107,312.95216100000107,312.95216100000107,312.95216100000107,312.95216100000107,312.95216100000107,312.95216100000107,right,0.5641836999966472,313.53604460000133,313.53604460000133,None,,8,001,2025-12-17_17h01.30.411,2025C_exp1_comp,2022.2.4,59.85518636256305,
29.4,315,1,-1,1,70,178,104,313.53604460000133,313.53604460000133,314.03645170000163,314.10329040000215,314.153376000002,314.153376000002,314.153376000002,314.153376000002,314.20332920000146,314.20332920000146,314.20332920000146,314.20332920000146,314.20332920000146,314.20332920000146,314.20332920000146,314.20332920000146,314.20332920000146,left,0.5129248999946867,314.7372300999996,314.7372300999996,None,,8,001,2025-12-17_17h01.30.411,2025C_exp1_comp,2022.2.4,59.85518636256305,
15.7,315,1,1,1,71,179,64,314.7372300999996,314.7372300999996,315.237770300002,315.30461990000185,315.35490650000065,315.35490650000065,315.35490650000065,315.35490650000065,315.4047238000021,315.4047238000021,315.4047238000021,315.4047238000021,315.4047238000021,315.4047238000021,315.4047238000021,315.4047238000021,315.4047238000021,left,0.4787099999994098,315.9047716999994,315.9047716999994,None,,8,001,2025-12-17_17h01.30.411,2025C_exp1_comp,2022.2.4,59.85518636256305,
39.2,315,1,1,1,72,180,70,315.9047716999994,315.9047716999994,316.4053908999995,316.47199620000174,316.52293570000256,316.52293570000256,316.52293570000256,316.52293570000256,316.5721099000002,316.5721099000002,316.5721099000002,316.5721099000002,316.5721099000002,316.5721099000002,316.5721099000002,316.5721099000002,316.5721099000002,right,0.7356271999960882,317.33952470000077,317.33952470000077,None,,8,001,2025-12-17_17h01.30.411,2025C_exp1_comp,2022.2.4,59.85518636256305,
12.1,45,-1,-1,1,73,181,72,317.33952470000077,317.33952470000077,317.8406544999998,317.90728800000215,317.9576672000003,317.9576672000003,317.9576672000003,317.9576672000003,318.0073020000018,318.0073020000018,318.0073020000018,318.0073020000018,318.0073020000018,318.0073020000018,318.0073020000018,318.0073020000018,318.0073020000018,right,0.5644466999983706,318.5911116000025,318.5911116000025,None,,8,001,2025-12-17_17h01.30.411,2025C_exp1_comp,2022.2.4,59.85518636256305,
29.4,45,1,1,1,74,182,59,318.5911116000025,318.5911116000025,319.0916642000011,319.1583668000021,319.2086937999993,319.2086937999993,319.2086937999993,319.2086937999993,319.25834620000023,319.25834620000023,319.25834620000023,319.25834620000023,319.25834620000023,319.25834620000023,319.25834620000023,319.25834620000023,319.25834620000023,left,0.4658385999973689,319.74219079999966,319.74219079999966,None,,8,001,2025-12-17_17h01.30.411,2025C_exp1_comp,2022.2.4,59.85518636256305,
15.7,45,-1,1,1,75,183,37,319.74219079999966,319.74219079999966,320.24270070000057,320.30943560000014,320.35984250000183,320.35984250000183,320.35984250000183,320.35984250000183,320.409612200001,320.409612200001,320.409612200001,320.409612200001,320.409612200001,320.409612200001,320.409612200001,320.409612200001,320.409612200001,left,0.7551093000001856,321.1936636999999,321.1936636999999,None,,8,001,2025-12-17_17h01.30.411,2025C_exp1_comp,2022.2.4,59.85518636256305,
19.6,315,1,-1,1,76,184,101,321.1936636999999,321.1936636999999,321.69446830000015,321.7610605000009,321.81123560000196,321.81123560000196,321.81123560000196,321.81123560000196,321.86127190000116,321.86127190000116,321.86127190000116,321.86127190000116,321.86127190000116,321.86127190000116,321.86127190000116,321.86127190000116,321.86127190000116,left,0.478470499998366,322.3616144000007,322.3616144000007,None,,8,001,2025-12-17_17h01.30.411,2025C_exp1_comp,2022.2.4,59.85518636256305,
39.2,45,1,0,1,77,185,25,322.3616144000007,322.3616144000007,322.8622006000005,322.9286749000021,322.97883290000027,322.97883290000027,322.97883290000027,322.97883290000027,323.0288418000018,323.0288418000018,323.0288418000018,323.0288418000018,323.0288418000018,323.0288418000018,323.0288418000018,323.0288418000018,323.0288418000018,left,0.4952001999990898,323.546007500001,323.546007500001,None,,8,001,2025-12-17_17h01.30.411,2025C_exp1_comp,2022.2.4,59.85518636256305,
42.7,315,-1,1,1,78,186,53,323.546007500001,323.546007500001,324.04654740000115,324.1132609000015,324.1635803999998,324.1635803999998,324.1635803999998,324.1635803999998,324.21323610000036,324.21323610000036,324.21323610000036,324.21323610000036,324.21323610000036,324.21323610000036,324.21323610000036,324.21323610000036,324.21323610000036,left,0.4394780000002356,324.68036629999915,324.68036629999915,None,,8,001,2025-12-17_17h01.30.411,2025C_exp1_comp,2022.2.4,59.85518636256305,
42.7,45,1,1,1,79,187,62,324.68036629999915,324.68036629999915,325.1813041000023,325.247957399999,325.298311999999,325.298311999999,325.298311999999,325.298311999999,325.3480892000007,325.3480892000007,325.3480892000007,325.3480892000007,325.3480892000007,325.3480892000007,325.3480892000007,325.3480892000007,325.3480892000007,left,0.44816979999814066,325.81509200000073,325.81509200000073,None,,8,001,2025-12-17_17h01.30.411,2025C_exp1_comp,2022.2.4,59.85518636256305,
42.7,315,1,1,1,80,188,71,325.81509200000073,325.81509200000073,326.31578720000107,326.3824612000026,326.43275130000256,326.43275130000256,326.43275130000256,326.43275130000256,326.4825439000015,326.4825439000015,326.4825439000015,326.4825439000015,326.4825439000015,326.4825439000015,326.4825439000015,326.4825439000015,326.4825439000015,right,0.6726593999992474,327.18356330000097,327.18356330000097,None,,8,001,2025-12-17_17h01.30.411,2025C_exp1_comp,2022.2.4,59.85518636256305,
39.2,315,1,-1,1,81,189,106,327.18356330000097,327.18356330000097,327.6835135000001,327.7502576000006,327.80052720000094,327.80052720000094,327.80052720000094,327.80052720000094,327.8503149999997,327.8503149999997,327.8503149999997,327.8503149999997,327.8503149999997,327.8503149999997,327.8503149999997,327.8503149999997,327.8503149999997,right,0.5298537999951805,328.4007397000023,328.4007397000023,None,,8,001,2025-12-17_17h01.30.411,2025C_exp1_comp,2022.2.4,59.85518636256305,
22.7,45,1,-1,1,82,190,93,328.4007397000023,328.4007397000023,328.90131499999916,328.9681378000023,329.01831759999914,329.01831759999914,329.01831759999914,329.01831759999914,329.0682400000005,329.0682400000005,329.0682400000005,329.0682400000005,329.0682400000005,329.0682400000005,329.0682400000005,329.0682400000005,329.0682400000005,left,0.4722063999979582,329.56880250000177,329.56880250000177,None,,8,001,2025-12-17_17h01.30.411,2025C_exp1_comp,2022.2.4,59.85518636256305,
29.4,315,1,0,1,83,191,32,329.56880250000177,329.56880250000177,330.069281600001,330.1359927000012,330.18620759999976,330.18620759999976,330.18620759999976,330.18620759999976,330.2361168999996,330.2361168999996,330.2361168999996,330.2361168999996,330.2361168999996,330.2361168999996,330.2361168999996,330.2361168999996,330.2361168999996,left,0.5120648999982222,330.7699911000018,330.7699911000018,None,,8,001,2025-12-17_17h01.30.411,2025C_exp1_comp,2022.2.4,59.85518636256305,
39.2,45,1,-1,1,84,192,97,330.7699911000018,330.7699911000018,331.27030150000064,331.3368474000017,331.38746360000005,331.38746360000005,331.38746360000005,331.38746360000005,331.4372684000009,331.4372684000009,331.4372684000009,331.4372684000009,331.4372684000009,331.4372684000009,331.4372684000009,331.4372684000009,331.4372684000009,left,0.614375299999665,332.0711673000005,332.0711673000005,None,,8,001,2025-12-17_17h01.30.411,2025C_exp1_comp,2022.2.4,59.85518636256305,
12.1,45,1,-1,1,85,193,90,332.0711673000005,332.0711673000005,332.5717317000017,332.6383597000022,332.68874920000235,332.68874920000235,332.68874920000235,332.68874920000235,332.7384316000025,332.7384316000025,332.7384316000025,332.7384316000025,332.7384316000025,332.7384316000025,332.7384316000025,332.7384316000025,332.7384316000025,left,0.47435399999812944,333.2390660000019,333.2390660000019,None,,8,001,2025-12-17_17h01.30.411,2025C_exp1_comp,2022.2.4,59.85518636256305,
19.6,45,1,1,1,86,194,56,333.2390660000019,333.2390660000019,333.73970380000173,333.80620810000255,333.8567221000012,333.8567221000012,333.8567221000012,333.8567221000012,333.906367399999,333.906367399999,333.906367399999,333.906367399999,333.906367399999,333.906367399999,333.906367399999,333.906367399999,333.906367399999,left,0.3383378999969864,334.2731664999992,334.2731664999992,None,,8,001,2025-12-17_17h01.30.411,2025C_exp1_comp,2022.2.4,59.85518636256305,
19.6,45,1,0,1,87,195,20,334.2731664999992,334.2731664999992,334.7739575000014,334.8406212000009,334.8908814000024,334.8908814000024,334.8908814000024,334.8908814000024,334.94078420000005,334.94078420000005,334.94078420000005,334.94078420000005,334.94078420000005,334.94078420000005,334.94078420000005,334.94078420000005,334.94078420000005,left,0.3752387999993516,335.3410174000019,335.3410174000019,None,,8,001,2025-12-17_17h01.30.411,2025C_exp1_comp,2022.2.4,59.85518636256305,
42.7,45,-1,-1,1,88,196,80,335.3410174000019,335.3410174000019,335.841857899999,335.9085264999994,335.95893960000103,335.95893960000103,335.95893960000103,335.95893960000103,336.00846889999957,336.00846889999957,336.00846889999957,336.00846889999957,336.00846889999957,336.00846889999957,336.00846889999957,336.00846889999957,336.00846889999957,left,0.45225659999778145,336.49243679999927,336.49243679999927,None,,8,001,2025-12-17_17h01.30.411,2025C_exp1_comp,2022.2.4,59.85518636256305,
12.1,45,1,0,1,89,197,18,336.49243679999927,336.49243679999927,336.9928003999994,337.0595401999999,337.1097891999998,337.1097891999998,337.1097891999998,337.1097891999998,337.15955140000005,337.15955140000005,337.15955140000005,337.15955140000005,337.15955140000005,337.15955140000005,337.15955140000005,337.15955140000005,337.15955140000005,left,0.46829799999613897,337.65991009999925,337.65991009999925,None,,8,001,2025-12-17_17h01.30.411,2025C_exp1_comp,2022.2.4,59.85518636256305,
25.5,45,-1,-1,1,90,198,76,337.65991009999925,337.65991009999925,338.16064840000035,338.2273668000016,338.27753940000184,338.27753940000184,338.27753940000184,338.27753940000184,338.32744770000136,338.32744770000136,338.32744770000136,338.32744770000136,338.32744770000136,338.32744770000136,338.32744770000136,338.32744770000136,338.32744770000136,right,0.39769909999813535,338.7446209000009,338.7446209000009,None,,8,001,2025-12-17_17h01.30.411,2025C_exp1_comp,2022.2.4,59.85518636256305,
29.4,315,-1,-1,1,91,199,86,338.7446209000009,338.7446209000009,339.2450949000013,339.3118076999999,339.36210220000066,339.36210220000066,339.36210220000066,339.36210220000066,339.4116883000024,339.4116883000024,339.4116883000024,339.4116883000024,339.4116883000024,339.4116883000024,339.4116883000024,339.4116883000024,339.4116883000024,right,0.44100690000050236,339.87903469999947,339.87903469999947,None,,8,001,2025-12-17_17h01.30.411,2025C_exp1_comp,2022.2.4,59.85518636256305,
29.4,45,-1,1,1,92,200,41,339.87903469999947,339.87903469999947,340.379454599999,340.44627330000003,340.4964856000006,340.4964856000006,340.4964856000006,340.4964856000006,340.54636240000036,340.54636240000036,340.54636240000036,340.54636240000036,340.54636240000036,340.54636240000036,340.54636240000036,340.54636240000036,340.54636240000036,left,0.5774171999983082,341.14694769999915,341.14694769999915,None,,8,001,2025-12-17_17h01.30.411,2025C_exp1_comp,2022.2.4,59.85518636256305,
29.4,315,1,1,1,93,201,68,341.14694769999915,341.14694769999915,341.64747700000225,341.7141699999993,341.76428189999933,341.76428189999933,341.76428189999933,341.76428189999933,341.81429280000157,341.81429280000157,341.81429280000157,341.81429280000157,341.81429280000157,341.81429280000157,341.81429280000157,341.81429280000157,341.81429280000157,left,0.5010485999991943,342.34801470000093,342.34801470000093,None,,8,001,2025-12-17_17h01.30.411,2025C_exp1_comp,2022.2.4,59.85518636256305,
15.7,45,-1,0,1,94,202,1,342.34801470000093,342.34801470000093,342.84864540000126,342.9152653000019,342.96554900000046,342.96554900000046,342.96554900000046,342.96554900000046,343.0154814000016,343.0154814000016,343.0154814000016,343.0154814000016,343.0154814000016,343.0154814000016,343.0154814000016,343.0154814000016,343.0154814000016,right,0.49212249999618507,343.53255799999897,343.53255799999897,None,,8,001,2025-12-17_17h01.30.411,2025C_exp1_comp,2022.2.4,59.85518636256305,
39.2,45,1,1,1,95,203,61,343.53255799999897,343.53255799999897,344.03322280000066,344.09983490000013,344.1502392000002,344.1502392000002,344.1502392000002,344.1502392000002,344.1999942000002,344.1999942000002,344.1999942000002,344.1999942000002,344.1999942000002,344.1999942000002,344.1999942000002,344.1999942000002,344.1999942000002,left,0.4365154999977676,344.66698929999984,344.66698929999984,None,,8,001,2025-12-17_17h01.30.411,2025C_exp1_comp,2022.2.4,59.85518636256305,
12.1,315,1,0,1,96,204,27,344.66698929999984,344.66698929999984,345.1676360999991,345.2342587000021,345.2846825000015,345.2846825000015,345.2846825000015,345.2846825000015,345.33448780000253,345.33448780000253,345.33448780000253,345.33448780000253,345.33448780000253,345.33448780000253,345.33448780000253,345.33448780000253,345.33448780000253,left,0.4052733999960765,345.7679734000012,345.7679734000012,None,,8,001,2025-12-17_17h01.30.411,2025C_exp1_comp,2022.2.4,59.85518636256305,
39.2,45,-1,1,1,97,205,43,345.7679734000012,345.7679734000012,346.26849890000085,346.33569519999946,346.38545650000015,346.38545650000015,346.38545650000015,346.38545650000015,346.4353888000005,346.4353888000005,346.4353888000005,346.4353888000005,346.4353888000005,346.4353888000005,346.4353888000005,346.4353888000005,346.4353888000005,left,0.424738099998649,346.8857003000012,346.8857003000012,None,,8,001,2025-12-17_17h01.30.411,2025C_exp1_comp,2022.2.4,59.85518636256305,
