contrast,ori,lefttarget,righttarget,postcue,precue,trials.thisRepN,trials.thisTrialN,trials.thisN,trials.thisIndex,fix1.started,fix2.started,precue_2.started,precue_2.stopped,left_grating.started,right_grating.started,noise_left.started,noise_right.started,fix1.stopped,fix2.stopped,left_grating.stopped,right_grating.stopped,noise_left.stopped,noise_right.stopped,key_resp.started,postcue_2.started,fix1_2.started,fix2_2.started,key_resp.keys,key_resp.rt,key_resp_2.started,break_text_2.started,key_resp_2.keys,key_resp_2.rt,participant,session,date,expName,psychopyVersion,frameRate,
29.4,315,0,1,1,0,0,0,0,122,14.448160500000085,14.448160500000085,14.917682100000093,14.984412499998143,15.059675500000594,15.059675500000594,15.059675500000594,15.059675500000594,15.084583899999416,15.084583899999416,15.084583899999416,15.084583899999416,15.084583899999416,15.084583899999416,15.101388399998541,15.101388399998541,15.101388399998541,15.101388399998541,num_1,2.106548000003386,17.236434599999484,17.236434599999484,None,,8,001,2025-12-17_17h32.41.937,2025C_exp1_detect,2022.2.4,59.835273492036556,
22.7,45,1,0,-1,1,0,1,1,309,17.236434599999484,17.236434599999484,17.736887999999453,17.80355369999961,17.854884699998365,17.854884699998365,17.854884699998365,17.854884699998365,17.90396580000015,17.90396580000015,17.90396580000015,17.90396580000015,17.90396580000015,17.90396580000015,17.90396580000015,17.90396580000015,17.90396580000015,17.90396580000015,num_3,7.326586099999986,25.261272100000497,25.261272100000497,None,,8,001,2025-12-17_17h32.41.937,2025C_exp1_detect,2022.2.4,59.835273492036556,
15.7,315,0,0,-1,0,0,2,2,10,25.261272100000497,25.261272100000497,25.761884200001077,25.828669899998204,25.879037800001242,25.879037800001242,25.879037800001242,25.879037800001242,25.92890279999847,25.92890279999847,25.92890279999847,25.92890279999847,25.92890279999847,25.92890279999847,25.92890279999847,25.92890279999847,25.92890279999847,25.92890279999847,num_1,1.6226731999995536,27.580347999999503,27.580347999999503,None,,8,001,2025-12-17_17h32.41.937,2025C_exp1_detect,2022.2.4,59.835273492036556,
25.5,45,1,1,1,0,0,3,3,130,27.580347999999503,27.580347999999503,28.080994500000088,28.14773829999831,28.197893299999123,28.197893299999123,28.197893299999123,28.197893299999123,28.247677600000316,28.247677600000316,28.247677600000316,28.247677600000316,28.247677600000316,28.247677600000316,28.247677600000316,28.247677600000316,28.247677600000316,28.247677600000316,num_3,1.5674940000026254,29.832603599999857,29.832603599999857,None,,8,001,2025-12-17_17h32.41.937,2025C_exp1_detect,2022.2.4,59.835273492036556,
29.4,315,0,0,1,1,0,4,4,374,29.832603599999857,29.832603599999857,30.333088100000168,30.399713499999052,30.450024300000223,30.450024300000223,30.450024300000223,30.450024300000223,30.500000399999408,30.500000399999408,30.500000399999408,30.500000399999408,30.500000399999408,30.500000399999408,30.500000399999408,30.500000399999408,30.500000399999408,30.500000399999408,num_3,0.724012099999527,31.25070019999839,31.25070019999839,None,,8,001,2025-12-17_17h32.41.937,2025C_exp1_detect,2022.2.4,59.835273492036556,
19.6,45,1,1,-1,0,0,5,5,56,31.25070019999839,31.25070019999839,31.751013400000375,31.81792029999997,31.868186100000457,31.868186100000457,31.868186100000457,31.868186100000457,31.91804150000098,31.91804150000098,31.91804150000098,31.91804150000098,31.91804150000098,31.91804150000098,31.91804150000098,31.91804150000098,31.91804150000098,31.91804150000098,num_1,0.7046297999986564,32.65189879999889,32.65189879999889,None,,8,001,2025-12-17_17h32.41.937,2025C_exp1_detect,2022.2.4,59.835273492036556,
25.5,315,0,0,1,-1,0,6,6,229,32.65189879999889,32.65189879999889,33.15258679999897,33.21928839999964,33.2695891000003,33.2695891000003,33.2695891000003,33.2695891000003,33.3194846999977,33.3194846999977,33.3194846999977,33.3194846999977,33.3194846999977,33.3194846999977,33.3194846999977,33.3194846999977,33.3194846999977,33.3194846999977,num_3,0.6077493999982835,33.953172300000006,33.953172300000006,None,,8,001,2025-12-17_17h32.41.937,2025C_exp1_detect,2022.2.4,59.835273492036556,
42.7,315,0,1,-1,-1,0,7,7,197,33.953172300000006,33.953172300000006,34.4538864999995,34.52057739999873,34.57089410000117,34.57089410000117,34.57089410000117,34.57089410000117,34.62076040000102,34.62076040000102,34.62076040000102,34.62076040000102,34.62076040000102,34.62076040000102,34.62076040000102,34.62076040000102,34.62076040000102,34.62076040000102,num_1,0.6502787999997963,35.287818400000106,35.287818400000106,None,,8,001,2025-12-17_17h32.41.937,2025C_exp1_detect,2022.2.4,59.835273492036556,
35.3,45,1,0,-1,1,0,8,8,312,35.287818400000106,35.287818400000106,35.78851310000027,35.855287999998836,35.90558709999823,35.90558709999823,35.90558709999823,35.90558709999823,35.95545090000087,35.95545090000087,35.95545090000087,35.95545090000087,35.95545090000087,35.95545090000087,35.95545090000087,35.95545090000087,35.95545090000087,35.95545090000087,num_1,1.0598732999969798,37.039703200000076,37.039703200000076,None,,8,001,2025-12-17_17h32.41.937,2025C_exp1_detect,2022.2.4,59.835273492036556,
15.7,45,0,0,-1,0,0,9,9,1,37.039703200000076,37.039703200000076,37.54028810000091,37.606890700000804,37.6573075999986,37.6573075999986,37.6573075999986,37.6573075999986,37.707212999997864,37.707212999997864,37.707212999997864,37.707212999997864,37.707212999997864,37.707212999997864,37.707212999997864,37.707212999997864,37.707212999997864,37.707212999997864,num_3,1.043582599999354,38.77463329999955,38.77463329999955,None,,8,001,2025-12-17_17h32.41.937,2025C_exp1_detect,2022.2.4,59.835273492036556,
42.7,315,0,1,-1,1,0,10,10,341,38.77463329999955,38.77463329999955,39.27524889999768,39.34208360000048,39.39228809999986,39.39228809999986,39.39228809999986,39.39228809999986,39.44196379999994,39.44196379999994,39.44196379999994,39.44196379999994,39.44196379999994,39.44196379999994,39.44196379999994,39.44196379999994,39.44196379999994,39.44196379999994,num_1,1.2687237999998615,40.743354700000054,40.743354700000054,None,,8,001,2025-12-17_17h32.41.937,2025C_exp1_detect,2022.2.4,59.835273492036556,
42.7,45,1,0,1,0,0,11,11,98,40.743354700000054,40.743354700000054,41.24400120000064,41.31071119999979,41.36102329999994,41.36102329999994,41.36102329999994,41.36102329999994,41.41088970000055,41.41088970000055,41.41088970000055,41.41088970000055,41.41088970000055,41.41088970000055,41.41088970000055,41.41088970000055,41.41088970000055,41.41088970000055,num_3,2.428820299999643,43.86307619999934,43.86307619999934,None,,8,001,2025-12-17_17h32.41.937,2025C_exp1_detect,2022.2.4,59.835273492036556,
29.4,315,0,0,-1,-1,0,12,12,158,43.86307619999934,43.86307619999934,44.36394819999987,44.43051650000052,44.48071549999804,44.48071549999804,44.48071549999804,44.48071549999804,44.530559700000595,44.530559700000595,44.530559700000595,44.530559700000595,44.530559700000595,44.530559700000595,44.530559700000595,44.530559700000595,44.530559700000595,44.530559700000595,num_3,7.253426600000239,51.804343699997844,51.804343699997844,None,,8,001,2025-12-17_17h32.41.937,2025C_exp1_detect,2022.2.4,59.835273492036556,
19.6,315,1,0,1,0,0,13,13,101,51.804343699997844,51.804343699997844,52.30512720000115,52.3717945999997,52.4222222999997,52.4222222999997,52.4222222999997,52.4222222999997,52.47194379999928,52.47194379999928,52.47194379999928,52.47194379999928,52.47194379999928,52.47194379999928,52.47194379999928,52.47194379999928,52.47194379999928,52.47194379999928,num_3,1.1830595999999787,53.67287370000122,53.67287370000122,None,,8,001,2025-12-17_17h32.41.937,2025C_exp1_detect,2022.2.4,59.835273492036556,
25.5,315,0,1,-1,-1,0,14,14,193,53.67287370000122,53.67287370000122,54.173837899998034,54.24031779999859,54.29076949999944,54.29076949999944,54.29076949999944,54.29076949999944,54.34030669999993,54.34030669999993,54.34030669999993,54.34030669999993,54.34030669999993,54.34030669999993,54.34030669999993,54.34030669999993,54.34030669999993,54.34030669999993,num_3,1.1237978999997722,55.49129119999998,55.49129119999998,None,,8,001,2025-12-17_17h32.41.937,2025C_exp1_detect,2022.2.4,59.835273492036556,
35.3,45,0,0,1,1,0,15,15,366,55.49129119999998,55.49129119999998,55.992119899998215,56.0588007999977,56.10914910000065,56.10914910000065,56.10914910000065,56.10914910000065,56.15895829999863,56.15895829999863,56.15895829999863,56.15895829999863,56.15895829999863,56.15895829999863,56.15895829999863,56.15895829999863,56.15895829999863,56.15895829999863,num_1,2.0490116000000853,58.227408700000524,58.227408700000524,None,,8,001,2025-12-17_17h32.41.937,2025C_exp1_detect,2022.2.4,59.835273492036556,
15.7,315,1,1,-1,0,0,16,16,64,58.227408700000524,58.227408700000524,58.728136699999595,58.79486159999942,58.84516149999763,58.84516149999763,58.84516149999763,58.84516149999763,58.89496479999798,58.89496479999798,58.89496479999798,58.89496479999798,58.89496479999798,58.89496479999798,58.89496479999798,58.89496479999798,58.89496479999798,58.89496479999798,num_3,1.1037046999990707,60.02927719999934,60.02927719999934,None,,8,001,2025-12-17_17h32.41.937,2025C_exp1_detect,2022.2.4,59.835273492036556,
29.4,45,0,1,1,0,0,17,17,113,60.02927719999934,60.02927719999934,60.529931599998235,60.59665260000111,60.647122300000774,60.647122300000774,60.647122300000774,60.647122300000774,60.69700970000122,60.69700970000122,60.69700970000122,60.69700970000122,60.69700970000122,60.69700970000122,60.69700970000122,60.69700970000122,60.69700970000122,60.69700970000122,num_1,1.7098009000001184,62.431615699999384,62.431615699999384,None,,8,001,2025-12-17_17h32.41.937,2025C_exp1_detect,2022.2.4,59.835273492036556,
19.6,45,1,1,-1,1,0,18,18,344,62.431615699999384,62.431615699999384,62.932102899998426,62.999046900000394,63.04936119999911,63.04936119999911,63.04936119999911,63.04936119999911,63.099247999998624,63.099247999998624,63.099247999998624,63.099247999998624,63.099247999998624,63.099247999998624,63.099247999998624,63.099247999998624,63.099247999998624,63.099247999998624,num_3,0.859661700000288,63.983249900000374,63.983249900000374,None,,8,001,2025-12-17_17h32.41.937,2025C_exp1_detect,2022.2.4,59.835273492036556,
35.3,315,1,1,1,-1,0,19,19,285,63.983249900000374,63.983249900000374,64.48394059999919,64.5505951999985,64.60090029999992,64.60090029999992,64.60090029999992,64.60090029999992,64.65075219999926,64.65075219999926,64.65075219999926,64.65075219999926,64.65075219999926,64.65075219999926,64.65075219999926,64.65075219999926,64.65075219999926,64.65075219999926,num_1,2.6612806000011915,67.33650839999973,67.33650839999973,None,,8,001,2025-12-17_17h32.41.937,2025C_exp1_detect,2022.2.4,59.835273492036556,
25.5,315,0,1,1,1,0,20,20,409,67.33650839999973,67.33650839999973,67.83726839999872,67.9040802999989,67.9539732000012,67.9539732000012,67.9539732000012,67.9539732000012,68.00411900000108,68.00411900000108,68.00411900000108,68.00411900000108,68.00411900000108,68.00411900000108,68.00411900000108,68.00411900000108,68.00411900000108,68.00411900000108,num_1,1.2597574999999779,69.28839589999916,69.28839589999916,None,,8,001,2025-12-17_17h32.41.937,2025C_exp1_detect,2022.2.4,59.835273492036556,
35.3,315,0,0,-1,-1,0,21,21,159,69.28839589999916,69.28839589999916,69.78913670000111,69.8558993000006,69.90619819999847,69.90619819999847,69.90619819999847,69.90619819999847,69.95607109999764,69.95607109999764,69.95607109999764,69.95607109999764,69.95607109999764,69.95607109999764,69.95607109999764,69.95607109999764,69.95607109999764,69.95607109999764,num_3,1.067432200001349,71.04022719999921,71.04022719999921,None,,8,001,2025-12-17_17h32.41.937,2025C_exp1_detect,2022.2.4,59.835273492036556,
29.4,45,0,0,1,-1,0,22,22,221,71.04022719999921,71.04022719999921,71.54102919999787,71.60782470000049,71.65799359999801,71.65799359999801,71.65799359999801,71.65799359999801,71.70793960000083,71.70793960000083,71.70793960000083,71.70793960000083,71.70793960000083,71.70793960000083,71.70793960000083,71.70793960000083,71.70793960000083,71.70793960000083,num_3,1.2348447000003944,72.97580889999881,72.97580889999881,None,,8,001,2025-12-17_17h32.41.937,2025C_exp1_detect,2022.2.4,59.835273492036556,
29.4,45,1,1,1,1,0,23,23,419,72.97580889999881,72.97580889999881,73.47607789999893,73.54281999999876,73.59324800000104,73.59324800000104,73.59324800000104,73.59324800000104,73.64300340000045,73.64300340000045,73.64300340000045,73.64300340000045,73.64300340000045,73.64300340000045,73.64300340000045,73.64300340000045,73.64300340000045,73.64300340000045,num_1,1.1725017999997362,74.84402129999944,74.84402129999944,None,,8,001,2025-12-17_17h32.41.937,2025C_exp1_detect,2022.2.4,59.835273492036556,
42.7,45,0,0,-1,-1,0,24,24,152,74.84402129999944,74.84402129999944,75.34477479999987,75.41147009999986,75.46177019999959,75.46177019999959,75.46177019999959,75.46177019999959,75.51164919999792,75.51164919999792,75.51164919999792,75.51164919999792,75.51164919999792,75.51164919999792,75.51164919999792,75.51164919999792,75.51164919999792,75.51164919999792,num_3,1.0395159999970929,76.57903059999808,76.57903059999808,None,,8,001,2025-12-17_17h32.41.937,2025C_exp1_detect,2022.2.4,59.835273492036556,
12.1,45,1,0,-1,0,0,25,25,18,76.57903059999808,76.57903059999808,77.07979139999952,77.14656040000045,77.19677419999789,77.19677419999789,77.19677419999789,77.19677419999789,77.24658329999875,77.24658329999875,77.24658329999875,77.24658329999875,77.24658329999875,77.24658329999875,77.24658329999875,77.24658329999875,77.24658329999875,77.24658329999875,num_3,1.0084977000005892,78.28068689999782,78.28068689999782,None,,8,001,2025-12-17_17h32.41.937,2025C_exp1_detect,2022.2.4,59.835273492036556,
35.3,45,1,0,-1,0,0,26,26,24,78.28068689999782,78.28068689999782,78.78118829999949,78.84794450000118,78.89826979999998,78.89826979999998,78.89826979999998,78.89826979999998,78.94824909999807,78.94824909999807,78.94824909999807,78.94824909999807,78.94824909999807,78.94824909999807,78.94824909999807,78.94824909999807,78.94824909999807,78.94824909999807,num_1,0.6910853000008501,79.66549849999865,79.66549849999865,None,,8,001,2025-12-17_17h32.41.937,2025C_exp1_detect,2022.2.4,59.835273492036556,
29.4,315,1,0,1,1,0,27,27,392,79.66549849999865,79.66549849999865,80.16622400000051,80.2329353999994,80.283249600001,80.283249600001,80.283249600001,80.283249600001,80.3331044000006,80.3331044000006,80.3331044000006,80.3331044000006,80.3331044000006,80.3331044000006,80.3331044000006,80.3331044000006,80.3331044000006,80.3331044000006,num_3,1.210808799998631,81.5674575999983,81.5674575999983,None,,8,001,2025-12-17_17h32.41.937,2025C_exp1_detect,2022.2.4,59.835273492036556,
12.1,315,1,1,1,0,0,28,28,135,81.5674575999983,81.5674575999983,82.06823710000026,82.13488069999948,82.1852977999988,82.1852977999988,82.1852977999988,82.1852977999988,82.23489010000048,82.23489010000048,82.23489010000048,82.23489010000048,82.23489010000048,82.23489010000048,82.23489010000048,82.23489010000048,82.23489010000048,82.23489010000048,num_3,1.0208610000008775,83.28594710000107,83.28594710000107,None,,8,001,2025-12-17_17h32.41.937,2025C_exp1_detect,2022.2.4,59.835273492036556,
12.1,45,0,0,1,0,0,29,29,72,83.28594710000107,83.28594710000107,83.78629219999857,83.85323249999783,83.90354669999942,83.90354669999942,83.90354669999942,83.90354669999942,83.95331599999918,83.95331599999918,83.95331599999918,83.95331599999918,83.95331599999918,83.95331599999918,83.95331599999918,83.95331599999918,83.95331599999918,83.95331599999918,num_3,1.7973328999978548,85.77153610000096,85.77153610000096,None,,8,001,2025-12-17_17h32.41.937,2025C_exp1_detect,2022.2.4,59.835273492036556,
35.3,45,0,1,-1,1,0,30,30,330,85.77153610000096,85.77153610000096,86.27233129999877,86.33889260000069,86.38936679999824,86.38936679999824,86.38936679999824,86.38936679999824,86.4392286000002,86.4392286000002,86.4392286000002,86.4392286000002,86.4392286000002,86.4392286000002,86.4392286000002,86.4392286000002,86.4392286000002,86.4392286000002,num_3,1.0000060999991547,87.45663219999915,87.45663219999915,None,,8,001,2025-12-17_17h32.41.937,2025C_exp1_detect,2022.2.4,59.835273492036556,
39.2,315,1,0,1,1,0,31,31,394,87.45663219999915,87.45663219999915,87.95737129999907,88.02403489999779,88.0743255999987,88.0743255999987,88.0743255999987,88.0743255999987,88.12408099999811,88.12408099999811,88.12408099999811,88.12408099999811,88.12408099999811,88.12408099999811,88.12408099999811,88.12408099999811,88.12408099999811,88.12408099999811,num_3,1.2913451999993413,89.44194580000112,89.44194580000112,None,,8,001,2025-12-17_17h32.41.937,2025C_exp1_detect,2022.2.4,59.835273492036556,
19.6,315,0,1,-1,-1,0,32,32,191,89.44194580000112,89.44194580000112,89.94263990000036,90.00934659999984,90.0598327000007,90.0598327000007,90.0598327000007,90.0598327000007,90.10967879999953,90.10967879999953,90.10967879999953,90.10967879999953,90.10967879999953,90.10967879999953,90.10967879999953,90.10967879999953,90.10967879999953,90.10967879999953,num_3,1.4983076999997138,91.62741789999927,91.62741789999927,None,,8,001,2025-12-17_17h32.41.937,2025C_exp1_detect,2022.2.4,59.835273492036556,
35.3,45,1,1,-1,-1,0,33,33,204,91.62741789999927,91.62741789999927,92.12814069999877,92.19485809999969,92.24517869999909,92.24517869999909,92.24517869999909,92.24517869999909,92.29505419999987,92.29505419999987,92.29505419999987,92.29505419999987,92.29505419999987,92.29505419999987,92.29505419999987,92.29505419999987,92.29505419999987,92.29505419999987,num_1,0.7124053000006825,93.02885569999853,93.02885569999853,None,,8,001,2025-12-17_17h32.41.937,2025C_exp1_detect,2022.2.4,59.835273492036556,
12.1,315,1,0,-1,-1,0,34,34,171,93.02885569999853,93.02885569999853,93.52975099999821,93.59642180000083,93.64672029999929,93.64672029999929,93.64672029999929,93.64672029999929,93.69657509999888,93.69657509999888,93.69657509999888,93.69657509999888,93.69657509999888,93.69657509999888,93.69657509999888,93.69657509999888,93.69657509999888,93.69657509999888,num_1,1.0229914999981702,94.74718329999814,94.74718329999814,None,,8,001,2025-12-17_17h32.41.937,2025C_exp1_detect,2022.2.4,59.835273492036556,
29.4,45,0,1,-1,0,0,35,35,41,94.74718329999814,94.74718329999814,95.2480985000002,95.3146530999984,95.36501919999864,95.36501919999864,95.36501919999864,95.36501919999864,95.41467779999948,95.41467779999948,95.41467779999948,95.41467779999948,95.41467779999948,95.41467779999948,95.41467779999948,95.41467779999948,95.41467779999948,95.41467779999948,num_3,0.9452975999993214,96.38217029999942,96.38217029999942,None,,8,001,2025-12-17_17h32.41.937,2025C_exp1_detect,2022.2.4,59.835273492036556,
25.5,45,0,0,-1,1,0,36,36,292,96.38217029999942,96.38217029999942,96.88295379999909,96.94977690000087,96.99996480000118,96.99996480000118,96.99996480000118,96.99996480000118,97.04973919999975,97.04973919999975,97.04973919999975,97.04973919999975,97.04973919999975,97.04973919999975,97.04973919999975,97.04973919999975,97.04973919999975,97.04973919999975,num_3,1.0940933000019868,98.16729190000115,98.16729190000115,None,,8,001,2025-12-17_17h32.41.937,2025C_exp1_detect,2022.2.4,59.835273492036556,
12.1,315,1,1,1,1,0,37,37,423,98.16729190000115,98.16729190000115,98.66819419999956,98.73481779999929,98.78512919999775,98.78512919999775,98.78512919999775,98.78512919999775,98.83495330000005,98.83495330000005,98.83495330000005,98.83495330000005,98.83495330000005,98.83495330000005,98.83495330000005,98.83495330000005,98.83495330000005,98.83495330000005,num_3,1.5963390999968396,100.45285030000014,100.45285030000014,None,,8,001,2025-12-17_17h32.41.937,2025C_exp1_detect,2022.2.4,59.835273492036556,
39.2,45,1,1,-1,0,0,38,38,61,100.45285030000014,100.45285030000014,100.95362309999837,101.02035419999811,101.07061849999809,101.07061849999809,101.07061849999809,101.07061849999809,101.1205517999988,101.1205517999988,101.1205517999988,101.1205517999988,101.1205517999988,101.1205517999988,101.1205517999988,101.1205517999988,101.1205517999988,101.1205517999988,num_1,0.8626035999986925,102.00444249999782,102.00444249999782,None,,8,001,2025-12-17_17h32.41.937,2025C_exp1_detect,2022.2.4,59.835273492036556,
15.7,315,0,0,1,0,0,39,39,82,102.00444249999782,102.00444249999782,102.50530369999979,102.57202139999936,102.62209720000101,102.62209720000101,102.62209720000101,102.62209720000101,102.6719594999995,102.6719594999995,102.6719594999995,102.6719594999995,102.6719594999995,102.6719594999995,102.6719594999995,102.6719594999995,102.6719594999995,102.6719594999995,num_3,1.0398569999997562,103.7394185000012,103.7394185000012,None,,8,001,2025-12-17_17h32.41.937,2025C_exp1_detect,2022.2.4,59.835273492036556,
42.7,315,1,0,1,0,0,40,40,107,103.7394185000012,103.7394185000012,104.24025550000079,104.30696719999833,104.35727150000093,104.35727150000093,104.35727150000093,104.35727150000093,104.407147599999,104.407147599999,104.407147599999,104.407147599999,104.407147599999,104.407147599999,104.407147599999,104.407147599999,104.407147599999,104.407147599999,num_3,1.1595964999978605,105.60244260000036,105.60244260000036,None,,8,001,2025-12-17_17h32.41.937,2025C_exp1_detect,2022.2.4,59.835273492036556,
25.5,45,1,0,-1,0,0,41,41,22,105.60244260000036,105.60244260000036,106.09224679999897,106.1588597000009,106.2091565999981,106.2091565999981,106.2091565999981,106.2091565999981,106.2587894999997,106.2587894999997,106.2587894999997,106.2587894999997,106.2587894999997,106.2587894999997,106.27568379999866,106.27568379999866,106.27568379999866,106.27568379999866,num_1,1.0188118000005488,107.32638729999962,107.32638729999962,None,,8,001,2025-12-17_17h32.41.937,2025C_exp1_detect,2022.2.4,59.835273492036556,
22.7,315,0,1,-1,0,0,42,42,48,107.32638729999962,107.32638729999962,107.82683279999765,107.89360319999832,107.94389469999805,107.94389469999805,107.94389469999805,107.94389469999805,107.99375159999909,107.99375159999909,107.99375159999909,107.99375159999909,107.99375159999909,107.99375159999909,107.99375159999909,107.99375159999909,107.99375159999909,107.99375159999909,num_3,0.7735929000009492,108.79448039999988,108.79448039999988,None,,8,001,2025-12-17_17h32.41.937,2025C_exp1_detect,2022.2.4,59.835273492036556,
22.7,45,0,0,-1,-1,0,43,43,147,108.79448039999988,108.79448039999988,109.2953998999983,109.36205219999829,109.41242330000023,109.41242330000023,109.41242330000023,109.41242330000023,109.46235619999788,109.46235619999788,109.46235619999788,109.46235619999788,109.46235619999788,109.46235619999788,109.46235619999788,109.46235619999788,109.46235619999788,109.46235619999788,num_3,0.9523307999988901,110.44619239999884,110.44619239999884,None,,8,001,2025-12-17_17h32.41.937,2025C_exp1_detect,2022.2.4,59.835273492036556,
22.7,45,1,1,1,-1,0,44,44,273,110.44619239999884,110.44619239999884,110.9469496999991,111.01367179999943,111.06397389999984,111.06397389999984,111.06397389999984,111.06397389999984,111.11384769999859,111.11384769999859,111.11384769999859,111.11384769999859,111.11384769999859,111.11384769999859,111.11384769999859,111.11384769999859,111.11384769999859,111.11384769999859,num_1,1.0128489999988233,112.14798019999944,112.14798019999944,None,,8,001,2025-12-17_17h32.41.937,2025C_exp1_detect,2022.2.4,59.835273492036556,
29.4,45,0,1,-1,-1,0,45,45,185,112.14798019999944,112.14798019999944,112.64882489999945,112.71540869999808,112.765503300001,112.765503300001,112.765503300001,112.765503300001,112.81555210000079,112.81555210000079,112.81555210000079,112.81555210000079,112.81555210000079,112.81555210000079,112.81555210000079,112.81555210000079,112.81555210000079,112.81555210000079,num_3,0.8084540000018023,113.64939479999884,113.64939479999884,None,,8,001,2025-12-17_17h32.41.937,2025C_exp1_detect,2022.2.4,59.835273492036556,
35.3,315,0,0,1,0,0,46,46,87,113.64939479999884,113.64939479999884,114.15035060000082,114.21713579999778,114.26737829999911,114.26737829999911,114.26737829999911,114.26737829999911,114.31727020000108,114.31727020000108,114.31727020000108,114.31727020000108,114.31727020000108,114.31727020000108,114.31727020000108,114.31727020000108,114.31727020000108,114.31727020000108,num_3,1.1453690999987884,115.4845768999985,115.4845768999985,None,,8,001,2025-12-17_17h32.41.937,2025C_exp1_detect,2022.2.4,59.835273492036556,
29.4,45,0,1,1,-1,0,47,47,257,115.4845768999985,115.4845768999985,115.98539189999792,116.05196159999832,116.1023153999995,116.1023153999995,116.1023153999995,116.1023153999995,116.15226030000122,116.15226030000122,116.15226030000122,116.15226030000122,116.15226030000122,116.15226030000122,116.15226030000122,116.15226030000122,116.15226030000122,116.15226030000122,num_1,0.7030907000007574,116.88596519999919,116.88596519999919,None,,8,001,2025-12-17_17h32.41.937,2025C_exp1_detect,2022.2.4,59.835273492036556,
29.4,45,1,1,-1,1,0,48,48,347,116.88596519999919,116.88596519999919,117.38676209999903,117.4533534000002,117.50370549999934,117.50370549999934,117.50370549999934,117.50370549999934,117.55368259999887,117.55368259999887,117.55368259999887,117.55368259999887,117.55368259999887,117.55368259999887,117.55368259999887,117.55368259999887,117.55368259999887,117.55368259999887,num_3,0.6533937999993213,118.23732799999925,118.23732799999925,None,,8,001,2025-12-17_17h32.41.937,2025C_exp1_detect,2022.2.4,59.835273492036556,
19.6,45,0,1,-1,0,0,49,49,38,118.23732799999925,118.23732799999925,118.73798879999958,118.80478320000111,118.85506990000067,118.85506990000067,118.85506990000067,118.85506990000067,118.90502510000078,118.90502510000078,118.90502510000078,118.90502510000078,118.90502510000078,118.90502510000078,118.90502510000078,118.90502510000078,118.90502510000078,118.90502510000078,num_3,1.1176042000006419,120.03940909999801,120.03940909999801,None,,8,001,2025-12-17_17h32.41.937,2025C_exp1_detect,2022.2.4,59.835273492036556,
19.6,315,1,0,-1,1,0,50,50,317,120.03940909999801,120.03940909999801,120.53996099999858,120.60675939999783,120.65691230000084,120.65691230000084,120.65691230000084,120.65691230000084,120.70689459999994,120.70689459999994,120.70689459999994,120.70689459999994,120.70689459999994,120.70689459999994,120.70689459999994,120.70689459999994,120.70689459999994,120.70689459999994,num_1,1.1479494999985036,121.87430680000034,121.87430680000034,None,,8,001,2025-12-17_17h32.41.937,2025C_exp1_detect,2022.2.4,59.835273492036556,
22.7,45,0,1,1,-1,0,51,51,255,121.87430680000034,121.87430680000034,122.37509520000094,122.44167809999999,122.49209319999864,122.49209319999864,122.49209319999864,122.49209319999864,122.5418709000005,122.5418709000005,122.5418709000005,122.5418709000005,122.5418709000005,122.5418709000005,122.5418709000005,122.5418709000005,122.5418709000005,122.5418709000005,num_1,1.017390199998772,123.57603999999992,123.57603999999992,None,,8,001,2025-12-17_17h32.41.937,2025C_exp1_detect,2022.2.4,59.835273492036556,
42.7,45,0,1,-1,0,0,52,52,44,123.57603999999992,123.57603999999992,124.07665740000084,124.14317219999793,124.19386139999915,124.19386139999915,124.19386139999915,124.19386139999915,124.24349910000092,124.24349910000092,124.24349910000092,124.24349910000092,124.24349910000092,124.24349910000092,124.24349910000092,124.24349910000092,124.24349910000092,124.24349910000092,num_3,0.7714441000025545,125.04415919999883,125.04415919999883,None,,8,001,2025-12-17_17h32.41.937,2025C_exp1_detect,2022.2.4,59.835273492036556,
39.2,45,1,0,1,1,0,53,53,385,125.04415919999883,125.04415919999883,125.54478599999857,125.61160069999823,125.6619002999978,125.6619002999978,125.6619002999978,125.6619002999978,125.71177320000061,125.71177320000061,125.71177320000061,125.71177320000061,125.71177320000061,125.71177320000061,125.71177320000061,125.71177320000061,125.71177320000061,125.71177320000061,num_3,1.294697500001348,127.02981929999805,127.02981929999805,None,,8,001,2025-12-17_17h32.41.937,2025C_exp1_detect,2022.2.4,59.835273492036556,
22.7,45,1,1,-1,1,0,54,54,345,127.02981929999805,127.02981929999805,127.53010920000088,127.59694300000046,127.64709690000018,127.64709690000018,127.64709690000018,127.64709690000018,127.69709900000089,127.69709900000089,127.69709900000089,127.69709900000089,127.69709900000089,127.69709900000089,127.69709900000089,127.69709900000089,127.69709900000089,127.69709900000089,num_1,0.8382444999988365,128.5643416999992,128.5643416999992,None,,8,001,2025-12-17_17h32.41.937,2025C_exp1_detect,2022.2.4,59.835273492036556,
29.4,315,0,1,-1,1,0,55,55,338,128.5643416999992,128.5643416999992,129.06506259999878,129.13177440000072,129.18201480000062,129.18201480000062,129.18201480000062,129.18201480000062,129.2319740999992,129.2319740999992,129.2319740999992,129.2319740999992,129.2319740999992,129.2319740999992,129.2319740999992,129.2319740999992,129.2319740999992,129.2319740999992,num_3,0.918951299998298,130.18272340000112,130.18272340000112,None,,8,001,2025-12-17_17h32.41.937,2025C_exp1_detect,2022.2.4,59.835273492036556,
29.4,315,1,1,-1,0,0,56,56,68,130.18272340000112,130.18272340000112,130.6835319999991,130.750104499999,130.80048349999925,130.80048349999925,130.80048349999925,130.80048349999925,130.85035699999935,130.85035699999935,130.85035699999935,130.85035699999935,130.85035699999935,130.85035699999935,130.85035699999935,130.85035699999935,130.85035699999935,130.85035699999935,num_1,0.6055888000009872,131.48393450000003,131.48393450000003,None,,8,001,2025-12-17_17h32.41.937,2025C_exp1_detect,2022.2.4,59.835273492036556,
35.3,45,0,1,1,0,0,57,57,114,131.48393450000003,131.48393450000003,131.98478469999827,132.05139749999944,132.10179219999918,132.10179219999918,132.10179219999918,132.10179219999918,132.15156650000063,132.15156650000063,132.15156650000063,132.15156650000063,132.15156650000063,132.15156650000063,132.15156650000063,132.15156650000063,132.15156650000063,132.15156650000063,num_1,0.9671559999987949,133.13547000000108,133.13547000000108,None,,8,001,2025-12-17_17h32.41.937,2025C_exp1_detect,2022.2.4,59.835273492036556,
39.2,45,0,1,-1,0,0,58,58,43,133.13547000000108,133.13547000000108,133.6363440999994,133.70313779999924,133.75312610000037,133.75312610000037,133.75312610000037,133.75312610000037,133.8031931000005,133.8031931000005,133.8031931000005,133.8031931000005,133.8031931000005,133.8031931000005,133.8031931000005,133.8031931000005,133.8031931000005,133.8031931000005,num_3,1.2036101000012422,135.03748020000057,135.03748020000057,None,,8,001,2025-12-17_17h32.41.937,2025C_exp1_detect,2022.2.4,59.835273492036556,
39.2,315,1,1,-1,-1,0,59,59,214,135.03748020000057,135.03748020000057,135.53805980000107,135.6048914999992,135.65521699999954,135.65521699999954,135.65521699999954,135.65521699999954,135.70508719999998,135.70508719999998,135.70508719999998,135.70508719999998,135.70508719999998,135.70508719999998,135.70508719999998,135.70508719999998,135.70508719999998,135.70508719999998,num_1,0.64684219999981,136.37206470000092,136.37206470000092,None,,8,001,2025-12-17_17h32.41.937,2025C_exp1_detect,2022.2.4,59.835273492036556,
19.6,315,1,1,1,-1,0,60,60,281,136.37206470000092,136.37206470000092,136.87300289999985,136.939691399999,136.9900207999999,136.9900207999999,136.9900207999999,136.9900207999999,137.03985919999832,137.03985919999832,137.03985919999832,137.03985919999832,137.03985919999832,137.03985919999832,137.03985919999832,137.03985919999832,137.03985919999832,137.03985919999832,num_3,1.2470886000010069,138.30729159999828,138.30729159999828,None,,8,001,2025-12-17_17h32.41.937,2025C_exp1_detect,2022.2.4,59.835273492036556,
42.7,45,0,1,-1,-1,0,61,61,188,138.30729159999828,138.30729159999828,138.80778609999834,138.87452420000045,138.92494489999808,138.92494489999808,138.92494489999808,138.92494489999808,138.97471489999953,138.97471489999953,138.97471489999953,138.97471489999953,138.97471489999953,138.97471489999953,138.97471489999953,138.97471489999953,138.97471489999953,138.97471489999953,num_1,0.7849323999980697,139.77551160000075,139.77551160000075,None,,8,001,2025-12-17_17h32.41.937,2025C_exp1_detect,2022.2.4,59.835273492036556,
25.5,45,1,0,1,1,0,62,62,382,139.77551160000075,139.77551160000075,140.27624529999957,140.34299869999813,140.39326079999955,140.39326079999955,140.39326079999955,140.39326079999955,140.44314909999957,140.44314909999957,140.44314909999957,140.44314909999957,140.44314909999957,140.44314909999957,140.44314909999957,140.44314909999957,140.44314909999957,140.44314909999957,num_3,1.107534200000373,141.57728959999804,141.57728959999804,None,,8,001,2025-12-17_17h32.41.937,2025C_exp1_detect,2022.2.4,59.835273492036556,
25.5,45,0,0,-1,-1,0,63,63,148,141.57728959999804,141.57728959999804,142.07804849999957,142.14469050000116,142.1950868999993,142.1950868999993,142.1950868999993,142.1950868999993,142.24494689999847,142.24494689999847,142.24494689999847,142.24494689999847,142.24494689999847,142.24494689999847,142.24494689999847,142.24494689999847,142.24494689999847,142.24494689999847,num_3,1.1619257999991532,143.42925910000122,143.42925910000122,None,,8,001,2025-12-17_17h32.41.937,2025C_exp1_detect,2022.2.4,59.835273492036556,
42.7,315,1,1,1,-1,0,64,64,287,143.42925910000122,143.42925910000122,143.92990640000062,143.99661679999917,144.04694459999882,144.04694459999882,144.04694459999882,144.04694459999882,144.09681139999884,144.09681139999884,144.09681139999884,144.09681139999884,144.09681139999884,144.09681139999884,144.09681139999884,144.09681139999884,144.09681139999884,144.09681139999884,num_1,0.5990428999975848,144.71378790000017,144.71378790000017,None,,8,001,2025-12-17_17h32.41.937,2025C_exp1_detect,2022.2.4,59.835273492036556,
22.7,45,0,0,-1,1,0,65,65,291,144.71378790000017,144.71378790000017,145.21447869999975,145.28122939999957,145.33160040000075,145.33160040000075,145.33160040000075,145.33160040000075,145.38133329999982,145.38133329999982,145.38133329999982,145.38133329999982,145.38133329999982,145.38133329999982,145.38133329999982,145.38133329999982,145.38133329999982,145.38133329999982,num_3,0.7620921000016097,146.16527599999972,146.16527599999972,None,,8,001,2025-12-17_17h32.41.937,2025C_exp1_detect,2022.2.4,59.835273492036556,
15.7,45,1,0,1,-1,0,66,66,235,146.16527599999972,146.16527599999972,146.66601720000108,146.73283459999948,146.78310409999904,146.78310409999904,146.78310409999904,146.78310409999904,146.83304359999966,146.83304359999966,146.83304359999966,146.83304359999966,146.83304359999966,146.83304359999966,146.83304359999966,146.83304359999966,146.83304359999966,146.83304359999966,num_3,1.1255780999999843,147.9837398999989,147.9837398999989,None,,8,001,2025-12-17_17h32.41.937,2025C_exp1_detect,2022.2.4,59.835273492036556,
39.2,315,0,1,1,-1,0,67,67,268,147.9837398999989,147.9837398999989,148.48448609999832,148.55119859999832,148.60150330000033,148.60150330000033,148.60150330000033,148.60150330000033,148.65125279999847,148.65125279999847,148.65125279999847,148.65125279999847,148.65125279999847,148.65125279999847,148.65125279999847,148.65125279999847,148.65125279999847,148.65125279999847,num_1,0.5724641999986488,149.25160770000002,149.25160770000002,None,,8,001,2025-12-17_17h32.41.937,2025C_exp1_detect,2022.2.4,59.835273492036556,
35.3,45,0,1,1,-1,0,68,68,258,149.25160770000002,149.25160770000002,149.7523555000007,149.81924609999987,149.86945220000052,149.86945220000052,149.86945220000052,149.86945220000052,149.9193226999996,149.9193226999996,149.9193226999996,149.9193226999996,149.9193226999996,149.9193226999996,149.9193226999996,149.9193226999996,149.9193226999996,149.9193226999996,num_1,0.5680142999990494,150.51988100000017,150.51988100000017,None,,8,001,2025-12-17_17h32.41.937,2025C_exp1_detect,2022.2.4,59.835273492036556,
19.6,315,0,0,1,-1,0,69,69,227,150.51988100000017,150.51988100000017,151.0203733999988,151.0870103999987,151.13704230000076,151.13704230000076,151.13704230000076,151.13704230000076,151.18704729999808,151.18704729999808,151.18704729999808,151.18704729999808,151.18704729999808,151.18704729999808,151.18704729999808,151.18704729999808,151.18704729999808,151.18704729999808,num_1,0.852739300000394,152.07108280000102,152.07108280000102,None,,8,001,2025-12-17_17h32.41.937,2025C_exp1_detect,2022.2.4,59.835273492036556,
39.2,315,0,1,-1,-1,0,70,70,196,152.07108280000102,152.07108280000102,152.57186480000018,152.6386304000007,152.68891989999975,152.68891989999975,152.68891989999975,152.68891989999975,152.73875489999773,152.73875489999773,152.73875489999773,152.73875489999773,152.73875489999773,152.73875489999773,152.73875489999773,152.73875489999773,152.73875489999773,152.73875489999773,num_3,0.8441831000018283,153.60594420000052,153.60594420000052,None,,8,001,2025-12-17_17h32.41.937,2025C_exp1_detect,2022.2.4,59.835273492036556,
39.2,45,1,1,1,1,0,71,71,421,153.60594420000052,153.60594420000052,154.1067538999996,154.17347510000036,154.22380630000043,154.22380630000043,154.22380630000043,154.22380630000043,154.27349759999925,154.27349759999925,154.27349759999925,154.27349759999925,154.27349759999925,154.27349759999925,154.27349759999925,154.27349759999925,154.27349759999925,154.27349759999925,num_1,0.717587299997831,155.0074816999986,155.0074816999986,None,,8,001,2025-12-17_17h32.41.937,2025C_exp1_detect,2022.2.4,59.835273492036556,
19.6,45,1,0,1,-1,0,72,72,236,155.0074816999986,155.0074816999986,155.50815330000114,155.5746212999984,155.62517970000044,155.62517970000044,155.62517970000044,155.62517970000044,155.67502039999817,155.67502039999817,155.67502039999817,155.67502039999817,155.67502039999817,155.67502039999817,155.67502039999817,155.67502039999817,155.67502039999817,155.67502039999817,num_3,0.8126087000018742,156.50898759999836,156.50898759999836,None,,8,001,2025-12-17_17h32.41.937,2025C_exp1_detect,2022.2.4,59.835273492036556,
35.3,45,1,1,-1,0,0,73,73,60,156.50898759999836,156.50898759999836,157.00963689999844,157.07623989999774,157.12665320000087,157.12665320000087,157.12665320000087,157.12665320000087,157.17653059999793,157.17653059999793,157.17653059999793,157.17653059999793,157.17653059999793,157.17653059999793,157.17653059999793,157.17653059999793,157.17653059999793,157.17653059999793,num_1,0.7345918999999412,157.9438494999995,157.9438494999995,None,,8,001,2025-12-17_17h32.41.937,2025C_exp1_detect,2022.2.4,59.835273492036556,
12.1,45,1,1,1,1,0,74,74,414,157.9438494999995,157.9438494999995,158.44441069999812,158.51099070000055,158.56161079999947,158.56161079999947,158.56161079999947,158.56161079999947,158.61131179999938,158.61131179999938,158.61131179999938,158.61131179999938,158.61131179999938,158.61131179999938,158.61131179999938,158.61131179999938,158.61131179999938,158.61131179999938,num_3,0.9643816999996488,159.59529349999866,159.59529349999866,None,,8,001,2025-12-17_17h32.41.937,2025C_exp1_detect,2022.2.4,59.835273492036556,
22.7,45,1,0,1,0,0,75,75,93,159.59529349999866,159.59529349999866,160.0959402999979,160.16277939999782,160.21310280000034,160.21310280000034,160.21310280000034,160.21310280000034,160.26283839999815,160.26283839999815,160.26283839999815,160.26283839999815,160.26283839999815,160.26283839999815,160.26283839999815,160.26283839999815,160.26283839999815,160.26283839999815,num_3,1.0805786999990232,161.36369080000077,161.36369080000077,None,,8,001,2025-12-17_17h32.41.937,2025C_exp1_detect,2022.2.4,59.835273492036556,
29.4,315,1,1,-1,1,0,76,76,356,161.36369080000077,161.36369080000077,161.86456689999977,161.93115209999814,161.98158300000068,161.98158300000068,161.98158300000068,161.98158300000068,162.03145170000062,162.03145170000062,162.03145170000062,162.03145170000062,162.03145170000062,162.03145170000062,162.03145170000062,162.03145170000062,162.03145170000062,162.03145170000062,num_3,0.9520220999984303,163.01573740000094,163.01573740000094,None,,8,001,2025-12-17_17h32.41.937,2025C_exp1_detect,2022.2.4,59.835273492036556,
25.5,45,1,0,1,-1,0,77,77,238,163.01573740000094,163.01573740000094,163.5161518999994,163.5825678000001,163.63312890000088,163.63312890000088,163.63312890000088,163.63312890000088,163.68302369999947,163.68302369999947,163.68302369999947,163.68302369999947,163.68302369999947,163.68302369999947,163.68302369999947,163.68302369999947,163.68302369999947,163.68302369999947,num_3,0.780775100000028,164.48378020000018,164.48378020000018,None,,8,001,2025-12-17_17h32.41.937,2025C_exp1_detect,2022.2.4,59.835273492036556,
42.7,315,1,0,1,1,0,78,78,395,164.48378020000018,164.48378020000018,164.98440090000076,165.05069899999944,165.1013595000004,165.1013595000004,165.1013595000004,165.1013595000004,165.1511363999998,165.1511363999998,165.1511363999998,165.1511363999998,165.1511363999998,165.1511363999998,165.1511363999998,165.1511363999998,165.1511363999998,165.1511363999998,num_3,1.1357974000020477,166.31869580000057,166.31869580000057,None,,8,001,2025-12-17_17h32.41.937,2025C_exp1_detect,2022.2.4,59.835273492036556,
39.2,315,1,0,1,-1,0,79,79,250,166.31869580000057,166.31869580000057,166.81955689999813,166.88644619999832,166.93669600000067,166.93669600000067,166.93669600000067,166.93669600000067,166.9864935000005,166.9864935000005,166.9864935000005,166.9864935000005,166.9864935000005,166.9864935000005,166.9864935000005,166.9864935000005,166.9864935000005,166.9864935000005,num_3,0.9083749999990687,167.92023459999837,167.92023459999837,None,,8,001,2025-12-17_17h32.41.937,2025C_exp1_detect,2022.2.4,59.835273492036556,
15.7,45,1,1,1,0,0,80,80,127,167.92023459999837,167.92023459999837,168.4207220999997,168.48834999999963,168.537843099999,168.537843099999,168.537843099999,168.537843099999,168.58758859999944,168.58758859999944,168.58758859999944,168.58758859999944,168.58758859999944,168.58758859999944,168.58758859999944,168.58758859999944,168.58758859999944,168.58758859999944,num_1,0.6355818999982148,169.25511069999993,169.25511069999993,None,,8,001,2025-12-17_17h32.41.937,2025C_exp1_detect,2022.2.4,59.835273492036556,
35.3,315,1,0,-1,0,0,81,81,33,169.25511069999993,169.25511069999993,169.75542459999997,169.82242319999932,169.872757000001,169.872757000001,169.872757000001,169.872757000001,169.92259479999848,169.92259479999848,169.92259479999848,169.92259479999848,169.92259479999848,169.92259479999848,169.92259479999848,169.92259479999848,169.92259479999848,169.92259479999848,num_3,1.3800959000000148,171.32372179999948,171.32372179999948,None,,8,001,2025-12-17_17h32.41.937,2025C_exp1_detect,2022.2.4,59.835273492036556,
19.6,45,0,0,1,-1,0,82,82,218,171.32372179999948,171.32372179999948,171.82422049999877,171.89093819999835,171.94122249999782,171.94122249999782,171.94122249999782,171.94122249999782,171.99117879999903,171.99117879999903,171.99117879999903,171.99117879999903,171.99117879999903,171.99117879999903,171.99117879999903,171.99117879999903,171.99117879999903,171.99117879999903,num_3,0.94392919999882,172.95868789999804,172.95868789999804,None,,8,001,2025-12-17_17h32.41.937,2025C_exp1_detect,2022.2.4,59.835273492036556,
19.6,45,0,1,-1,1,0,83,83,326,172.95868789999804,172.95868789999804,173.45957959999942,173.52611959999922,173.57657099999778,173.57657099999778,173.57657099999778,173.57657099999778,173.62631540000075,173.62631540000075,173.62631540000075,173.62631540000075,173.62631540000075,173.62631540000075,173.62631540000075,173.62631540000075,173.62631540000075,173.62631540000075,num_3,0.7892128999992565,174.44343669999944,174.44343669999944,None,,8,001,2025-12-17_17h32.41.937,2025C_exp1_detect,2022.2.4,59.835273492036556,
25.5,315,1,1,1,1,0,84,84,427,174.44343669999944,174.44343669999944,174.94432310000047,175.0110437000003,175.0614428000008,175.0614428000008,175.0614428000008,175.0614428000008,175.11086309999882,175.11086309999882,175.11086309999882,175.11086309999882,175.11086309999882,175.11086309999882,175.11086309999882,175.11086309999882,175.11086309999882,175.11086309999882,num_1,0.6645548999986204,175.79484450000018,175.79484450000018,None,,8,001,2025-12-17_17h32.41.937,2025C_exp1_detect,2022.2.4,59.835273492036556,
42.7,45,1,0,-1,1,0,85,85,314,175.79484450000018,175.79484450000018,176.29565399999774,176.36231580000094,176.4126541000005,176.4126541000005,176.4126541000005,176.4126541000005,176.46244680000018,176.46244680000018,176.46244680000018,176.46244680000018,176.46244680000018,176.46244680000018,176.46244680000018,176.46244680000018,176.46244680000018,176.46244680000018,num_1,0.8492664000004879,177.329656599999,177.329656599999,None,,8,001,2025-12-17_17h32.41.937,2025C_exp1_detect,2022.2.4,59.835273492036556,
19.6,45,0,0,1,1,0,86,86,362,177.329656599999,177.329656599999,177.83044439999867,177.89707999999882,177.94746250000026,177.94746250000026,177.94746250000026,177.94746250000026,177.99732669999867,177.99732669999867,177.99732669999867,177.99732669999867,177.99732669999867,177.99732669999867,177.99732669999867,177.99732669999867,177.99732669999867,177.99732669999867,num_3,0.9223200000014913,178.947941800001,178.947941800001,None,,8,001,2025-12-17_17h32.41.937,2025C_exp1_detect,2022.2.4,59.835273492036556,
29.4,45,0,0,-1,-1,0,87,87,149,178.947941800001,178.947941800001,179.4486078000009,179.51541240000006,179.56573610000123,179.56573610000123,179.56573610000123,179.56573610000123,179.6156082999987,179.6156082999987,179.6156082999987,179.6156082999987,179.6156082999987,179.6156082999987,179.6156082999987,179.6156082999987,179.6156082999987,179.6156082999987,num_3,0.9433626999998523,180.5831044000006,180.5831044000006,None,,8,001,2025-12-17_17h32.41.937,2025C_exp1_detect,2022.2.4,59.835273492036556,
25.5,45,0,1,1,0,0,88,88,112,180.5831044000006,180.5831044000006,181.0838870999978,181.15045389999796,181.2009048,181.2009048,181.2009048,181.2009048,181.2507684000011,181.2507684000011,181.2507684000011,181.2507684000011,181.2507684000011,181.2507684000011,181.2507684000011,181.2507684000011,181.2507684000011,181.2507684000011,num_1,0.6045152000006055,181.88429339999857,181.88429339999857,None,,8,001,2025-12-17_17h32.41.937,2025C_exp1_detect,2022.2.4,59.835273492036556,
15.7,315,1,1,1,1,0,89,89,424,181.88429339999857,181.88429339999857,182.38499199999933,182.45169800000076,182.50202689999787,182.50202689999787,182.50202689999787,182.50202689999787,182.55187830000068,182.55187830000068,182.55187830000068,182.55187830000068,182.55187830000068,182.55187830000068,182.55187830000068,182.55187830000068,182.55187830000068,182.55187830000068,num_1,0.8227885999986029,183.40237889999844,183.40237889999844,None,,8,001,2025-12-17_17h32.41.937,2025C_exp1_detect,2022.2.4,59.835273492036556,
35.3,315,0,1,1,-1,0,90,90,267,183.40237889999844,183.40237889999844,183.90304529999776,183.96989920000124,184.02016209999783,184.02016209999783,184.02016209999783,184.02016209999783,184.07007429999794,184.07007429999794,184.07007429999794,184.07007429999794,184.07007429999794,184.07007429999794,184.07007429999794,184.07007429999794,184.07007429999794,184.07007429999794,num_1,0.8739913000026718,184.97066930000074,184.97066930000074,None,,8,001,2025-12-17_17h32.41.937,2025C_exp1_detect,2022.2.4,59.835273492036556,
39.2,315,1,0,-1,0,0,91,91,34,184.97066930000074,184.97066930000074,185.47138949999862,185.5381176999981,185.5883432999981,185.5883432999981,185.5883432999981,185.5883432999981,185.6382909999993,185.6382909999993,185.6382909999993,185.6382909999993,185.6382909999993,185.6382909999993,185.6382909999993,185.6382909999993,185.6382909999993,185.6382909999993,num_1,0.8563931999997294,186.5224328000004,186.5224328000004,None,,8,001,2025-12-17_17h32.41.937,2025C_exp1_detect,2022.2.4,59.835273492036556,
42.7,315,0,0,-1,0,0,92,92,17,186.5224328000004,186.5224328000004,187.0231488999998,187.08982330000072,187.1401435000007,187.1401435000007,187.1401435000007,187.1401435000007,187.18984880000062,187.18984880000062,187.18984880000062,187.18984880000062,187.18984880000062,187.18984880000062,187.18984880000062,187.18984880000062,187.18984880000062,187.18984880000062,num_3,0.7142285000008997,187.92369379999946,187.92369379999946,None,,8,001,2025-12-17_17h32.41.937,2025C_exp1_detect,2022.2.4,59.835273492036556,
42.7,315,1,0,-1,0,0,93,93,35,187.92369379999946,187.92369379999946,188.42449839999972,188.4911843000009,188.54113030000008,188.54113030000008,188.54113030000008,188.54113030000008,188.5913073999982,188.5913073999982,188.5913073999982,188.5913073999982,188.5913073999982,188.5913073999982,188.5913073999982,188.5913073999982,188.5913073999982,188.5913073999982,num_1,0.7039122999995016,189.32499280000047,189.32499280000047,None,,8,001,2025-12-17_17h32.41.937,2025C_exp1_detect,2022.2.4,59.835273492036556,
19.6,315,1,1,-1,1,0,94,94,353,189.32499280000047,189.32499280000047,189.82574739999836,189.8924655999981,189.9429682000009,189.9429682000009,189.9429682000009,189.9429682000009,189.99274409999998,189.99274409999998,189.99274409999998,189.99274409999998,189.99274409999998,189.99274409999998,189.99274409999998,189.99274409999998,189.99274409999998,189.99274409999998,num_3,1.1991560999995272,191.21047389999876,191.21047389999876,None,,8,001,2025-12-17_17h32.41.937,2025C_exp1_detect,2022.2.4,59.835273492036556,
22.7,45,0,0,-1,0,0,95,95,3,191.21047389999876,191.21047389999876,191.71101400000043,191.7776957999995,191.8279853999993,191.8279853999993,191.8279853999993,191.8279853999993,191.87783399999898,191.87783399999898,191.87783399999898,191.87783399999898,191.87783399999898,191.87783399999898,191.87783399999898,191.87783399999898,191.87783399999898,191.87783399999898,num_3,0.7532776000007289,192.66160899999886,192.66160899999886,None,,8,001,2025-12-17_17h32.41.937,2025C_exp1_detect,2022.2.4,59.835273492036556,
25.5,315,0,0,-1,1,0,96,96,301,192.66160899999886,192.66160899999886,193.16255749999982,193.22931909999897,193.27936449999834,193.27936449999834,193.27936449999834,193.27936449999834,193.329301400001,193.329301400001,193.329301400001,193.329301400001,193.329301400001,193.329301400001,193.329301400001,193.329301400001,193.329301400001,193.329301400001,num_3,0.9744347999985621,194.33020269999906,194.33020269999906,None,,8,001,2025-12-17_17h32.41.937,2025C_exp1_detect,2022.2.4,59.835273492036556,
19.6,315,0,1,1,1,0,97,97,407,194.33020269999906,194.33020269999906,194.83074209999904,194.89736170000106,194.9477442999996,194.9477442999996,194.9477442999996,194.9477442999996,194.9976405999987,194.9976405999987,194.9976405999987,194.9976405999987,194.9976405999987,194.9976405999987,194.9976405999987,194.9976405999987,194.9976405999987,194.9976405999987,num_1,0.752768999998807,195.78172239999913,195.78172239999913,None,,8,001,2025-12-17_17h32.41.937,2025C_exp1_detect,2022.2.4,59.835273492036556,
29.4,45,1,0,-1,0,0,98,98,23,195.78172239999913,195.78172239999913,196.28246349999972,196.3490708999998,196.39937400000053,196.39937400000053,196.39937400000053,196.39937400000053,196.4491111999996,196.4491111999996,196.4491111999996,196.4491111999996,196.4491111999996,196.4491111999996,196.4491111999996,196.4491111999996,196.4491111999996,196.4491111999996,num_1,0.7659112000001187,197.2331269999995,197.2331269999995,None,,8,001,2025-12-17_17h32.41.937,2025C_exp1_detect,2022.2.4,59.835273492036556,
15.7,45,0,1,-1,1,0,99,99,325,197.2331269999995,197.2331269999995,197.7333710999992,197.80004579999877,197.85036179999952,197.85036179999952,197.85036179999952,197.85036179999952,197.9002307999981,197.9002307999981,197.9002307999981,197.9002307999981,197.9002307999981,197.9002307999981,197.9002307999981,197.9002307999981,197.9002307999981,197.9002307999981,num_3,1.290393100000074,199.21810940000069,199.21810940000069,None,,8,001,2025-12-17_17h32.41.937,2025C_exp1_detect,2022.2.4,59.835273492036556,
35.3,315,1,0,1,0,0,100,100,105,199.21810940000069,199.21810940000069,199.71913750000022,199.78584620000038,199.83616619999884,199.83616619999884,199.83616619999884,199.83616619999884,199.88609469999938,199.88609469999938,199.88609469999938,199.88609469999938,199.88609469999938,199.88609469999938,199.88609469999938,199.88609469999938,199.88609469999938,199.88609469999938,num_3,0.7617973000014899,200.66990579999765,200.66990579999765,None,,8,001,2025-12-17_17h32.41.937,2025C_exp1_detect,2022.2.4,59.835273492036556,
39.2,45,0,0,-1,-1,0,101,101,151,200.66990579999765,200.66990579999765,201.1704232000011,201.23710329999813,201.28742639999837,201.28742639999837,201.28742639999837,201.28742639999837,201.3373062999999,201.3373062999999,201.3373062999999,201.3373062999999,201.3373062999999,201.3373062999999,201.3373062999999,201.3373062999999,201.3373062999999,201.3373062999999,num_3,0.6857746000023326,202.0546549999999,202.0546549999999,None,,8,001,2025-12-17_17h32.41.937,2025C_exp1_detect,2022.2.4,59.835273492036556,
29.4,45,0,1,-1,1,0,102,102,329,202.0546549999999,202.0546549999999,202.55494729999918,202.62180439999793,202.67213840000113,202.67213840000113,202.67213840000113,202.67213840000113,202.72202470000047,202.72202470000047,202.72202470000047,202.72202470000047,202.72202470000047,202.72202470000047,202.72202470000047,202.72202470000047,202.72202470000047,202.72202470000047,num_3,0.6690555999994103,203.422902899998,203.422902899998,None,,8,001,2025-12-17_17h32.41.937,2025C_exp1_detect,2022.2.4,59.835273492036556,
35.3,45,1,1,-1,1,0,103,103,348,203.422902899998,203.422902899998,203.92333940000026,203.99001900000076,204.04031589999795,204.04031589999795,204.04031589999795,204.04031589999795,204.0900722999977,204.0900722999977,204.0900722999977,204.0900722999977,204.0900722999977,204.0900722999977,204.0900722999977,204.0900722999977,204.0900722999977,204.0900722999977,num_1,0.48458470000332454,204.60694059999878,204.60694059999878,None,,8,001,2025-12-17_17h32.41.937,2025C_exp1_detect,2022.2.4,59.835273492036556,
15.7,45,1,1,-1,-1,0,104,104,199,204.60694059999878,204.60694059999878,205.1077421000009,205.17415769999934,205.2244771000005,205.2244771000005,205.2244771000005,205.2244771000005,205.2749788000001,205.2749788000001,205.2749788000001,205.2749788000001,205.2749788000001,205.2749788000001,205.2749788000001,205.2749788000001,205.2749788000001,205.2749788000001,num_1,0.6769123999984004,205.9752069999995,205.9752069999995,None,,8,001,2025-12-17_17h32.41.937,2025C_exp1_detect,2022.2.4,59.835273492036556,
15.7,315,1,1,-1,-1,0,105,105,208,205.9752069999995,205.9752069999995,206.47594440000103,206.54274240000086,206.59289910000007,206.59289910000007,206.59289910000007,206.59289910000007,206.64260379999905,206.64260379999905,206.64260379999905,206.64260379999905,206.64260379999905,206.64260379999905,206.64260379999905,206.64260379999905,206.64260379999905,206.64260379999905,num_1,0.5890596999997797,207.25965350000115,207.25965350000115,None,,8,001,2025-12-17_17h32.41.937,2025C_exp1_detect,2022.2.4,59.835273492036556,
35.3,315,1,1,-1,1,0,106,106,357,207.25965350000115,207.25965350000115,207.7604907999994,207.82726600000024,207.87762519999887,207.87762519999887,207.87762519999887,207.87762519999887,207.92737789999956,207.92737789999956,207.92737789999956,207.92737789999956,207.92737789999956,207.92737789999956,207.92737789999956,207.92737789999956,207.92737789999956,207.92737789999956,num_1,0.5127314000019396,208.46126939999886,208.46126939999886,None,,8,001,2025-12-17_17h32.41.937,2025C_exp1_detect,2022.2.4,59.835273492036556,
22.7,315,1,0,1,0,0,107,107,102,208.46126939999886,208.46126939999886,208.96160510000118,209.0282733999993,209.07861290000073,209.07861290000073,209.07861290000073,209.07861290000073,209.12834769999972,209.12834769999972,209.12834769999972,209.12834769999972,209.12834769999972,209.12834769999972,209.12834769999972,209.12834769999972,209.12834769999972,209.12834769999972,num_3,0.8955771000000823,210.04600370000117,210.04600370000117,space,1.5129944999971485,8,001,2025-12-17_17h32.41.937,2025C_exp1_detect,2022.2.4,59.835273492036556,
42.7,45,1,0,-1,0,0,108,108,26,211.58101969999916,211.58101969999916,212.08144940000057,212.14817979999862,212.19846379999944,212.19846379999944,212.19846379999944,212.19846379999944,212.2480942000002,212.2480942000002,212.2480942000002,212.2480942000002,212.2480942000002,212.2480942000002,212.2480942000002,212.2480942000002,212.2480942000002,212.2480942000002,num_1,0.7265807000003406,212.99884630000088,212.99884630000088,None,,8,001,2025-12-17_17h32.41.937,2025C_exp1_detect,2022.2.4,59.835273492036556,
22.7,45,0,1,1,0,0,109,109,111,212.99884630000088,212.99884630000088,213.49940269999934,213.56591109999863,213.61632140000074,213.61632140000074,213.61632140000074,213.61632140000074,213.6662804999978,213.6662804999978,213.6662804999978,213.6662804999978,213.6662804999978,213.6662804999978,213.6662804999978,213.6662804999978,213.6662804999978,213.6662804999978,num_1,0.8936176000024716,214.58393380000052,214.58393380000052,None,,8,001,2025-12-17_17h32.41.937,2025C_exp1_detect,2022.2.4,59.835273492036556,
25.5,45,0,1,1,-1,0,110,110,256,214.58393380000052,214.58393380000052,215.08426659999895,215.15116449999914,215.20139429999836,215.20139429999836,215.20139429999836,215.20139429999836,215.25117160000082,215.25117160000082,215.25117160000082,215.25117160000082,215.25117160000082,215.25117160000082,215.25117160000082,215.25117160000082,215.25117160000082,215.25117160000082,num_1,0.7481249000011303,216.01845029999822,216.01845029999822,None,,8,001,2025-12-17_17h32.41.937,2025C_exp1_detect,2022.2.4,59.835273492036556,
19.6,315,0,0,-1,-1,0,111,111,155,216.01845029999822,216.01845029999822,216.5193376999996,216.58589519999805,216.63635109999814,216.63635109999814,216.63635109999814,216.63635109999814,216.68610070000068,216.68610070000068,216.68610070000068,216.68610070000068,216.68610070000068,216.68610070000068,216.68610070000068,216.68610070000068,216.68610070000068,216.68610070000068,num_3,0.5611982000009448,217.2698352999978,217.2698352999978,None,,8,001,2025-12-17_17h32.41.937,2025C_exp1_detect,2022.2.4,59.835273492036556,
12.1,315,1,1,1,-1,0,112,112,279,217.2698352999978,217.2698352999978,217.77047029999812,217.83723819999796,217.88748449999912,217.88748449999912,217.88748449999912,217.88748449999912,217.9374695999977,217.9374695999977,217.9374695999977,217.9374695999977,217.9374695999977,217.9374695999977,217.9374695999977,217.9374695999977,217.9374695999977,217.9374695999977,num_3,0.933800799997698,218.8883793999994,218.8883793999994,None,,8,001,2025-12-17_17h32.41.937,2025C_exp1_detect,2022.2.4,59.835273492036556,
29.4,45,0,0,-1,1,0,113,113,293,218.8883793999994,218.8883793999994,219.38865409999926,219.45552880000105,219.50582829999985,219.50582829999985,219.50582829999985,219.50582829999985,219.55550859999857,219.55550859999857,219.55550859999857,219.55550859999857,219.55550859999857,219.55550859999857,219.55550859999857,219.55550859999857,219.55550859999857,219.55550859999857,num_3,0.5795881999983976,220.15600319999794,220.15600319999794,None,,8,001,2025-12-17_17h32.41.937,2025C_exp1_detect,2022.2.4,59.835273492036556,
15.7,315,0,1,1,0,0,114,114,118,220.15600319999794,220.15600319999794,220.656527799998,220.72324630000003,220.77343079999991,220.77343079999991,220.77343079999991,220.77343079999991,220.8234448000003,220.8234448000003,220.8234448000003,220.8234448000003,220.8234448000003,220.8234448000003,220.8234448000003,220.8234448000003,220.8234448000003,220.8234448000003,num_1,0.5922891999980493,221.44060230000105,221.44060230000105,None,,8,001,2025-12-17_17h32.41.937,2025C_exp1_detect,2022.2.4,59.835273492036556,
29.4,45,0,0,-1,0,0,115,115,5,221.44060230000105,221.44060230000105,221.94092109999838,222.0080577000008,222.05823959999907,222.05823959999907,222.05823959999907,222.05823959999907,222.1081075000002,222.1081075000002,222.1081075000002,222.1081075000002,222.1081075000002,222.1081075000002,222.1081075000002,222.1081075000002,222.1081075000002,222.1081075000002,num_3,0.8743333000020357,223.00858739999967,223.00858739999967,None,,8,001,2025-12-17_17h32.41.937,2025C_exp1_detect,2022.2.4,59.835273492036556,
42.7,45,0,0,-1,1,0,116,116,296,223.00858739999967,223.00858739999967,223.5094207000002,223.57611429999815,223.62642399999822,223.62642399999822,223.62642399999822,223.62642399999822,223.67628440000044,223.67628440000044,223.67628440000044,223.67628440000044,223.67628440000044,223.67628440000044,223.67628440000044,223.67628440000044,223.67628440000044,223.67628440000044,num_3,0.5624822999998287,224.2601532999979,224.2601532999979,None,,8,001,2025-12-17_17h32.41.937,2025C_exp1_detect,2022.2.4,59.835273492036556,
22.7,315,1,0,1,1,0,117,117,390,224.2601532999979,224.2601532999979,224.7607081999995,224.8273932000011,224.8776089999992,224.8776089999992,224.8776089999992,224.8776089999992,224.9275729000001,224.9275729000001,224.9275729000001,224.9275729000001,224.9275729000001,224.9275729000001,224.9275729000001,224.9275729000001,224.9275729000001,224.9275729000001,num_3,0.8321675000006508,225.77837159999763,225.77837159999763,None,,8,001,2025-12-17_17h32.41.937,2025C_exp1_detect,2022.2.4,59.835273492036556,
42.7,315,0,1,1,1,0,118,118,413,225.77837159999763,225.77837159999763,226.27886399999988,226.34557869999844,226.39575599999807,226.39575599999807,226.39575599999807,226.39575599999807,226.4454521000007,226.4454521000007,226.4454521000007,226.4454521000007,226.4454521000007,226.4454521000007,226.4454521000007,226.4454521000007,226.4454521000007,226.4454521000007,num_1,0.6016702999986592,227.07947649999915,227.07947649999915,None,,8,001,2025-12-17_17h32.41.937,2025C_exp1_detect,2022.2.4,59.835273492036556,
39.2,45,1,0,-1,0,0,119,119,25,227.07947649999915,227.07947649999915,227.57979010000054,227.64654449999944,227.6968334000012,227.6968334000012,227.6968334000012,227.6968334000012,227.74669849999918,227.74669849999918,227.74669849999918,227.74669849999918,227.74669849999918,227.74669849999918,227.74669849999918,227.74669849999918,227.74669849999918,227.74669849999918,num_1,0.708565600001748,228.48101189999943,228.48101189999943,None,,8,001,2025-12-17_17h32.41.937,2025C_exp1_detect,2022.2.4,59.835273492036556,
12.1,315,1,1,-1,1,0,120,120,351,228.48101189999943,228.48101189999943,228.98122499999954,229.04789629999868,229.09824590000062,229.09824590000062,229.09824590000062,229.09824590000062,229.14809700000114,229.14809700000114,229.14809700000114,229.14809700000114,229.14809700000114,229.14809700000114,229.14809700000114,229.14809700000114,229.14809700000114,229.14809700000114,num_1,0.5393401999972411,229.71560970000064,229.71560970000064,None,,8,001,2025-12-17_17h32.41.937,2025C_exp1_detect,2022.2.4,59.835273492036556,
42.7,45,0,1,1,1,0,121,121,404,229.71560970000064,229.71560970000064,230.2158000999989,230.2826591999983,230.33311499999763,230.33311499999763,230.33311499999763,230.33311499999763,230.38323110000056,230.38323110000056,230.38323110000056,230.38323110000056,230.38323110000056,230.38323110000056,230.38323110000056,230.38323110000056,230.38323110000056,230.38323110000056,num_1,0.8001489000016591,231.2003549000001,231.2003549000001,None,,8,001,2025-12-17_17h32.41.937,2025C_exp1_detect,2022.2.4,59.835273492036556,
15.7,315,1,0,-1,-1,0,122,122,172,231.2003549000001,231.2003549000001,231.70093509999788,231.76757409999846,231.8179522999999,231.8179522999999,231.8179522999999,231.8179522999999,231.86768709999888,231.86768709999888,231.86768709999888,231.86768709999888,231.86768709999888,231.86768709999888,231.86768709999888,231.86768709999888,231.86768709999888,231.86768709999888,num_1,0.6756665000029898,232.56865249999828,232.56865249999828,None,,8,001,2025-12-17_17h32.41.937,2025C_exp1_detect,2022.2.4,59.835273492036556,
22.7,45,1,1,1,1,0,123,123,417,232.56865249999828,232.56865249999828,233.06888369999797,233.13555970000016,233.18596249999973,233.18596249999973,233.18596249999973,233.18596249999973,233.2358338999984,233.2358338999984,233.2358338999984,233.2358338999984,233.2358338999984,233.2358338999984,233.2358338999984,233.2358338999984,233.2358338999984,233.2358338999984,num_1,0.6758092999989458,233.9363384999997,233.9363384999997,None,,8,001,2025-12-17_17h32.41.937,2025C_exp1_detect,2022.2.4,59.835273492036556,
25.5,315,1,0,1,-1,0,124,124,247,233.9363384999997,233.9363384999997,234.4369384999991,234.50392769999962,234.55413000000044,234.55413000000044,234.55413000000044,234.55413000000044,234.6038637999991,234.6038637999991,234.6038637999991,234.6038637999991,234.6038637999991,234.6038637999991,234.6038637999991,234.6038637999991,234.6038637999991,234.6038637999991,num_3,0.858656799999153,235.48810189999858,235.48810189999858,None,,8,001,2025-12-17_17h32.41.937,2025C_exp1_detect,2022.2.4,59.835273492036556,
29.4,45,1,1,-1,-1,0,125,125,203,235.48810189999858,235.48810189999858,235.98851749999812,236.05523689999973,236.10556599999836,236.10556599999836,236.10556599999836,236.10556599999836,236.15541339999982,236.15541339999982,236.15541339999982,236.15541339999982,236.15541339999982,236.15541339999982,236.15541339999982,236.15541339999982,236.15541339999982,236.15541339999982,num_1,0.571835300001112,236.7558074999979,236.7558074999979,None,,8,001,2025-12-17_17h32.41.937,2025C_exp1_detect,2022.2.4,59.835273492036556,
19.6,45,1,0,1,1,0,126,126,380,236.7558074999979,236.7558074999979,237.25649839999824,237.3231022,237.3736097000001,237.3736097000001,237.3736097000001,237.3736097000001,237.4233963000006,237.4233963000006,237.4233963000006,237.4233963000006,237.4233963000006,237.4233963000006,237.4233963000006,237.4233963000006,237.4233963000006,237.4233963000006,num_3,0.8553825000017241,238.30753919999916,238.30753919999916,None,,8,001,2025-12-17_17h32.41.937,2025C_exp1_detect,2022.2.4,59.835273492036556,
15.7,315,1,0,-1,0,0,127,127,28,238.30753919999916,238.30753919999916,238.80786230000012,238.87470190000022,238.9250280999986,238.9250280999986,238.9250280999986,238.9250280999986,238.97489270000005,238.97489270000005,238.97489270000005,238.97489270000005,238.97489270000005,238.97489270000005,238.97489270000005,238.97489270000005,238.97489270000005,238.97489270000005,num_1,0.6089525999996113,239.6086346000011,239.6086346000011,None,,8,001,2025-12-17_17h32.41.937,2025C_exp1_detect,2022.2.4,59.835273492036556,
22.7,315,1,1,1,0,0,128,128,138,239.6086346000011,239.6086346000011,240.10944820000077,240.1761731000006,240.22642439999981,240.22642439999981,240.22642439999981,240.22642439999981,240.27637929999764,240.27637929999764,240.27637929999764,240.27637929999764,240.27637929999764,240.27637929999764,240.27637929999764,240.27637929999764,240.27637929999764,240.27637929999764,num_3,0.9062598000018625,241.2102233000005,241.2102233000005,None,,8,001,2025-12-17_17h32.41.937,2025C_exp1_detect,2022.2.4,59.835273492036556,
25.5,315,0,1,1,0,0,129,129,121,241.2102233000005,241.2102233000005,241.71092950000093,241.7776113,241.82793870000023,241.82793870000023,241.82793870000023,241.82793870000023,241.87780180000118,241.87780180000118,241.87780180000118,241.87780180000118,241.87780180000118,241.87780180000118,241.87780180000118,241.87780180000118,241.87780180000118,241.87780180000118,num_3,0.6420161999994889,242.5451310999997,242.5451310999997,None,,8,001,2025-12-17_17h32.41.937,2025C_exp1_detect,2022.2.4,59.835273492036556,
29.4,45,0,0,1,1,0,130,130,365,242.5451310999997,242.5451310999997,243.04558089999773,243.1123000999978,243.16261719999966,243.16261719999966,243.16261719999966,243.16261719999966,243.21249410000019,243.21249410000019,243.21249410000019,243.21249410000019,243.21249410000019,243.21249410000019,243.21249410000019,243.21249410000019,243.21249410000019,243.21249410000019,num_3,0.978130899999087,244.2134365999991,244.2134365999991,None,,8,001,2025-12-17_17h32.41.937,2025C_exp1_detect,2022.2.4,59.835273492036556,
15.7,315,1,0,1,0,0,131,131,100,244.2134365999991,244.2134365999991,244.71394370000053,244.78063689999908,244.83066210000106,244.83066210000106,244.83066210000106,244.83066210000106,244.88079909999942,244.88079909999942,244.88079909999942,244.88079909999942,244.88079909999942,244.88079909999942,244.88079909999942,244.88079909999942,244.88079909999942,244.88079909999942,num_3,0.6938898000007612,245.59813510000095,245.59813510000095,None,,8,001,2025-12-17_17h32.41.937,2025C_exp1_detect,2022.2.4,59.835273492036556,
25.5,315,1,1,-1,0,0,132,132,67,245.59813510000095,245.59813510000095,246.09898469999825,246.16548450000118,246.2156646000003,246.2156646000003,246.2156646000003,246.2156646000003,246.2655451999999,246.2655451999999,246.2655451999999,246.2655451999999,246.2655451999999,246.2655451999999,246.2655451999999,246.2655451999999,246.2655451999999,246.2655451999999,num_1,0.44669659999999567,246.73271999999997,246.73271999999997,None,,8,001,2025-12-17_17h32.41.937,2025C_exp1_detect,2022.2.4,59.835273492036556,
42.7,45,1,1,-1,1,0,133,133,350,246.73271999999997,246.73271999999997,247.2333331000009,247.30009739999878,247.35026110000035,247.35026110000035,247.35026110000035,247.35026110000035,247.40012059999935,247.40012059999935,247.40012059999935,247.40012059999935,247.40012059999935,247.40012059999935,247.40012059999935,247.40012059999935,247.40012059999935,247.40012059999935,num_1,0.5351221000018995,247.96717179999905,247.96717179999905,None,,8,001,2025-12-17_17h32.41.937,2025C_exp1_detect,2022.2.4,59.835273492036556,
19.6,45,0,0,-1,1,0,134,134,290,247.96717179999905,247.96717179999905,248.46781349999947,248.53449470000123,248.5849116999998,248.5849116999998,248.5849116999998,248.5849116999998,248.63479359999837,248.63479359999837,248.63479359999837,248.63479359999837,248.63479359999837,248.63479359999837,248.63479359999837,248.63479359999837,248.63479359999837,248.63479359999837,num_1,0.6677261000004364,249.31863139999768,249.31863139999768,None,,8,001,2025-12-17_17h32.41.937,2025C_exp1_detect,2022.2.4,59.835273492036556,
12.1,45,1,0,1,0,0,135,135,90,249.31863139999768,249.31863139999768,249.81900459999815,249.88572980000026,249.93595339999956,249.93595339999956,249.93595339999956,249.93595339999956,249.98591820000001,249.98591820000001,249.98591820000001,249.98591820000001,249.98591820000001,249.98591820000001,249.98591820000001,249.98591820000001,249.98591820000001,249.98591820000001,num_3,0.8846212999997078,250.90334770000118,250.90334770000118,None,,8,001,2025-12-17_17h32.41.937,2025C_exp1_detect,2022.2.4,59.835273492036556,
15.7,45,1,0,1,1,0,136,136,379,250.90334770000118,250.90334770000118,251.40388069999972,251.47072449999905,251.52088079999885,251.52088079999885,251.52088079999885,251.52088079999885,251.5705882000002,251.5705882000002,251.5705882000002,251.5705882000002,251.5705882000002,251.5705882000002,251.5705882000002,251.5705882000002,251.5705882000002,251.5705882000002,num_3,0.8849072999983036,252.47171109999908,252.47171109999908,None,,8,001,2025-12-17_17h32.41.937,2025C_exp1_detect,2022.2.4,59.835273492036556,
35.3,315,0,0,1,1,0,137,137,375,252.47171109999908,252.47171109999908,252.97218499999872,253.03891189999922,253.08922859999802,253.08922859999802,253.08922859999802,253.08922859999802,253.13876549999986,253.13876549999986,253.13876549999986,253.13876549999986,253.13876549999986,253.13876549999986,253.13876549999986,253.13876549999986,253.13876549999986,253.13876549999986,num_1,0.7249136999998882,253.88958369999818,253.88958369999818,None,,8,001,2025-12-17_17h32.41.937,2025C_exp1_detect,2022.2.4,59.835273492036556,
12.1,315,0,0,1,0,0,138,138,81,253.88958369999818,253.88958369999818,254.39046840000083,254.45710499999768,254.5074104999985,254.5074104999985,254.5074104999985,254.5074104999985,254.55732870000065,254.55732870000065,254.55732870000065,254.55732870000065,254.55732870000065,254.55732870000065,254.55732870000065,254.55732870000065,254.55732870000065,254.55732870000065,num_3,0.7853630999998131,255.37466760000098,255.37466760000098,None,,8,001,2025-12-17_17h32.41.937,2025C_exp1_detect,2022.2.4,59.835273492036556,
25.5,315,1,0,-1,1,0,139,139,319,255.37466760000098,255.37466760000098,255.87498729999788,255.9418048999978,255.9921093999983,255.9921093999983,255.9921093999983,255.9921093999983,256.0419898,256.0419898,256.0419898,256.0419898,256.0419898,256.0419898,256.0419898,256.0419898,256.0419898,256.0419898,num_1,0.8455006000003777,256.9093876000006,256.9093876000006,None,,8,001,2025-12-17_17h32.41.937,2025C_exp1_detect,2022.2.4,59.835273492036556,
39.2,45,1,1,-1,-1,0,140,140,205,256.9093876000006,256.9093876000006,257.4096384000004,257.4763306999994,257.5266252000001,257.5266252000001,257.5266252000001,257.5266252000001,257.5766322999989,257.5766322999989,257.5766322999989,257.5766322999989,257.5766322999989,257.5766322999989,257.5766322999989,257.5766322999989,257.5766322999989,257.5766322999989,num_1,0.7981408999985433,258.3939227999981,258.3939227999981,None,,8,001,2025-12-17_17h32.41.937,2025C_exp1_detect,2022.2.4,59.835273492036556,
25.5,45,0,0,-1,0,0,141,141,4,258.3939227999981,258.3939227999981,258.8943829999989,258.9611810999995,259.01145819999874,259.01145819999874,259.01145819999874,259.01145819999874,259.06134269999893,259.06134269999893,259.06134269999893,259.06134269999893,259.06134269999893,259.06134269999893,259.06134269999893,259.06134269999893,259.06134269999893,259.06134269999893,num_1,0.9373332999966806,260.0291935999994,260.0291935999994,None,,8,001,2025-12-17_17h32.41.937,2025C_exp1_detect,2022.2.4,59.835273492036556,
29.4,45,0,1,1,1,0,142,142,401,260.0291935999994,260.0291935999994,260.5297434999993,260.59655909999856,260.6468712999995,260.6468712999995,260.6468712999995,260.6468712999995,260.696501800001,260.696501800001,260.696501800001,260.696501800001,260.696501800001,260.696501800001,260.696501800001,260.696501800001,260.696501800001,260.696501800001,num_1,0.7339806999989378,261.44708900000114,261.44708900000114,None,,8,001,2025-12-17_17h32.41.937,2025C_exp1_detect,2022.2.4,59.835273492036556,
42.7,45,0,0,-1,0,0,143,143,8,261.44708900000114,261.44708900000114,261.9480622999981,262.01474600000074,262.06483509999816,262.06483509999816,262.06483509999816,262.06483509999816,262.1149163000009,262.1149163000009,262.1149163000009,262.1149163000009,262.1149163000009,262.1149163000009,262.1149163000009,262.1149163000009,262.1149163000009,262.1149163000009,num_3,0.9003617000016675,263.03220529999817,263.03220529999817,None,,8,001,2025-12-17_17h32.41.937,2025C_exp1_detect,2022.2.4,59.835273492036556,
12.1,315,0,1,1,-1,0,144,144,261,263.03220529999817,263.03220529999817,263.5324935999997,263.5991987999987,263.64962770000056,263.64962770000056,263.64962770000056,263.64962770000056,263.6996180999995,263.6996180999995,263.6996180999995,263.6996180999995,263.6996180999995,263.6996180999995,263.6996180999995,263.6996180999995,263.6996180999995,263.6996180999995,num_3,0.8349456999967515,264.56708340000114,264.56708340000114,None,,8,001,2025-12-17_17h32.41.937,2025C_exp1_detect,2022.2.4,59.835273492036556,
35.3,315,0,0,-1,0,0,145,145,15,264.56708340000114,264.56708340000114,265.06756719999976,265.1342704999988,265.18458969999847,265.18458969999847,265.18458969999847,265.18458969999847,265.2344625000005,265.2344625000005,265.2344625000005,265.2344625000005,265.2344625000005,265.2344625000005,265.2344625000005,265.2344625000005,265.2344625000005,265.2344625000005,num_3,0.7486066999990726,266.0016567999992,266.0016567999992,None,,8,001,2025-12-17_17h32.41.937,2025C_exp1_detect,2022.2.4,59.835273492036556,
35.3,315,1,0,1,1,0,146,146,393,266.0016567999992,266.0016567999992,266.50251279999793,266.5691967999992,266.6194914000007,266.6194914000007,266.6194914000007,266.6194914000007,266.66924819999986,266.66924819999986,266.66924819999986,266.66924819999986,266.66924819999986,266.66924819999986,266.66924819999986,266.66924819999986,266.66924819999986,266.66924819999986,num_1,0.6497153999989678,267.33661869999924,267.33661869999924,None,,8,001,2025-12-17_17h32.41.937,2025C_exp1_detect,2022.2.4,59.835273492036556,
22.7,315,0,0,1,-1,0,147,147,228,267.33661869999924,267.33661869999924,267.837042799998,267.903458599998,267.9541272999995,267.9541272999995,267.9541272999995,267.9541272999995,268.0041883999984,268.0041883999984,268.0041883999984,268.0041883999984,268.0041883999984,268.0041883999984,268.0041883999984,268.0041883999984,268.0041883999984,268.0041883999984,num_3,0.7863016000010248,268.821426399998,268.821426399998,None,,8,001,2025-12-17_17h32.41.937,2025C_exp1_detect,2022.2.4,59.835273492036556,
12.1,315,0,1,1,0,0,148,148,117,268.821426399998,268.821426399998,269.3220494999987,269.38877349999893,269.4391031999985,269.4391031999985,269.4391031999985,269.4391031999985,269.48882740000045,269.48882740000045,269.48882740000045,269.48882740000045,269.48882740000045,269.48882740000045,269.48882740000045,269.48882740000045,269.48882740000045,269.48882740000045,num_1,0.6137866999997641,270.12263370000073,270.12263370000073,None,,8,001,2025-12-17_17h32.41.937,2025C_exp1_detect,2022.2.4,59.835273492036556,
25.5,315,1,1,-1,1,0,149,149,355,270.12263370000073,270.12263370000073,270.6230531000001,270.68978069999866,270.7402026999989,270.7402026999989,270.7402026999989,270.7402026999989,270.78992089999883,270.78992089999883,270.78992089999883,270.78992089999883,270.78992089999883,270.78992089999883,270.78992089999883,270.78992089999883,270.78992089999883,270.78992089999883,num_3,0.8255905000005441,271.6408142,271.6408142,None,,8,001,2025-12-17_17h32.41.937,2025C_exp1_detect,2022.2.4,59.835273492036556,
29.4,45,1,1,1,0,0,150,150,131,271.6408142,271.6408142,272.14137689999916,272.2080569999998,272.25836770000024,272.25836770000024,272.25836770000024,272.25836770000024,272.30817129999923,272.30817129999923,272.30817129999923,272.30817129999923,272.30817129999923,272.30817129999923,272.30817129999923,272.30817129999923,272.30817129999923,272.30817129999923,num_1,0.8672802000000956,273.1924644999999,273.1924644999999,None,,8,001,2025-12-17_17h32.41.937,2025C_exp1_detect,2022.2.4,59.835273492036556,
25.5,315,0,1,-1,1,0,151,151,337,273.1924644999999,273.1924644999999,273.69276549999995,273.75960869999835,273.8098702999996,273.8098702999996,273.8098702999996,273.8098702999996,273.8597661999993,273.8597661999993,273.8597661999993,273.8597661999993,273.8597661999993,273.8597661999993,273.8597661999993,273.8597661999993,273.8597661999993,273.8597661999993,num_3,0.6758296000007249,274.56038289999924,274.56038289999924,None,,8,001,2025-12-17_17h32.41.937,2025C_exp1_detect,2022.2.4,59.835273492036556,
12.1,45,1,1,-1,0,0,152,152,54,274.56038289999924,274.56038289999924,275.0608739999989,275.12760680000065,275.1777671999989,275.1777671999989,275.1777671999989,275.1777671999989,275.2277713000003,275.2277713000003,275.2277713000003,275.2277713000003,275.2277713000003,275.2277713000003,275.2277713000003,275.2277713000003,275.2277713000003,275.2277713000003,num_1,1.044421999999031,276.2953295999978,276.2953295999978,None,,8,001,2025-12-17_17h32.41.937,2025C_exp1_detect,2022.2.4,59.835273492036556,
12.1,45,0,1,-1,-1,0,153,153,180,276.2953295999978,276.2953295999978,276.7959711000003,276.8624056999979,276.91308669999853,276.91308669999853,276.91308669999853,276.91308669999853,276.96310900000026,276.96310900000026,276.96310900000026,276.96310900000026,276.96310900000026,276.96310900000026,276.96310900000026,276.96310900000026,276.96310900000026,276.96310900000026,num_1,0.7075567000028968,277.6970020000008,277.6970020000008,None,,8,001,2025-12-17_17h32.41.937,2025C_exp1_detect,2022.2.4,59.835273492036556,
42.7,45,0,0,1,-1,0,154,154,224,277.6970020000008,277.6970020000008,278.19734999999855,278.26405619999787,278.31421989999944,278.31421989999944,278.31421989999944,278.31421989999944,278.3642474999979,278.3642474999979,278.3642474999979,278.3642474999979,278.3642474999979,278.3642474999979,278.3642474999979,278.3642474999979,278.3642474999979,278.3642474999979,num_3,0.49101859999791486,278.8812782999994,278.8812782999994,None,,8,001,2025-12-17_17h32.41.937,2025C_exp1_detect,2022.2.4,59.835273492036556,
22.7,315,0,1,-1,-1,0,155,155,192,278.8812782999994,278.8812782999994,279.38188399999854,279.4486853999988,279.4990528999988,279.4990528999988,279.4990528999988,279.4990528999988,279.5488860999976,279.5488860999976,279.5488860999976,279.5488860999976,279.5488860999976,279.5488860999976,279.5488860999976,279.5488860999976,279.5488860999976,279.5488860999976,num_3,0.6734149000003526,280.24910349999845,280.24910349999845,None,,8,001,2025-12-17_17h32.41.937,2025C_exp1_detect,2022.2.4,59.835273492036556,
42.7,315,0,1,1,-1,0,156,156,269,280.24910349999845,280.24910349999845,280.7500104999999,280.81660999999804,280.86692570000014,280.86692570000014,280.86692570000014,280.86692570000014,280.91682279999804,280.91682279999804,280.91682279999804,280.91682279999804,280.91682279999804,280.91682279999804,280.91682279999804,280.91682279999804,280.91682279999804,280.91682279999804,num_1,0.6098822000021755,281.5506854999985,281.5506854999985,None,,8,001,2025-12-17_17h32.41.937,2025C_exp1_detect,2022.2.4,59.835273492036556,
39.2,45,0,1,-1,1,0,157,157,331,281.5506854999985,281.5506854999985,282.0511508999989,282.1179090000005,282.16820839999855,282.16820839999855,282.16820839999855,282.16820839999855,282.21783159999904,282.21783159999904,282.21783159999904,282.21783159999904,282.21783159999904,282.21783159999904,282.21783159999904,282.21783159999904,282.21783159999904,282.21783159999904,num_3,0.7415844000024663,282.98544299999776,282.98544299999776,None,,8,001,2025-12-17_17h32.41.937,2025C_exp1_detect,2022.2.4,59.835273492036556,
15.7,45,0,1,-1,0,0,158,158,37,282.98544299999776,282.98544299999776,283.48595560000103,283.5526635999995,283.6029897999979,283.6029897999979,283.6029897999979,283.6029897999979,283.652865,283.652865,283.652865,283.652865,283.652865,283.652865,283.652865,283.652865,283.652865,283.652865,num_3,1.0431114999992133,284.7204908999993,284.7204908999993,None,,8,001,2025-12-17_17h32.41.937,2025C_exp1_detect,2022.2.4,59.835273492036556,
22.7,315,0,0,-1,-1,0,159,159,156,284.7204908999993,284.7204908999993,285.221149099998,285.28772200000094,285.33808080000017,285.33808080000017,285.33808080000017,285.33808080000017,285.38796419999926,285.38796419999926,285.38796419999926,285.38796419999926,285.38796419999926,285.38796419999926,285.38796419999926,285.38796419999926,285.38796419999926,285.38796419999926,num_3,0.7876032999993186,286.20540020000044,286.20540020000044,None,,8,001,2025-12-17_17h32.41.937,2025C_exp1_detect,2022.2.4,59.835273492036556,
22.7,45,1,1,-1,-1,0,160,160,201,286.20540020000044,286.20540020000044,286.70604230000026,286.77275689999806,286.8230393999984,286.8230393999984,286.8230393999984,286.8230393999984,286.8728029999984,286.8728029999984,286.8728029999984,286.8728029999984,286.8728029999984,286.8728029999984,286.8728029999984,286.8728029999984,286.8728029999984,286.8728029999984,num_1,0.6534634999989066,287.55637419999766,287.55637419999766,None,,8,001,2025-12-17_17h32.41.937,2025C_exp1_detect,2022.2.4,59.835273492036556,
42.7,45,0,0,1,0,0,161,161,80,287.55637419999766,287.55637419999766,288.0568897999983,288.12392230000114,288.1738880999983,288.1738880999983,288.1738880999983,288.1738880999983,288.22395179999876,288.22395179999876,288.22395179999876,288.22395179999876,288.22395179999876,288.22395179999876,288.22395179999876,288.22395179999876,288.22395179999876,288.22395179999876,num_3,1.015890999999101,289.2584956999999,289.2584956999999,None,,8,001,2025-12-17_17h32.41.937,2025C_exp1_detect,2022.2.4,59.835273492036556,
19.6,315,0,0,1,0,0,162,162,83,289.2584956999999,289.2584956999999,289.7591040999978,289.825772199998,289.87603579999995,289.87603579999995,289.87603579999995,289.87603579999995,289.92593769999803,289.92593769999803,289.92593769999803,289.92593769999803,289.92593769999803,289.92593769999803,289.92593769999803,289.92593769999803,289.92593769999803,289.92593769999803,num_3,0.5766184999993129,290.5263382000012,290.5263382000012,None,,8,001,2025-12-17_17h32.41.937,2025C_exp1_detect,2022.2.4,59.835273492036556,
19.6,315,1,0,1,-1,0,163,163,245,290.5263382000012,290.5263382000012,291.0268391999998,291.093546600001,291.1438488999993,291.1438488999993,291.1438488999993,291.1438488999993,291.19373149999956,291.19373149999956,291.19373149999956,291.19373149999956,291.19373149999956,291.19373149999956,291.19373149999956,291.19373149999956,291.19373149999956,291.19373149999956,num_3,0.5257337000002735,291.74409300000116,291.74409300000116,None,,8,001,2025-12-17_17h32.41.937,2025C_exp1_detect,2022.2.4,59.835273492036556,
25.5,45,1,0,-1,1,0,164,164,310,291.74409300000116,291.74409300000116,292.24474980000014,292.3114758999982,292.3617642999998,292.3617642999998,292.3617642999998,292.3617642999998,292.41162410000106,292.41162410000106,292.41162410000106,292.41162410000106,292.41162410000106,292.41162410000106,292.41162410000106,292.41162410000106,292.41162410000106,292.41162410000106,num_3,1.3233676999989257,293.7629171999979,293.7629171999979,None,,8,001,2025-12-17_17h32.41.937,2025C_exp1_detect,2022.2.4,59.835273492036556,
25.5,315,1,0,1,0,0,165,165,103,293.7629171999979,293.7629171999979,294.26353050000034,294.3301136000009,294.38041599999997,294.38041599999997,294.38041599999997,294.38041599999997,294.43009569999776,294.43009569999776,294.43009569999776,294.43009569999776,294.43009569999776,294.43009569999776,294.43009569999776,294.43009569999776,294.43009569999776,294.43009569999776,num_3,0.6325864999998885,295.08102750000035,295.08102750000035,None,,8,001,2025-12-17_17h32.41.937,2025C_exp1_detect,2022.2.4,59.835273492036556,
35.3,315,1,0,1,-1,0,166,166,249,295.08102750000035,295.08102750000035,295.5815612000006,295.64823759999854,295.69833930000095,295.69833930000095,295.69833930000095,295.69833930000095,295.74813780000113,295.74813780000113,295.74813780000113,295.74813780000113,295.74813780000113,295.74813780000113,295.74813780000113,295.74813780000113,295.74813780000113,295.74813780000113,num_3,0.7474463999969885,296.5156268999999,296.5156268999999,None,,8,001,2025-12-17_17h32.41.937,2025C_exp1_detect,2022.2.4,59.835273492036556,
15.7,45,0,1,1,-1,0,167,167,253,296.5156268999999,296.5156268999999,297.01594049999767,297.08292190000066,297.1328788999999,297.1328788999999,297.1328788999999,297.1328788999999,297.18319110000084,297.18319110000084,297.18319110000084,297.18319110000084,297.18319110000084,297.18319110000084,297.18319110000084,297.18319110000084,297.18319110000084,297.18319110000084,num_1,0.8003377999993972,298.0006014999999,298.0006014999999,None,,8,001,2025-12-17_17h32.41.937,2025C_exp1_detect,2022.2.4,59.835273492036556,
12.1,315,0,0,-1,0,0,168,168,9,298.0006014999999,298.0006014999999,298.5013632000009,298.5676652000002,298.61813880000045,298.61813880000045,298.61813880000045,298.61813880000045,298.66783790000045,298.66783790000045,298.66783790000045,298.66783790000045,298.66783790000045,298.66783790000045,298.66783790000045,298.66783790000045,298.66783790000045,298.66783790000045,num_3,0.603311399998347,299.30149789999996,299.30149789999996,None,,8,001,2025-12-17_17h32.41.937,2025C_exp1_detect,2022.2.4,59.835273492036556,
15.7,45,0,0,1,-1,0,169,169,217,299.30149789999996,299.30149789999996,299.8022662000003,299.86897769999996,299.919292999999,299.919292999999,299.919292999999,299.919292999999,299.96915629999785,299.96915629999785,299.96915629999785,299.96915629999785,299.96915629999785,299.96915629999785,299.96915629999785,299.96915629999785,299.96915629999785,299.96915629999785,num_3,0.7426173000021663,300.73640460000024,300.73640460000024,None,,8,001,2025-12-17_17h32.41.937,2025C_exp1_detect,2022.2.4,59.835273492036556,
22.7,315,0,0,1,0,0,170,170,84,300.73640460000024,300.73640460000024,301.23719060000076,301.30379080000057,301.35418070000014,301.35418070000014,301.35418070000014,301.35418070000014,301.40405660000033,301.40405660000033,301.40405660000033,301.40405660000033,301.40405660000033,301.40405660000033,301.40405660000033,301.40405660000033,301.40405660000033,301.40405660000033,num_3,0.8345879000007699,302.27137120000043,302.27137120000043,None,,8,001,2025-12-17_17h32.41.937,2025C_exp1_detect,2022.2.4,59.835273492036556,
15.7,45,1,1,-1,1,0,171,171,343,302.27137120000043,302.27137120000043,302.7719006999978,302.8386031000009,302.88887590000013,302.88887590000013,302.88887590000013,302.88887590000013,302.9387683999994,302.9387683999994,302.9387683999994,302.9387683999994,302.9387683999994,302.9387683999994,302.9387683999994,302.9387683999994,302.9387683999994,302.9387683999994,num_1,0.8203508999977203,303.7897042000004,303.7897042000004,None,,8,001,2025-12-17_17h32.41.937,2025C_exp1_detect,2022.2.4,59.835273492036556,
42.7,315,1,0,-1,-1,0,172,172,179,303.7897042000004,303.7897042000004,304.2900797000002,304.35677249999935,304.4071148000003,304.4071148000003,304.4071148000003,304.4071148000003,304.4569976999992,304.4569976999992,304.4569976999992,304.4569976999992,304.4569976999992,304.4569976999992,304.4569976999992,304.4569976999992,304.4569976999992,304.4569976999992,num_1,0.6461548999977822,305.1243108999988,305.1243108999988,None,,8,001,2025-12-17_17h32.41.937,2025C_exp1_detect,2022.2.4,59.835273492036556,
15.7,45,1,1,1,1,0,173,173,415,305.1243108999988,305.1243108999988,305.62464399999953,305.6914809000009,305.74156199999925,305.74156199999925,305.74156199999925,305.74156199999925,305.79164749999836,305.79164749999836,305.79164749999836,305.79164749999836,305.79164749999836,305.79164749999836,305.79164749999836,305.79164749999836,305.79164749999836,305.79164749999836,num_3,1.031611200000043,306.8426260999986,306.8426260999986,None,,8,001,2025-12-17_17h32.41.937,2025C_exp1_detect,2022.2.4,59.835273492036556,
42.7,45,0,1,1,0,0,174,174,116,306.8426260999986,306.8426260999986,307.343020100001,307.4098073999994,307.46007610000015,307.46007610000015,307.46007610000015,307.46007610000015,307.51007670000035,307.51007670000035,307.51007670000035,307.51007670000035,307.51007670000035,307.51007670000035,307.51007670000035,307.51007670000035,307.51007670000035,307.51007670000035,num_1,1.0726187999971444,308.61113249999835,308.61113249999835,None,,8,001,2025-12-17_17h32.41.937,2025C_exp1_detect,2022.2.4,59.835273492036556,
19.6,45,0,1,1,-1,0,175,175,254,308.61113249999835,308.61113249999835,309.111592199999,309.1783402000001,309.2287050999985,309.2287050999985,309.2287050999985,309.2287050999985,309.27834620000067,309.27834620000067,309.27834620000067,309.27834620000067,309.27834620000067,309.27834620000067,309.27834620000067,309.27834620000067,309.27834620000067,309.27834620000067,num_1,0.5765852000004088,309.8789962999981,309.8789962999981,None,,8,001,2025-12-17_17h32.41.937,2025C_exp1_detect,2022.2.4,59.835273492036556,
12.1,315,0,0,1,1,0,176,176,369,309.8789962999981,309.8789962999981,310.379484699999,310.4461510000001,310.4964264000009,310.4964264000009,310.4964264000009,310.4964264000009,310.5462473000007,310.5462473000007,310.5462473000007,310.5462473000007,310.5462473000007,310.5462473000007,310.5462473000007,310.5462473000007,310.5462473000007,310.5462473000007,num_3,0.7969472000004316,311.36351659999855,311.36351659999855,None,,8,001,2025-12-17_17h32.41.937,2025C_exp1_detect,2022.2.4,59.835273492036556,
29.4,315,1,0,-1,0,0,177,177,32,311.36351659999855,311.36351659999855,311.86453189999884,311.9311940999978,311.9814736999979,311.9814736999979,311.9814736999979,311.9814736999979,312.0313755999996,312.0313755999996,312.0313755999996,312.0313755999996,312.0313755999996,312.0313755999996,312.0313755999996,312.0313755999996,312.0313755999996,312.0313755999996,num_1,0.9992677999980515,313.04879190000065,313.04879190000065,None,,8,001,2025-12-17_17h32.41.937,2025C_exp1_detect,2022.2.4,59.835273492036556,
22.7,315,1,0,-1,1,0,178,178,318,313.04879190000065,313.04879190000065,313.54919040000095,313.61604050000096,313.6662914000008,313.6662914000008,313.6662914000008,313.6662914000008,313.71620970000004,313.71620970000004,313.71620970000004,313.71620970000004,313.71620970000004,313.71620970000004,313.71620970000004,313.71620970000004,313.71620970000004,313.71620970000004,num_1,0.8271172999993723,314.566844500001,314.566844500001,None,,8,001,2025-12-17_17h32.41.937,2025C_exp1_detect,2022.2.4,59.835273492036556,
39.2,315,1,1,-1,0,0,179,179,70,314.566844500001,314.566844500001,315.0676663999984,315.134253799999,315.1846433999999,315.1846433999999,315.1846433999999,315.1846433999999,315.2344273999988,315.2344273999988,315.2344273999988,315.2344273999988,315.2344273999988,315.2344273999988,315.2344273999988,315.2344273999988,315.2344273999988,315.2344273999988,num_1,0.5485408000022289,315.80159099999946,315.80159099999946,None,,8,001,2025-12-17_17h32.41.937,2025C_exp1_detect,2022.2.4,59.835273492036556,
35.3,315,0,0,1,-1,0,180,180,231,315.80159099999946,315.80159099999946,316.30207999999766,316.36867279999933,316.4190466,316.4190466,316.4190466,316.4190466,316.4689849999995,316.4689849999995,316.4689849999995,316.4689849999995,316.4689849999995,316.4689849999995,316.4689849999995,316.4689849999995,316.4689849999995,316.4689849999995,num_3,0.6268123000008927,317.1195689999986,317.1195689999986,None,,8,001,2025-12-17_17h32.41.937,2025C_exp1_detect,2022.2.4,59.835273492036556,
22.7,45,0,1,-1,0,0,181,181,39,317.1195689999986,317.1195689999986,317.6197800000009,317.6865080999996,317.7367699999995,317.7367699999995,317.7367699999995,317.7367699999995,317.7866931999997,317.7866931999997,317.7866931999997,317.7866931999997,317.7866931999997,317.7866931999997,317.7866931999997,317.7866931999997,317.7866931999997,317.7866931999997,num_3,1.059514800002944,318.87099690000105,318.87099690000105,None,,8,001,2025-12-17_17h32.41.937,2025C_exp1_detect,2022.2.4,59.835273492036556,
35.3,315,0,1,-1,0,0,182,182,51,318.87099690000105,318.87099690000105,319.3716659999991,319.4385108999995,319.48882980000053,319.48882980000053,319.48882980000053,319.48882980000053,319.5387207999993,319.5387207999993,319.5387207999993,319.5387207999993,319.5387207999993,319.5387207999993,319.5387207999993,319.5387207999993,319.5387207999993,319.5387207999993,num_3,0.6448852000030456,320.2060921000011,320.2060921000011,None,,8,001,2025-12-17_17h32.41.937,2025C_exp1_detect,2022.2.4,59.835273492036556,
19.6,45,0,1,1,0,0,183,183,110,320.2060921000011,320.2060921000011,320.7063086999988,320.77318939999896,320.82352049999827,320.82352049999827,320.82352049999827,320.82352049999827,320.8731095000003,320.8731095000003,320.8731095000003,320.8731095000003,320.8731095000003,320.8731095000003,320.8731095000003,320.8731095000003,320.8731095000003,320.8731095000003,num_3,1.029558199999883,321.9244977999988,321.9244977999988,None,,8,001,2025-12-17_17h32.41.937,2025C_exp1_detect,2022.2.4,59.835273492036556,
19.6,315,0,1,-1,1,0,184,184,335,321.9244977999988,321.9244977999988,322.4251409999997,322.4917239999995,322.5421174000003,322.5421174000003,322.5421174000003,322.5421174000003,322.59199439999793,322.59199439999793,322.59199439999793,322.59199439999793,322.59199439999793,322.59199439999793,322.59199439999793,322.59199439999793,322.59199439999793,322.59199439999793,num_3,0.7433315999987826,323.35910409999997,323.35910409999997,None,,8,001,2025-12-17_17h32.41.937,2025C_exp1_detect,2022.2.4,59.835273492036556,
29.4,315,1,0,-1,1,0,185,185,320,323.35910409999997,323.35910409999997,323.85964129999775,323.9262870999992,323.97661549999975,323.97661549999975,323.97661549999975,323.97661549999975,324.02641700000095,324.02641700000095,324.02641700000095,324.02641700000095,324.02641700000095,324.02641700000095,324.02641700000095,324.02641700000095,324.02641700000095,324.02641700000095,num_1,0.6681683999995585,324.7271225000004,324.7271225000004,None,,8,001,2025-12-17_17h32.41.937,2025C_exp1_detect,2022.2.4,59.835273492036556,
42.7,45,1,0,1,1,0,186,186,386,324.7271225000004,324.7271225000004,325.22781829999803,325.2943195000007,325.34470950000104,325.34470950000104,325.34470950000104,325.34470950000104,325.3944699999993,325.3944699999993,325.3944699999993,325.3944699999993,325.3944699999993,325.3944699999993,325.3944699999993,325.3944699999993,325.3944699999993,325.3944699999993,num_3,0.7240410000013071,326.14509220000036,326.14509220000036,None,,8,001,2025-12-17_17h32.41.937,2025C_exp1_detect,2022.2.4,59.835273492036556,
19.6,315,0,1,-1,0,0,187,187,47,326.14509220000036,326.14509220000036,326.6456152999999,326.7124541999983,326.7627499000009,326.7627499000009,326.7627499000009,326.7627499000009,326.8126468999981,326.8126468999981,326.8126468999981,326.8126468999981,326.8126468999981,326.8126468999981,326.8126468999981,326.8126468999981,326.8126468999981,326.8126468999981,num_3,0.7622114999976475,327.5969187999981,327.5969187999981,None,,8,001,2025-12-17_17h32.41.937,2025C_exp1_detect,2022.2.4,59.835273492036556,
35.3,315,0,1,-1,1,0,188,188,339,327.5969187999981,327.5969187999981,328.09724070000084,328.16380709999794,328.2142318999977,328.2142318999977,328.2142318999977,328.2142318999977,328.2639806999978,328.2639806999978,328.2639806999978,328.2639806999978,328.2639806999978,328.2639806999978,328.2639806999978,328.2639806999978,328.2639806999978,328.2639806999978,num_3,0.7434243999996397,329.03147779999927,329.03147779999927,None,,8,001,2025-12-17_17h32.41.937,2025C_exp1_detect,2022.2.4,59.835273492036556,
25.5,45,0,1,-1,0,0,189,189,40,329.03147779999927,329.03147779999927,329.5318511000005,329.5986869999979,329.64901269999973,329.64901269999973,329.64901269999973,329.64901269999973,329.69888309999806,329.69888309999806,329.69888309999806,329.69888309999806,329.69888309999806,329.69888309999806,329.69888309999806,329.69888309999806,329.69888309999806,329.69888309999806,num_3,0.5162421999993967,330.232667100001,330.232667100001,None,,8,001,2025-12-17_17h32.41.937,2025C_exp1_detect,2022.2.4,59.835273492036556,
42.7,315,0,0,-1,1,0,190,190,305,330.232667100001,330.232667100001,330.7331814999998,330.7999082999995,330.85019470000043,330.85019470000043,330.85019470000043,330.85019470000043,330.90006079999876,330.90006079999876,330.90006079999876,330.90006079999876,330.90006079999876,330.90006079999876,330.90006079999876,330.90006079999876,330.90006079999876,330.90006079999876,num_3,0.4591679999975895,331.38363449999815,331.38363449999815,None,,8,001,2025-12-17_17h32.41.937,2025C_exp1_detect,2022.2.4,59.835273492036556,
15.7,315,1,1,1,-1,0,191,191,280,331.38363449999815,331.38363449999815,331.88432829999874,331.95117259999824,332.0014665999988,332.0014665999988,332.0014665999988,332.0014665999988,332.05123009999807,332.05123009999807,332.05123009999807,332.05123009999807,332.05123009999807,332.05123009999807,332.05123009999807,332.05123009999807,332.05123009999807,332.05123009999807,num_1,0.5390913000010187,332.6183949999977,332.6183949999977,None,,8,001,2025-12-17_17h32.41.937,2025C_exp1_detect,2022.2.4,59.835273492036556,
42.7,315,0,1,-1,0,0,192,192,53,332.6183949999977,332.6183949999977,333.11886709999817,333.18550630000027,333.2358338999984,333.2358338999984,333.2358338999984,333.2358338999984,333.28573959999994,333.28573959999994,333.28573959999994,333.28573959999994,333.28573959999994,333.28573959999994,333.28573959999994,333.28573959999994,333.28573959999994,333.28573959999994,num_3,0.6980602000003273,334.00298380000095,334.00298380000095,None,,8,001,2025-12-17_17h32.41.937,2025C_exp1_detect,2022.2.4,59.835273492036556,
25.5,45,1,1,1,1,0,193,193,418,334.00298380000095,334.00298380000095,334.5036104999999,334.57035990000077,334.62059750000117,334.62059750000117,334.62059750000117,334.62059750000117,334.67052390000026,334.67052390000026,334.67052390000026,334.67052390000026,334.67052390000026,334.67052390000026,334.67052390000026,334.67052390000026,334.67052390000026,334.67052390000026,num_1,0.7926704000019527,335.4878110999998,335.4878110999998,None,,8,001,2025-12-17_17h32.41.937,2025C_exp1_detect,2022.2.4,59.835273492036556,
12.1,315,0,1,-1,1,0,194,194,333,335.4878110999998,335.4878110999998,335.9884075000009,336.0552108000011,336.1055352000003,336.1055352000003,336.1055352000003,336.1055352000003,336.1552976999992,336.1552976999992,336.1552976999992,336.1552976999992,336.1552976999992,336.1552976999992,336.1552976999992,336.1552976999992,336.1552976999992,336.1552976999992,num_3,0.8113986999996996,336.9895446999981,336.9895446999981,None,,8,001,2025-12-17_17h32.41.937,2025C_exp1_detect,2022.2.4,59.835273492036556,
39.2,45,0,0,1,1,0,195,195,367,336.9895446999981,336.9895446999981,337.48965110000063,337.55650559999776,337.60698219999904,337.60698219999904,337.60698219999904,337.60698219999904,337.6568248000003,337.6568248000003,337.6568248000003,337.6568248000003,337.6568248000003,337.6568248000003,337.6568248000003,337.6568248000003,337.6568248000003,337.6568248000003,num_3,0.8459843000018736,338.52456679999887,338.52456679999887,None,,8,001,2025-12-17_17h32.41.937,2025C_exp1_detect,2022.2.4,59.835273492036556,
