contrast,ori,lefttarget,righttarget,postcue,precue,trials.thisRepN,trials.thisTrialN,trials.thisN,trials.thisIndex,fix1.started,fix2.started,precue_2.started,precue_2.stopped,left_grating.started,right_grating.started,noise_left.started,noise_right.started,fix1.stopped,fix2.stopped,left_grating.stopped,right_grating.stopped,noise_left.stopped,noise_right.stopped,key_resp.started,postcue_2.started,fix1_2.started,fix2_2.started,key_resp.keys,key_resp.rt,key_resp_2.started,break_text_2.started,key_resp_2.keys,key_resp_2.rt,participant,session,date,expName,psychopyVersion,frameRate,
15.7,315,1,0,1,1,0,0,0,388,12.993267700003344,12.993267700003344,13.462637900011032,13.529479100005119,13.593278000000282,13.593278000000282,13.593278000000282,13.593278000000282,13.628986100011389,13.628986100011389,13.628986100011389,13.628986100011389,13.628986100011389,13.628986100011389,13.645855599999777,13.645855599999777,13.645855599999777,13.645855599999777,num_1,20.80535909999162,34.48322240001289,34.48322240001289,None,,9,001,2025-12-18_13h16.53.277,2025C_exp1_detect,2022.2.4,59.94384460968986,
12.1,45,0,0,1,0,0,1,1,72,34.48322240001289,34.48322240001289,34.98375080000551,35.05049660000077,35.10078659999999,35.10078659999999,35.10078659999999,35.10078659999999,35.150652700001956,35.150652700001956,35.150652700001956,35.150652700001956,35.150652700001956,35.150652700001956,35.150652700001956,35.150652700001956,35.150652700001956,35.150652700001956,num_3,2.467671499995049,37.63638410001295,37.63638410001295,None,,9,001,2025-12-18_13h16.53.277,2025C_exp1_detect,2022.2.4,59.94384460968986,
12.1,315,1,1,-1,0,0,2,2,63,37.63638410001295,37.63638410001295,38.136899200006155,38.204122200011625,38.25391180001316,38.25391180001316,38.25391180001316,38.25391180001316,38.30378850000852,38.30378850000852,38.30378850000852,38.30378850000852,38.30378850000852,38.30378850000852,38.30378850000852,38.30378850000852,38.30378850000852,38.30378850000852,num_3,1.9546262999792816,40.289079000009224,40.289079000009224,None,,9,001,2025-12-18_13h16.53.277,2025C_exp1_detect,2022.2.4,59.94384460968986,
29.4,315,1,1,-1,1,0,3,3,356,40.289079000009224,40.289079000009224,40.789626000012504,40.85623610000766,40.90652370000316,40.90652370000316,40.90652370000316,40.90652370000316,40.956546100002015,40.956546100002015,40.956546100002015,40.956546100002015,40.956546100002015,40.956546100002015,40.956546100002015,40.956546100002015,40.956546100002015,40.956546100002015,num_3,1.6701753999805078,42.65807770000538,42.65807770000538,None,,9,001,2025-12-18_13h16.53.277,2025C_exp1_detect,2022.2.4,59.94384460968986,
22.7,315,1,0,-1,0,0,4,4,30,42.65807770000538,42.65807770000538,43.15848399999959,43.225291500013554,43.27577770000789,43.27577770000789,43.27577770000789,43.27577770000789,43.32538630001363,43.32538630001363,43.32538630001363,43.32538630001363,43.32538630001363,43.32538630001363,43.32538630001363,43.32538630001363,43.32538630001363,43.32538630001363,num_1,1.1973685999837471,44.54334870001185,44.54334870001185,None,,9,001,2025-12-18_13h16.53.277,2025C_exp1_detect,2022.2.4,59.94384460968986,
15.7,315,1,1,-1,0,0,5,5,64,44.54334870001185,44.54334870001185,45.04373499999929,45.11046220001299,45.16110770001251,45.16110770001251,45.16110770001251,45.16110770001251,45.21074220001174,45.21074220001174,45.21074220001174,45.21074220001174,45.21074220001174,45.21074220001174,45.21074220001174,45.21074220001174,45.21074220001174,45.21074220001174,num_1,1.6716928999812808,46.91226789999928,46.91226789999928,None,,9,001,2025-12-18_13h16.53.277,2025C_exp1_detect,2022.2.4,59.94384460968986,
29.4,315,0,1,-1,1,0,6,6,338,46.91226789999928,46.91226789999928,47.41278950001288,47.479621800011955,47.5298499000055,47.5298499000055,47.5298499000055,47.5298499000055,47.57988250000926,47.57988250000926,47.57988250000926,47.57988250000926,47.57988250000926,47.57988250000926,47.57988250000926,47.57988250000926,47.57988250000926,47.57988250000926,num_1,1.1821863999939524,48.780807700008154,48.780807700008154,None,,9,001,2025-12-18_13h16.53.277,2025C_exp1_detect,2022.2.4,59.94384460968986,
22.7,315,1,0,1,1,0,7,7,390,48.780807700008154,48.780807700008154,49.28133570001228,49.34802870001295,49.39860410000256,49.39860410000256,49.39860410000256,49.39860410000256,49.44821630000661,49.44821630000661,49.44821630000661,49.44821630000661,49.44821630000661,49.44821630000661,49.44821630000661,49.44821630000661,49.44821630000661,49.44821630000661,num_3,2.1222341999819037,51.60028440000315,51.60028440000315,None,,9,001,2025-12-18_13h16.53.277,2025C_exp1_detect,2022.2.4,59.94384460968986,
39.2,315,0,1,1,1,0,8,8,412,51.60028440000315,51.60028440000315,52.10083830000076,52.16771360000712,52.217977800013614,52.217977800013614,52.217977800013614,52.217977800013614,52.26797140001145,52.26797140001145,52.26797140001145,52.26797140001145,52.26797140001145,52.26797140001145,52.26797140001145,52.26797140001145,52.26797140001145,52.26797140001145,num_1,16.791502899985062,69.08461380000517,69.08461380000517,None,,9,001,2025-12-18_13h16.53.277,2025C_exp1_detect,2022.2.4,59.94384460968986,
12.1,315,1,1,1,0,0,9,9,135,69.08461380000517,69.08461380000517,69.58523400001286,69.651889700006,69.70220880000852,69.70220880000852,69.70220880000852,69.70220880000852,69.75204490000033,69.75204490000033,69.75204490000033,69.75204490000033,69.75204490000033,69.75204490000033,69.75204490000033,69.75204490000033,69.75204490000033,69.75204490000033,num_3,1.8820278999919537,71.6537432000041,71.6537432000041,None,,9,001,2025-12-18_13h16.53.277,2025C_exp1_detect,2022.2.4,59.94384460968986,
15.7,45,0,0,-1,-1,0,10,10,145,71.6537432000041,71.6537432000041,72.154154200005,72.22088500000245,72.27118900000642,72.27118900000642,72.27118900000642,72.27118900000642,72.32110970000213,72.32110970000213,72.32110970000213,72.32110970000213,72.32110970000213,72.32110970000213,72.32110970000213,72.32110970000213,72.32110970000213,72.32110970000213,num_3,1.1055281999870203,73.45552230000612,73.45552230000612,None,,9,001,2025-12-18_13h16.53.277,2025C_exp1_detect,2022.2.4,59.94384460968986,
12.1,45,0,0,1,1,0,11,11,360,73.45552230000612,73.45552230000612,73.95631520000461,74.0229718000046,74.0731378000055,74.0731378000055,74.0731378000055,74.0731378000055,74.12307410000358,74.12307410000358,74.12307410000358,74.12307410000358,74.12307410000358,74.12307410000358,74.12307410000358,74.12307410000358,74.12307410000358,74.12307410000358,num_3,1.080001699985587,75.22396450000815,75.22396450000815,None,,9,001,2025-12-18_13h16.53.277,2025C_exp1_detect,2022.2.4,59.94384460968986,
12.1,315,0,0,-1,0,0,12,12,9,75.22396450000815,75.22396450000815,75.7247073000035,75.79133120000188,75.84165930000017,75.84165930000017,75.84165930000017,75.84165930000017,75.89157900000282,75.89157900000282,75.89157900000282,75.89157900000282,75.89157900000282,75.89157900000282,75.89157900000282,75.89157900000282,75.89157900000282,75.89157900000282,num_3,1.6225280999933602,77.54287610000756,77.54287610000756,None,,9,001,2025-12-18_13h16.53.277,2025C_exp1_detect,2022.2.4,59.94384460968986,
25.5,315,1,0,1,-1,0,13,13,247,77.54287610000756,77.54287610000756,78.04380310000852,78.11051060000318,78.1607437000057,78.1607437000057,78.1607437000057,78.1607437000057,78.21054949999962,78.21054949999962,78.21054949999962,78.21054949999962,78.21054949999962,78.21054949999962,78.21054949999962,78.21054949999962,78.21054949999962,78.21054949999962,num_1,0.9514674999809358,79.1947618000122,79.1947618000122,None,,9,001,2025-12-18_13h16.53.277,2025C_exp1_detect,2022.2.4,59.94384460968986,
39.2,45,0,0,-1,0,0,14,14,7,79.1947618000122,79.1947618000122,79.69560600000841,79.76219140000467,79.81261330000416,79.81261330000416,79.81261330000416,79.81261330000416,79.86233270000957,79.86233270000957,79.86233270000957,79.86233270000957,79.86233270000957,79.86233270000957,79.86233270000957,79.86233270000957,79.86233270000957,79.86233270000957,num_1,0.9485273999889614,80.82984060001036,80.82984060001036,None,,9,001,2025-12-18_13h16.53.277,2025C_exp1_detect,2022.2.4,59.94384460968986,
35.3,315,0,1,-1,1,0,15,15,339,80.82984060001036,80.82984060001036,81.33027690000017,81.39693370000168,81.44730970000091,81.44730970000091,81.44730970000091,81.44730970000091,81.49720270000398,81.49720270000398,81.49720270000398,81.49720270000398,81.49720270000398,81.49720270000398,81.49720270000398,81.49720270000398,81.49720270000398,81.49720270000398,num_1,0.8499649999866961,82.36448620000738,82.36448620000738,None,,9,001,2025-12-18_13h16.53.277,2025C_exp1_detect,2022.2.4,59.94384460968986,
29.4,45,0,0,1,-1,0,16,16,221,82.36448620000738,82.36448620000738,82.8650481000077,82.9318762000039,82.9821854000038,82.9821854000038,82.9821854000038,82.9821854000038,83.03205030001118,83.03205030001118,83.03205030001118,83.03205030001118,83.03205030001118,83.03205030001118,83.03205030001118,83.03205030001118,83.03205030001118,83.03205030001118,num_3,0.9150547999888659,83.96603640000103,83.96603640000103,None,,9,001,2025-12-18_13h16.53.277,2025C_exp1_detect,2022.2.4,59.94384460968986,
19.6,45,1,0,-1,-1,0,17,17,164,83.96603640000103,83.96603640000103,84.46676540000772,84.5332572000043,84.58369330001005,84.58369330001005,84.58369330001005,84.58369330001005,84.63351910001074,84.63351910001074,84.63351910001074,84.63351910001074,84.63351910001074,84.63351910001074,84.63351910001074,84.63351910001074,84.63351910001074,84.63351910001074,num_1,0.7689906999876257,85.43427270000393,85.43427270000393,None,,9,001,2025-12-18_13h16.53.277,2025C_exp1_detect,2022.2.4,59.94384460968986,
25.5,45,1,1,-1,1,0,18,18,346,85.43427270000393,85.43427270000393,85.93505630000436,86.00165770000604,86.0518613000022,86.0518613000022,86.0518613000022,86.0518613000022,86.10180319999927,86.10180319999927,86.10180319999927,86.10180319999927,86.10180319999927,86.10180319999927,86.10180319999927,86.10180319999927,86.10180319999927,86.10180319999927,num_1,0.86894209998718,87.00241660000756,87.00241660000756,None,,9,001,2025-12-18_13h16.53.277,2025C_exp1_detect,2022.2.4,59.94384460968986,
12.1,45,0,0,-1,1,0,19,19,288,87.00241660000756,87.00241660000756,87.50322160001087,87.56988280000223,87.62020860001212,87.62020860001212,87.62020860001212,87.62020860001212,87.66995190001035,87.66995190001035,87.66995190001035,87.66995190001035,87.66995190001035,87.66995190001035,87.66995190001035,87.66995190001035,87.66995190001035,87.66995190001035,num_1,0.7800446999899577,88.47069570000167,88.47069570000167,None,,9,001,2025-12-18_13h16.53.277,2025C_exp1_detect,2022.2.4,59.94384460968986,
35.3,45,0,1,1,-1,0,20,20,258,88.47069570000167,88.47069570000167,88.97132080000301,89.03769940001075,89.08835100001306,89.08835100001306,89.08835100001306,89.08835100001306,89.13815050000267,89.13815050000267,89.13815050000267,89.13815050000267,89.13815050000267,89.13815050000267,89.13815050000267,89.13815050000267,89.13815050000267,89.13815050000267,num_3,0.8559649999806425,90.0220999000012,90.0220999000012,None,,9,001,2025-12-18_13h16.53.277,2025C_exp1_detect,2022.2.4,59.94384460968986,
42.7,315,1,1,1,1,0,21,21,431,90.0220999000012,90.0220999000012,90.52277900000627,90.58953880000627,90.63974790000066,90.63974790000066,90.63974790000066,90.63974790000066,90.68953350000083,90.68953350000083,90.68953350000083,90.68953350000083,90.68953350000083,90.68953350000083,90.68953350000083,90.68953350000083,90.68953350000083,90.68953350000083,num_1,1.0330531999934465,91.74050710001029,91.74050710001029,None,,9,001,2025-12-18_13h16.53.277,2025C_exp1_detect,2022.2.4,59.94384460968986,
42.7,45,0,0,-1,-1,0,22,22,152,91.74050710001029,91.74050710001029,92.2412209000031,92.30791220000538,92.35819199999969,92.35819199999969,92.35819199999969,92.35819199999969,92.40811640000902,92.40811640000902,92.40811640000902,92.40811640000902,92.40811640000902,92.40811640000902,92.40811640000902,92.40811640000902,92.40811640000902,92.40811640000902,num_1,0.7151520999905188,93.14182370000344,93.14182370000344,None,,9,001,2025-12-18_13h16.53.277,2025C_exp1_detect,2022.2.4,59.94384460968986,
42.7,315,0,1,-1,-1,0,23,23,197,93.14182370000344,93.14182370000344,93.64255330000015,93.70928090000234,93.7597087000031,93.7597087000031,93.7597087000031,93.7597087000031,93.80954300001031,93.80954300001031,93.80954300001031,93.80954300001031,93.80954300001031,93.80954300001031,93.80954300001031,93.80954300001031,93.80954300001031,93.80954300001031,num_1,0.7689469999895664,94.61002050001116,94.61002050001116,None,,9,001,2025-12-18_13h16.53.277,2025C_exp1_detect,2022.2.4,59.94384460968986,
42.7,45,0,0,1,1,0,24,24,368,94.61002050001116,94.61002050001116,95.1105236000003,95.1774468000076,95.22774810000556,95.22774810000556,95.22774810000556,95.22774810000556,95.27733670000453,95.27733670000453,95.27733670000453,95.27733670000453,95.27733670000453,95.27733670000453,95.27733670000453,95.27733670000453,95.27733670000453,95.27733670000453,num_3,0.764893999992637,96.06140489999962,96.06140489999962,None,,9,001,2025-12-18_13h16.53.277,2025C_exp1_detect,2022.2.4,59.94384460968986,
25.5,45,0,0,-1,1,0,25,25,292,96.06140489999962,96.06140489999962,96.56208650000917,96.62890080000216,96.67919370000891,96.67919370000891,96.67919370000891,96.67919370000891,96.72908870001265,96.72908870001265,96.72908870001265,96.72908870001265,96.72908870001265,96.72908870001265,96.72908870001265,96.72908870001265,96.72908870001265,96.72908870001265,num_1,0.7369865999935428,97.49618490001012,97.49618490001012,None,,9,001,2025-12-18_13h16.53.277,2025C_exp1_detect,2022.2.4,59.94384460968986,
25.5,315,1,0,-1,0,0,26,26,31,97.49618490001012,97.49618490001012,97.9968579000124,98.06367110001156,98.1139877000096,98.1139877000096,98.1139877000096,98.1139877000096,98.16387380000378,98.16387380000378,98.16387380000378,98.16387380000378,98.16387380000378,98.16387380000378,98.16387380000378,98.16387380000378,98.16387380000378,98.16387380000378,num_1,0.8153445999778342,98.99780979999923,98.99780979999923,None,,9,001,2025-12-18_13h16.53.277,2025C_exp1_detect,2022.2.4,59.94384460968986,
25.5,45,0,1,1,1,0,27,27,400,98.99780979999923,98.99780979999923,99.49850460000744,99.56527760000608,99.6155790000048,99.6155790000048,99.6155790000048,99.6155790000048,99.6653542000131,99.6653542000131,99.6653542000131,99.6653542000131,99.6653542000131,99.6653542000131,99.6653542000131,99.6653542000131,99.6653542000131,99.6653542000131,num_3,0.6727976999827661,100.36586270001135,100.36586270001135,None,,9,001,2025-12-18_13h16.53.277,2025C_exp1_detect,2022.2.4,59.94384460968986,
25.5,45,1,0,-1,1,0,28,28,310,100.36586270001135,100.36586270001135,100.86651050001092,100.93313280001166,100.98351740000362,100.98351740000362,100.98351740000362,100.98351740000362,101.03338040001108,101.03338040001108,101.03338040001108,101.03338040001108,101.03338040001108,101.03338040001108,101.03338040001108,101.03338040001108,101.03338040001108,101.03338040001108,num_1,0.6646733999950811,101.71699900001113,101.71699900001113,None,,9,001,2025-12-18_13h16.53.277,2025C_exp1_detect,2022.2.4,59.94384460968986,
22.7,45,0,0,-1,0,0,29,29,3,101.71699900001113,101.71699900001113,102.21752410000772,102.28423540000222,102.33452190000389,102.33452190000389,102.33452190000389,102.33452190000389,102.3844633000117,102.3844633000117,102.3844633000117,102.3844633000117,102.3844633000117,102.3844633000117,102.3844633000117,102.3844633000117,102.3844633000117,102.3844633000117,num_1,0.6498688999854494,103.05168780000531,103.05168780000531,None,,9,001,2025-12-18_13h16.53.277,2025C_exp1_detect,2022.2.4,59.94384460968986,
22.7,45,1,0,-1,-1,0,30,30,165,103.05168780000531,103.05168780000531,103.55250360000355,103.6191128000064,103.66949179999938,103.66949179999938,103.66949179999938,103.66949179999938,103.71967630001018,103.71967630001018,103.71967630001018,103.71967630001018,103.71967630001018,103.71967630001018,103.71967630001018,103.71967630001018,103.71967630001018,103.71967630001018,num_1,0.7071067999786464,104.45313310000347,104.45313310000347,None,,9,001,2025-12-18_13h16.53.277,2025C_exp1_detect,2022.2.4,59.94384460968986,
39.2,315,0,1,-1,0,0,31,31,52,104.45313310000347,104.45313310000347,104.95390140000382,105.02062170000863,105.07083960001182,105.07083960001182,105.07083960001182,105.07083960001182,105.12080530000094,105.12080530000094,105.12080530000094,105.12080530000094,105.12080530000094,105.12080530000094,105.12080530000094,105.12080530000094,105.12080530000094,105.12080530000094,num_3,0.8579780999862123,106.00480040001275,106.00480040001275,None,,9,001,2025-12-18_13h16.53.277,2025C_exp1_detect,2022.2.4,59.94384460968986,
39.2,45,1,0,-1,-1,0,32,32,169,106.00480040001275,106.00480040001275,106.50518849999935,106.57181990001118,106.62215740000829,106.62215740000829,106.62215740000829,106.62215740000829,106.67233650000708,106.67233650000708,106.67233650000708,106.67233650000708,106.67233650000708,106.67233650000708,106.67233650000708,106.67233650000708,106.67233650000708,106.67233650000708,num_1,0.5855836999835446,107.28946260000521,107.28946260000521,None,,9,001,2025-12-18_13h16.53.277,2025C_exp1_detect,2022.2.4,59.94384460968986,
42.7,315,0,1,-1,0,0,33,33,53,107.28946260000521,107.28946260000521,107.78986280001118,107.85674740000104,107.90693210001336,107.90693210001336,107.90693210001336,107.90693210001336,107.95686170000408,107.95686170000408,107.95686170000408,107.95686170000408,107.95686170000408,107.95686170000408,107.95686170000408,107.95686170000408,107.95686170000408,107.95686170000408,num_3,0.7502535999956308,108.72433830000227,108.72433830000227,None,,9,001,2025-12-18_13h16.53.277,2025C_exp1_detect,2022.2.4,59.94384460968986,
39.2,315,1,1,-1,-1,0,34,34,214,108.72433830000227,108.72433830000227,109.22499780000362,109.29166430000623,109.34199690000969,109.34199690000969,109.34199690000969,109.34199690000969,109.3915444000013,109.3915444000013,109.3915444000013,109.3915444000013,109.3915444000013,109.3915444000013,109.3915444000013,109.3915444000013,109.3915444000013,109.3915444000013,num_1,0.675586099998327,110.09207380001317,110.09207380001317,None,,9,001,2025-12-18_13h16.53.277,2025C_exp1_detect,2022.2.4,59.94384460968986,
39.2,315,0,1,1,-1,0,35,35,268,110.09207380001317,110.09207380001317,110.59286610000709,110.6596630000131,110.70986900001299,110.70986900001299,110.70986900001299,110.70986900001299,110.75971470000513,110.75971470000513,110.75971470000513,110.75971470000513,110.75971470000513,110.75971470000513,110.75971470000513,110.75971470000513,110.75971470000513,110.75971470000513,num_3,1.3383896999876015,112.12751710000157,112.12751710000157,None,,9,001,2025-12-18_13h16.53.277,2025C_exp1_detect,2022.2.4,59.94384460968986,
25.5,315,1,1,1,0,0,36,36,139,112.12751710000157,112.12751710000157,112.62822380001307,112.6949578000058,112.74512440001126,112.74512440001126,112.74512440001126,112.74512440001126,112.79515060000995,112.79515060000995,112.79515060000995,112.79515060000995,112.79515060000995,112.79515060000995,112.79515060000995,112.79515060000995,112.79515060000995,112.79515060000995,num_1,0.6876233999792021,113.51231540000299,113.51231540000299,None,,9,001,2025-12-18_13h16.53.277,2025C_exp1_detect,2022.2.4,59.94384460968986,
29.4,45,0,1,1,0,0,37,37,113,113.51231540000299,113.51231540000299,114.01330170000438,114.07966139999917,114.12997440001345,114.12997440001345,114.12997440001345,114.12997440001345,114.17985590000171,114.17985590000171,114.17985590000171,114.17985590000171,114.17985590000171,114.17985590000171,114.17985590000171,114.17985590000171,114.17985590000171,114.17985590000171,num_1,0.5831474999868078,114.78029200001038,114.78029200001038,None,,9,001,2025-12-18_13h16.53.277,2025C_exp1_detect,2022.2.4,59.94384460968986,
22.7,45,1,0,1,1,0,38,38,381,114.78029200001038,114.78029200001038,115.28073230000155,115.34759240000858,115.3979427000013,115.3979427000013,115.3979427000013,115.3979427000013,115.44777680000698,115.44777680000698,115.44777680000698,115.44777680000698,115.44777680000698,115.44777680000698,115.44777680000698,115.44777680000698,115.44777680000698,115.44777680000698,num_3,0.6743160999903921,116.14843380000093,116.14843380000093,None,,9,001,2025-12-18_13h16.53.277,2025C_exp1_detect,2022.2.4,59.94384460968986,
19.6,45,1,1,1,0,0,39,39,128,116.14843380000093,116.14843380000093,116.64889989999938,116.71546090001357,116.76578960000188,116.76578960000188,116.76578960000188,116.76578960000188,116.81580700000632,116.81580700000632,116.81580700000632,116.81580700000632,116.81580700000632,116.81580700000632,116.81580700000632,116.81580700000632,116.81580700000632,116.81580700000632,num_1,0.6115564999927301,117.44942400000582,117.44942400000582,None,,9,001,2025-12-18_13h16.53.277,2025C_exp1_detect,2022.2.4,59.94384460968986,
29.4,45,1,1,-1,-1,0,40,40,203,117.44942400000582,117.44942400000582,117.95011360000353,118.01690520001284,118.06728110001131,118.06728110001131,118.06728110001131,118.06728110001131,118.11684510001214,118.11684510001214,118.11684510001214,118.11684510001214,118.11684510001214,118.11684510001214,118.11684510001214,118.11684510001214,118.11684510001214,118.11684510001214,num_3,1.1336490999819944,119.26822010001342,119.26822010001342,None,,9,001,2025-12-18_13h16.53.277,2025C_exp1_detect,2022.2.4,59.94384460968986,
19.6,45,1,1,1,1,0,41,41,416,119.26822010001342,119.26822010001342,119.7686856000073,119.83544439999969,119.88575510001101,119.88575510001101,119.88575510001101,119.88575510001101,119.93564180000976,119.93564180000976,119.93564180000976,119.93564180000976,119.93564180000976,119.93564180000976,119.93564180000976,119.93564180000976,119.93564180000976,119.93564180000976,num_1,1.554521099998965,121.52021970000351,121.52021970000351,None,,9,001,2025-12-18_13h16.53.277,2025C_exp1_detect,2022.2.4,59.94384460968986,
25.5,45,0,0,-1,0,0,42,42,4,121.52021970000351,121.52021970000351,122.02098820000538,122.08777530000953,122.13809370000672,122.13809370000672,122.13809370000672,122.13809370000672,122.18810480000684,122.18810480000684,122.18810480000684,122.18810480000684,122.18810480000684,122.18810480000684,122.18810480000684,122.18810480000684,122.18810480000684,122.18810480000684,num_3,0.806003999983659,123.02170240000123,123.02170240000123,None,,9,001,2025-12-18_13h16.53.277,2025C_exp1_detect,2022.2.4,59.94384460968986,
22.7,315,0,1,-1,-1,0,43,43,192,123.02170240000123,123.02170240000123,123.52247600001283,123.58905249999953,123.63921269999992,123.63921269999992,123.63921269999992,123.63921269999992,123.68925200001104,123.68925200001104,123.68925200001104,123.68925200001104,123.68925200001104,123.68925200001104,123.68925200001104,123.68925200001104,123.68925200001104,123.68925200001104,num_3,0.9054871999978786,124.62335360000725,124.62335360000725,None,,9,001,2025-12-18_13h16.53.277,2025C_exp1_detect,2022.2.4,59.94384460968986,
12.1,315,1,0,-1,-1,0,44,44,171,124.62335360000725,124.62335360000725,125.12402990000555,125.19077370000014,125.24108060001163,125.24108060001163,125.24108060001163,125.24108060001163,125.29078170000867,125.29078170000867,125.29078170000867,125.29078170000867,125.29078170000867,125.29078170000867,125.29078170000867,125.29078170000867,125.29078170000867,125.29078170000867,num_1,0.7272787999827415,126.04136260000814,126.04136260000814,None,,9,001,2025-12-18_13h16.53.277,2025C_exp1_detect,2022.2.4,59.94384460968986,
19.6,315,1,1,1,1,0,45,45,425,126.04136260000814,126.04136260000814,126.54211639999994,126.60885220000637,126.65912060000119,126.65912060000119,126.65912060000119,126.65912060000119,126.70902930000739,126.70902930000739,126.70902930000739,126.70902930000739,126.70902930000739,126.70902930000739,126.70902930000739,126.70902930000739,126.70902930000739,126.70902930000739,num_3,0.7579952999803936,127.49276450001344,127.49276450001344,None,,9,001,2025-12-18_13h16.53.277,2025C_exp1_detect,2022.2.4,59.94384460968986,
25.5,315,1,0,1,0,0,46,46,103,127.49276450001344,127.49276450001344,127.99345300000277,128.06017410001368,128.1105765000102,128.1105765000102,128.1105765000102,128.1105765000102,128.16046640000422,128.16046640000422,128.16046640000422,128.16046640000422,128.16046640000422,128.16046640000422,128.16046640000422,128.16046640000422,128.16046640000422,128.16046640000422,num_3,0.9617107999947621,129.1444928000128,129.1444928000128,None,,9,001,2025-12-18_13h16.53.277,2025C_exp1_detect,2022.2.4,59.94384460968986,
12.1,315,1,1,1,-1,0,47,47,279,129.1444928000128,129.1444928000128,129.64518430001044,129.7118826000078,129.76371500000823,129.76371500000823,129.76371500000823,129.76371500000823,129.81213050000952,129.81213050000952,129.81213050000952,129.81213050000952,129.81213050000952,129.81213050000952,129.81213050000952,129.81213050000952,129.81213050000952,129.81213050000952,num_1,0.8867007999797352,130.72939300000144,130.72939300000144,None,,9,001,2025-12-18_13h16.53.277,2025C_exp1_detect,2022.2.4,59.94384460968986,
29.4,315,1,1,-1,0,0,48,48,68,130.72939300000144,130.72939300000144,131.23005810000177,131.29684090000228,131.3472102000087,131.3472102000087,131.3472102000087,131.3472102000087,131.39685080001072,131.39685080001072,131.39685080001072,131.39685080001072,131.39685080001072,131.39685080001072,131.39685080001072,131.39685080001072,131.39685080001072,131.39685080001072,num_3,0.8532821999979205,132.2808600000135,132.2808600000135,None,,9,001,2025-12-18_13h16.53.277,2025C_exp1_detect,2022.2.4,59.94384460968986,
12.1,45,1,0,1,0,0,49,49,90,132.2808600000135,132.2808600000135,132.78136520000407,132.84811780000746,132.8984671000071,132.8984671000071,132.8984671000071,132.8984671000071,132.94824230000086,132.94824230000086,132.94824230000086,132.94824230000086,132.94824230000086,132.94824230000086,132.94824230000086,132.94824230000086,132.94824230000086,132.94824230000086,num_1,0.9667886999959592,133.93255180001142,133.93255180001142,None,,9,001,2025-12-18_13h16.53.277,2025C_exp1_detect,2022.2.4,59.94384460968986,
19.6,315,1,0,-1,1,0,50,50,317,133.93255180001142,133.93255180001142,134.4333336000127,134.50007280000136,134.55038230000355,134.55038230000355,134.55038230000355,134.55038230000355,134.6002293000056,134.6002293000056,134.6002293000056,134.6002293000056,134.6002293000056,134.6002293000056,134.6002293000056,134.6002293000056,134.6002293000056,134.6002293000056,num_1,0.8900121999904513,135.51789110001118,135.51789110001118,None,,9,001,2025-12-18_13h16.53.277,2025C_exp1_detect,2022.2.4,59.94384460968986,
25.5,315,0,1,1,-1,0,51,51,265,135.51789110001118,135.51789110001118,136.018255700008,136.0847722000035,136.1352661000128,136.1352661000128,136.1352661000128,136.1352661000128,136.18500440000207,136.18500440000207,136.18500440000207,136.18500440000207,136.18500440000207,136.18500440000207,136.18500440000207,136.18500440000207,136.18500440000207,136.18500440000207,num_1,0.761836299992865,136.96921940000902,136.96921940000902,None,,9,001,2025-12-18_13h16.53.277,2025C_exp1_detect,2022.2.4,59.94384460968986,
12.1,45,0,1,-1,1,0,52,52,324,136.96921940000902,136.96921940000902,137.46977990001324,137.53647090001323,137.58671870001126,137.58671870001126,137.58671870001126,137.58671870001126,137.6366146000073,137.6366146000073,137.6366146000073,137.6366146000073,137.6366146000073,137.6366146000073,137.6366146000073,137.6366146000073,137.6366146000073,137.6366146000073,num_3,0.8545191999874078,138.52046030000201,138.52046030000201,None,,9,001,2025-12-18_13h16.53.277,2025C_exp1_detect,2022.2.4,59.94384460968986,
39.2,315,1,0,-1,1,0,53,53,322,138.52046030000201,138.52046030000201,139.02135249999992,139.0881522000127,139.13837340001191,139.13837340001191,139.13837340001191,139.13837340001191,139.18826300000364,139.18826300000364,139.18826300000364,139.18826300000364,139.18826300000364,139.18826300000364,139.18826300000364,139.18826300000364,139.18826300000364,139.18826300000364,num_1,0.6785539999837056,139.88851129999966,139.88851129999966,None,,9,001,2025-12-18_13h16.53.277,2025C_exp1_detect,2022.2.4,59.94384460968986,
15.7,315,1,1,1,-1,0,54,54,280,139.88851129999966,139.88851129999966,140.38936000000103,140.45608060000814,140.5064701000083,140.5064701000083,140.5064701000083,140.5064701000083,140.55630360000941,140.55630360000941,140.55630360000941,140.55630360000941,140.55630360000941,140.55630360000941,140.55630360000941,140.55630360000941,140.55630360000941,140.55630360000941,num_3,1.0860917999962112,141.67369380001037,141.67369380001037,None,,9,001,2025-12-18_13h16.53.277,2025C_exp1_detect,2022.2.4,59.94384460968986,
22.7,315,0,1,-1,1,0,55,55,336,141.67369380001037,141.67369380001037,142.17439020000165,142.24115010000241,142.29127440000593,142.29127440000593,142.29127440000593,142.29127440000593,142.3411683000013,142.3411683000013,142.3411683000013,142.3411683000013,142.3411683000013,142.3411683000013,142.3411683000013,142.3411683000013,142.3411683000013,142.3411683000013,num_3,1.1017493999825092,143.47574150000582,143.47574150000582,None,,9,001,2025-12-18_13h16.53.277,2025C_exp1_detect,2022.2.4,59.94384460968986,
25.5,315,0,0,1,0,0,56,56,85,143.47574150000582,143.47574150000582,143.97612410000875,144.04316749999998,144.09339350000664,144.09339350000664,144.09339350000664,144.09339350000664,144.14325400000962,144.14325400000962,144.14325400000962,144.14325400000962,144.14325400000962,144.14325400000962,144.14325400000962,144.14325400000962,144.14325400000962,144.14325400000962,num_1,1.1714459999930114,145.34424630001013,145.34424630001013,None,,9,001,2025-12-18_13h16.53.277,2025C_exp1_detect,2022.2.4,59.94384460968986,
19.6,45,0,0,1,1,0,57,57,362,145.34424630001013,145.34424630001013,145.84480790000816,145.9113928000006,145.96174570001313,145.96174570001313,145.96174570001313,145.96174570001313,146.0116435000091,146.0116435000091,146.0116435000091,146.0116435000091,146.0116435000091,146.0116435000091,146.0116435000091,146.0116435000091,146.0116435000091,146.0116435000091,num_3,0.7186637999839149,146.7622931000078,146.7622931000078,None,,9,001,2025-12-18_13h16.53.277,2025C_exp1_detect,2022.2.4,59.94384460968986,
25.5,315,0,1,1,0,0,58,58,121,146.7622931000078,146.7622931000078,147.2625745000114,147.32947640000202,147.37986530001217,147.37986530001217,147.37986530001217,147.37986530001217,147.4297288000089,147.4297288000089,147.4297288000089,147.4297288000089,147.4297288000089,147.4297288000089,147.4297288000089,147.4297288000089,147.4297288000089,147.4297288000089,num_1,0.6610797999892384,148.1133289999998,148.1133289999998,None,,9,001,2025-12-18_13h16.53.277,2025C_exp1_detect,2022.2.4,59.94384460968986,
42.7,315,0,1,-1,1,0,59,59,341,148.1133289999998,148.1133289999998,148.61425130000862,148.68088090000674,148.73130720001063,148.73130720001063,148.73130720001063,148.73130720001063,148.7811589000048,148.7811589000048,148.7811589000048,148.7811589000048,148.7811589000048,148.7811589000048,148.7811589000048,148.7811589000048,148.7811589000048,148.7811589000048,num_1,1.862176399983582,150.66595350000716,150.66595350000716,None,,9,001,2025-12-18_13h16.53.277,2025C_exp1_detect,2022.2.4,59.94384460968986,
35.3,315,0,0,1,-1,0,60,60,231,150.66595350000716,150.66595350000716,151.16676160000497,151.23349020000023,151.28373140000622,151.28373140000622,151.28373140000622,151.28373140000622,151.33355540000775,151.33355540000775,151.33355540000775,151.33355540000775,151.33355540000775,151.33355540000775,151.33355540000775,151.33355540000775,151.33355540000775,151.33355540000775,num_3,0.8691342999809422,152.23423820000608,152.23423820000608,None,,9,001,2025-12-18_13h16.53.277,2025C_exp1_detect,2022.2.4,59.94384460968986,
15.7,315,1,0,-1,1,0,61,61,316,152.23423820000608,152.23423820000608,152.73494950000895,152.80166570001165,152.8520212000003,152.8520212000003,152.8520212000003,152.8520212000003,152.9018888000137,152.9018888000137,152.9018888000137,152.9018888000137,152.9018888000137,152.9018888000137,152.9018888000137,152.9018888000137,152.9018888000137,152.9018888000137,num_1,0.7891288999817334,153.71908590001112,153.71908590001112,None,,9,001,2025-12-18_13h16.53.277,2025C_exp1_detect,2022.2.4,59.94384460968986,
19.6,315,0,0,-1,-1,0,62,62,155,153.71908590001112,153.71908590001112,154.21971470001154,154.28649150001002,154.33695470000384,154.33695470000384,154.33695470000384,154.33695470000384,154.38668610001332,154.38668610001332,154.38668610001332,154.38668610001332,154.38668610001332,154.38668610001332,154.38668610001332,154.38668610001332,154.38668610001332,154.38668610001332,num_3,1.0394319999904837,155.45407890000206,155.45407890000206,None,,9,001,2025-12-18_13h16.53.277,2025C_exp1_detect,2022.2.4,59.94384460968986,
29.4,315,0,0,1,0,0,63,63,86,155.45407890000206,155.45407890000206,155.95497869999963,156.02158580000105,156.07175770000322,156.07175770000322,156.07175770000322,156.07175770000322,156.1216007000039,156.1216007000039,156.1216007000039,156.1216007000039,156.1216007000039,156.1216007000039,156.1216007000039,156.1216007000039,156.1216007000039,156.1216007000039,num_1,1.0650144999963231,157.20579670000006,157.20579670000006,None,,9,001,2025-12-18_13h16.53.277,2025C_exp1_detect,2022.2.4,59.94384460968986,
35.3,45,0,0,1,-1,0,64,64,222,157.20579670000006,157.20579670000006,157.70658820000244,157.773514600005,157.82375930000853,157.82375930000853,157.82375930000853,157.82375930000853,157.87362110000686,157.87362110000686,157.87362110000686,157.87362110000686,157.87362110000686,157.87362110000686,157.87362110000686,157.87362110000686,157.87362110000686,157.87362110000686,num_1,1.065192499983823,158.95754760000273,158.95754760000273,None,,9,001,2025-12-18_13h16.53.277,2025C_exp1_detect,2022.2.4,59.94384460968986,
12.1,45,1,0,-1,1,0,65,65,306,158.95754760000273,158.95754760000273,159.4584482000064,159.5252882000059,159.57557620000443,159.57557620000443,159.57557620000443,159.57557620000443,159.62533510000503,159.62533510000503,159.62533510000503,159.62533510000503,159.62533510000503,159.62533510000503,159.62533510000503,159.62533510000503,159.62533510000503,159.62533510000503,num_3,0.8492946999904234,160.4924902000057,160.4924902000057,None,,9,001,2025-12-18_13h16.53.277,2025C_exp1_detect,2022.2.4,59.94384460968986,
35.3,45,1,0,-1,-1,0,66,66,168,160.4924902000057,160.4924902000057,160.99339760000294,161.059817500005,161.1102688000101,161.1102688000101,161.1102688000101,161.1102688000101,161.16013800000655,161.16013800000655,161.16013800000655,161.16013800000655,161.16013800000655,161.16013800000655,161.16013800000655,161.16013800000655,161.16013800000655,161.16013800000655,num_1,0.6021005999791669,161.7936910000135,161.7936910000135,None,,9,001,2025-12-18_13h16.53.277,2025C_exp1_detect,2022.2.4,59.94384460968986,
35.3,315,1,1,-1,1,0,67,67,357,161.7936910000135,161.7936910000135,162.29420430000755,162.36090590000094,162.41121120000025,162.41121120000025,162.41121120000025,162.41121120000025,162.4610759000061,162.4610759000061,162.4610759000061,162.4610759000061,162.4610759000061,162.4610759000061,162.4610759000061,162.4610759000061,162.4610759000061,162.4610759000061,num_1,0.6768901999894297,163.16195490000246,163.16195490000246,None,,9,001,2025-12-18_13h16.53.277,2025C_exp1_detect,2022.2.4,59.94384460968986,
22.7,315,1,0,1,-1,0,68,68,246,163.16195490000246,163.16195490000246,163.66242940000666,163.72926990000997,163.77949340001214,163.77949340001214,163.77949340001214,163.77949340001214,163.82945410000684,163.82945410000684,163.82945410000684,163.82945410000684,163.82945410000684,163.82945410000684,163.82945410000684,163.82945410000684,163.82945410000684,163.82945410000684,num_3,0.7411130999971647,164.59659260000626,164.59659260000626,None,,9,001,2025-12-18_13h16.53.277,2025C_exp1_detect,2022.2.4,59.94384460968986,
35.3,315,1,1,1,-1,0,69,69,285,164.59659260000626,164.59659260000626,165.09717350000574,165.16402180001023,165.21448480000254,165.21448480000254,165.21448480000254,165.21448480000254,165.26414480000676,165.26414480000676,165.26414480000676,165.26414480000676,165.26414480000676,165.26414480000676,165.26414480000676,165.26414480000676,165.26414480000676,165.26414480000676,num_1,0.7378594999900088,166.03135250000923,166.03135250000923,None,,9,001,2025-12-18_13h16.53.277,2025C_exp1_detect,2022.2.4,59.94384460968986,
35.3,45,0,0,-1,-1,0,70,70,150,166.03135250000923,166.03135250000923,166.53201550000813,166.59904359999928,166.64925720001338,166.64925720001338,166.64925720001338,166.64925720001338,166.6991638000036,166.6991638000036,166.6991638000036,166.6991638000036,166.6991638000036,166.6991638000036,166.6991638000036,166.6991638000036,166.6991638000036,166.6991638000036,num_3,0.7836136999976588,167.49956660000316,167.49956660000316,None,,9,001,2025-12-18_13h16.53.277,2025C_exp1_detect,2022.2.4,59.94384460968986,
15.7,45,0,0,-1,1,0,71,71,289,167.49956660000316,167.49956660000316,168.00020380000933,168.066779700006,168.1174544000096,168.1174544000096,168.1174544000096,168.1174544000096,168.16719960000773,168.16719960000773,168.16719960000773,168.16719960000773,168.16719960000773,168.16719960000773,168.16719960000773,168.16719960000773,168.16719960000773,168.16719960000773,num_3,0.9872579999791924,169.18443079999997,169.18443079999997,None,,9,001,2025-12-18_13h16.53.277,2025C_exp1_detect,2022.2.4,59.94384460968986,
29.4,315,0,1,-1,-1,0,72,72,194,169.18443079999997,169.18443079999997,169.68528190000507,169.75188640000124,169.80228680001164,169.80228680001164,169.80228680001164,169.80228680001164,169.8522198000137,169.8522198000137,169.8522198000137,169.8522198000137,169.8522198000137,169.8522198000137,169.8522198000137,169.8522198000137,169.8522198000137,169.8522198000137,num_3,0.8538185999932466,170.73603310000908,170.73603310000908,None,,9,001,2025-12-18_13h16.53.277,2025C_exp1_detect,2022.2.4,59.94384460968986,
42.7,315,0,0,1,0,0,73,73,89,170.73603310000908,170.73603310000908,171.23675840000215,171.30341140000382,171.35370650001278,171.35370650001278,171.35370650001278,171.35370650001278,171.4036913000018,171.4036913000018,171.4036913000018,171.4036913000018,171.4036913000018,171.4036913000018,171.4036913000018,171.4036913000018,171.4036913000018,171.4036913000018,num_1,1.0076843999850098,172.43797350001114,172.43797350001114,None,,9,001,2025-12-18_13h16.53.277,2025C_exp1_detect,2022.2.4,59.94384460968986,
42.7,45,1,0,-1,1,0,74,74,314,172.43797350001114,172.43797350001114,172.9385356999992,173.00525110001036,173.05556450001313,173.05556450001313,173.05556450001313,173.05556450001313,173.10541490001197,173.10541490001197,173.10541490001197,173.10541490001197,173.10541490001197,173.10541490001197,173.10541490001197,173.10541490001197,173.10541490001197,173.10541490001197,num_1,0.793381599985878,173.92264820000855,173.92264820000855,None,,9,001,2025-12-18_13h16.53.277,2025C_exp1_detect,2022.2.4,59.94384460968986,
12.1,45,1,1,1,-1,0,75,75,270,173.92264820000855,173.92264820000855,174.42324890001328,174.48992279999948,174.54035400001158,174.54035400001158,174.54035400001158,174.54035400001158,174.5900871000049,174.5900871000049,174.5900871000049,174.5900871000049,174.5900871000049,174.5900871000049,174.5900871000049,174.5900871000049,174.5900871000049,174.5900871000049,num_1,0.8439833999873372,175.45739870000398,175.45739870000398,None,,9,001,2025-12-18_13h16.53.277,2025C_exp1_detect,2022.2.4,59.94384460968986,
12.1,315,1,1,-1,1,0,76,76,351,175.45739870000398,175.45739870000398,175.9582395000034,176.02489700001024,176.07501930001308,176.07501930001308,176.07501930001308,176.07501930001308,176.12503650000144,176.12503650000144,176.12503650000144,176.12503650000144,176.12503650000144,176.12503650000144,176.12503650000144,176.12503650000144,176.12503650000144,176.12503650000144,num_3,0.7976862999785226,176.94235320000735,176.94235320000735,None,,9,001,2025-12-18_13h16.53.277,2025C_exp1_detect,2022.2.4,59.94384460968986,
42.7,315,0,1,1,0,0,77,77,125,176.94235320000735,176.94235320000735,177.44296510001004,177.5096932000015,177.5600109000079,177.5600109000079,177.5600109000079,177.5600109000079,177.6098564999993,177.6098564999993,177.6098564999993,177.6098564999993,177.6098564999993,177.6098564999993,177.6098564999993,177.6098564999993,177.6098564999993,177.6098564999993,num_1,0.9206641999917338,178.56074200000148,178.56074200000148,None,,9,001,2025-12-18_13h16.53.277,2025C_exp1_detect,2022.2.4,59.94384460968986,
12.1,315,1,0,1,1,0,78,78,387,178.56074200000148,178.56074200000148,179.0611738000007,179.12792420000187,179.17803950000962,179.17803950000962,179.17803950000962,179.17803950000962,179.22787800000515,179.22787800000515,179.22787800000515,179.22787800000515,179.22787800000515,179.22787800000515,179.22787800000515,179.22787800000515,179.22787800000515,179.22787800000515,num_3,0.7993331999896327,180.0452774000005,180.0452774000005,None,,9,001,2025-12-18_13h16.53.277,2025C_exp1_detect,2022.2.4,59.94384460968986,
25.5,45,1,1,1,1,0,79,79,418,180.0452774000005,180.0452774000005,180.54623240001092,180.61295940000855,180.6629404000123,180.6629404000123,180.6629404000123,180.6629404000123,180.7129655000026,180.7129655000026,180.7129655000026,180.7129655000026,180.7129655000026,180.7129655000026,180.7129655000026,180.7129655000026,180.7129655000026,180.7129655000026,num_1,0.6818990999890957,181.4137832000124,181.4137832000124,None,,9,001,2025-12-18_13h16.53.277,2025C_exp1_detect,2022.2.4,59.94384460968986,
39.2,315,1,1,-1,1,0,80,80,358,181.4137832000124,181.4137832000124,181.91431620001094,181.98095420000027,182.03125540001201,182.03125540001201,182.03125540001201,182.03125540001201,182.08100280001236,182.08100280001236,182.08100280001236,182.08100280001236,182.08100280001236,182.08100280001236,182.08100280001236,182.08100280001236,182.08100280001236,182.08100280001236,num_1,0.8017372999893269,182.91510030000063,182.91510030000063,None,,9,001,2025-12-18_13h16.53.277,2025C_exp1_detect,2022.2.4,59.94384460968986,
39.2,315,1,1,1,0,0,81,81,142,182.91510030000063,182.91510030000063,183.41561550000915,183.48230150000018,183.5326403000072,183.5326403000072,183.5326403000072,183.5326403000072,183.58243260000017,183.58243260000017,183.58243260000017,183.58243260000017,183.58243260000017,183.58243260000017,183.58243260000017,183.58243260000017,183.58243260000017,183.58243260000017,num_3,0.9159215999825392,184.5164131000056,184.5164131000056,None,,9,001,2025-12-18_13h16.53.277,2025C_exp1_detect,2022.2.4,59.94384460968986,
42.7,45,0,1,1,1,0,82,82,404,184.5164131000056,184.5164131000056,185.01721960000577,185.08386850000534,185.13421280001057,185.13421280001057,185.13421280001057,185.13421280001057,185.1840058000089,185.1840058000089,185.1840058000089,185.1840058000089,185.1840058000089,185.1840058000089,185.1840058000089,185.1840058000089,185.1840058000089,185.1840058000089,num_1,0.6426395999878878,185.85129080001207,185.85129080001207,None,,9,001,2025-12-18_13h16.53.277,2025C_exp1_detect,2022.2.4,59.94384460968986,
22.7,315,0,0,-1,1,0,83,83,300,185.85129080001207,185.85129080001207,186.3517406000028,186.41856440000993,186.46888800000306,186.46888800000306,186.46888800000306,186.46888800000306,186.51876160000393,186.51876160000393,186.51876160000393,186.51876160000393,186.51876160000393,186.51876160000393,186.51876160000393,186.51876160000393,186.51876160000393,186.51876160000393,num_1,1.116197999988799,187.65304480001214,187.65304480001214,None,,9,001,2025-12-18_13h16.53.277,2025C_exp1_detect,2022.2.4,59.94384460968986,
42.7,45,1,0,1,1,0,84,84,386,187.65304480001214,187.65304480001214,188.153584700005,188.22040150000248,188.27067969999916,188.27067969999916,188.27067969999916,188.27067969999916,188.32057590001205,188.32057590001205,188.32057590001205,188.32057590001205,188.32057590001205,188.32057590001205,188.32057590001205,188.32057590001205,188.32057590001205,188.32057590001205,num_1,1.1536965999839595,189.50505340000382,189.50505340000382,None,,9,001,2025-12-18_13h16.53.277,2025C_exp1_detect,2022.2.4,59.94384460968986,
29.4,315,0,1,1,1,0,85,85,410,189.50505340000382,189.50505340000382,190.005647900005,190.07223520000116,190.12237850000383,190.12237850000383,190.12237850000383,190.12237850000383,190.17228850000538,190.17228850000538,190.17228850000538,190.17228850000538,190.17228850000538,190.17228850000538,190.17228850000538,190.17228850000538,190.17228850000538,190.17228850000538,num_1,0.7506089999806136,190.9395816000033,190.9395816000033,None,,9,001,2025-12-18_13h16.53.277,2025C_exp1_detect,2022.2.4,59.94384460968986,
19.6,315,0,1,-1,1,0,86,86,335,190.9395816000033,190.9395816000033,191.44021520001115,191.50708910000685,191.5573657000059,191.5573657000059,191.5573657000059,191.5573657000059,191.6069334000058,191.6069334000058,191.6069334000058,191.6069334000058,191.6069334000058,191.6069334000058,191.6069334000058,191.6069334000058,191.6069334000058,191.6069334000058,num_3,0.8678328999812948,192.50769800000126,192.50769800000126,None,,9,001,2025-12-18_13h16.53.277,2025C_exp1_detect,2022.2.4,59.94384460968986,
22.7,45,0,1,-1,0,0,87,87,39,192.50769800000126,192.50769800000126,193.00839860000997,193.07491130000562,193.12522600000375,193.12522600000375,193.12522600000375,193.12522600000375,193.17508740001358,193.17508740001358,193.17508740001358,193.17508740001358,193.17508740001358,193.17508740001358,193.17508740001358,193.17508740001358,193.17508740001358,193.17508740001358,num_3,0.8194254999834811,194.02598200000648,194.02598200000648,None,,9,001,2025-12-18_13h16.53.277,2025C_exp1_detect,2022.2.4,59.94384460968986,
12.1,315,0,1,1,0,0,88,88,117,194.02598200000648,194.02598200000648,194.52656800000113,194.59341140001197,194.6438890999998,194.6438890999998,194.6438890999998,194.6438890999998,194.69363690000318,194.69363690000318,194.69363690000318,194.69363690000318,194.69363690000318,194.69363690000318,194.69363690000318,194.69363690000318,194.69363690000318,194.69363690000318,num_1,0.9171180999983335,195.6275144000101,195.6275144000101,None,,9,001,2025-12-18_13h16.53.277,2025C_exp1_detect,2022.2.4,59.94384460968986,
29.4,45,1,1,-1,0,0,89,89,59,195.6275144000101,195.6275144000101,196.1283043000003,196.19491190000554,196.24519500001043,196.24519500001043,196.24519500001043,196.24519500001043,196.29521510000632,196.29521510000632,196.29521510000632,196.29521510000632,196.29521510000632,196.29521510000632,196.29521510000632,196.29521510000632,196.29521510000632,196.29521510000632,num_3,0.8354192999831866,197.1460081000114,197.1460081000114,None,,9,001,2025-12-18_13h16.53.277,2025C_exp1_detect,2022.2.4,59.94384460968986,
15.7,45,0,1,1,0,0,90,90,109,197.1460081000114,197.1460081000114,197.6463531000045,197.71321380000154,197.7634437000088,197.7634437000088,197.7634437000088,197.7634437000088,197.81332210000255,197.81332210000255,197.81332210000255,197.81332210000255,197.81332210000255,197.81332210000255,197.81332210000255,197.81332210000255,197.81332210000255,197.81332210000255,num_1,0.66174259998661,198.49733850000484,198.49733850000484,None,,9,001,2025-12-18_13h16.53.277,2025C_exp1_detect,2022.2.4,59.94384460968986,
15.7,315,1,1,1,0,0,91,91,136,198.49733850000484,198.49733850000484,198.99762340000598,199.06453830000828,199.1145874000067,199.1145874000067,199.1145874000067,199.1145874000067,199.16476060000423,199.16476060000423,199.16476060000423,199.16476060000423,199.16476060000423,199.16476060000423,199.16476060000423,199.16476060000423,199.16476060000423,199.16476060000423,num_1,0.837657499985653,200.03205690000323,200.03205690000323,None,,9,001,2025-12-18_13h16.53.277,2025C_exp1_detect,2022.2.4,59.94384460968986,
15.7,315,0,1,1,0,0,92,92,118,200.03205690000323,200.03205690000323,200.53277980000712,200.5993742000137,200.64972800000396,200.64972800000396,200.64972800000396,200.64972800000396,200.69962150001084,200.69962150001084,200.69962150001084,200.69962150001084,200.69962150001084,200.69962150001084,200.69962150001084,200.69962150001084,200.69962150001084,200.69962150001084,num_3,0.9745473999937531,201.70027040000423,201.70027040000423,None,,9,001,2025-12-18_13h16.53.277,2025C_exp1_detect,2022.2.4,59.94384460968986,
29.4,315,1,1,1,-1,0,93,93,284,201.70027040000423,201.70027040000423,202.20095410000067,202.26778740000736,202.31808260000253,202.31808260000253,202.31808260000253,202.31808260000253,202.36798650000128,202.36798650000128,202.36798650000128,202.36798650000128,202.36798650000128,202.36798650000128,202.36798650000128,202.36798650000128,202.36798650000128,202.36798650000128,num_1,0.7712350999790942,203.16839780000737,203.16839780000737,None,,9,001,2025-12-18_13h16.53.277,2025C_exp1_detect,2022.2.4,59.94384460968986,
22.7,45,0,0,1,0,0,94,94,75,203.16839780000737,203.16839780000737,203.66915030000382,203.73587610000686,203.7863068000006,203.7863068000006,203.7863068000006,203.7863068000006,203.83604940000805,203.83604940000805,203.83604940000805,203.83604940000805,203.83604940000805,203.83604940000805,203.83604940000805,203.83604940000805,203.83604940000805,203.83604940000805,num_3,0.8469805999920936,204.70327460000408,204.70327460000408,None,,9,001,2025-12-18_13h16.53.277,2025C_exp1_detect,2022.2.4,59.94384460968986,
39.2,315,0,0,1,0,0,95,95,88,204.70327460000408,204.70327460000408,205.20401390000188,205.270755000005,205.32103040000948,205.32103040000948,205.32103040000948,205.32103040000948,205.37066310000955,205.37066310000955,205.37066310000955,205.37066310000955,205.37066310000955,205.37066310000955,205.37066310000955,205.37066310000955,205.37066310000955,205.37066310000955,num_1,0.8722804999852087,206.27148650000163,206.27148650000163,None,,9,001,2025-12-18_13h16.53.277,2025C_exp1_detect,2022.2.4,59.94384460968986,
15.7,315,0,1,-1,0,0,96,96,46,206.27148650000163,206.27148650000163,206.77214150001237,206.83896350000578,206.8892937000055,206.8892937000055,206.8892937000055,206.8892937000055,206.93916490000265,206.93916490000265,206.93916490000265,206.93916490000265,206.93916490000265,206.93916490000265,206.93916490000265,206.93916490000265,206.93916490000265,206.93916490000265,num_3,0.848458499982371,207.80677120000473,207.80677120000473,None,,9,001,2025-12-18_13h16.53.277,2025C_exp1_detect,2022.2.4,59.94384460968986,
42.7,45,0,0,-1,1,0,97,97,296,207.80677120000473,207.80677120000473,208.30737920000684,208.37400690000504,208.42396590000135,208.42396590000135,208.42396590000135,208.42396590000135,208.47366930000135,208.47366930000135,208.47366930000135,208.47366930000135,208.47366930000135,208.47366930000135,208.47366930000135,208.47366930000135,208.47366930000135,208.47366930000135,num_3,0.9441576999815879,209.441330200003,209.441330200003,None,,9,001,2025-12-18_13h16.53.277,2025C_exp1_detect,2022.2.4,59.94384460968986,
15.7,45,1,1,-1,1,0,98,98,343,209.441330200003,209.441330200003,209.94202470000891,210.00879430001078,210.05905530000746,210.05905530000746,210.05905530000746,210.05905530000746,210.10899520000385,210.10899520000385,210.10899520000385,210.10899520000385,210.10899520000385,210.10899520000385,210.10899520000385,210.10899520000385,210.10899520000385,210.10899520000385,num_1,0.8538903999869945,210.9929986000061,210.9929986000061,None,,9,001,2025-12-18_13h16.53.277,2025C_exp1_detect,2022.2.4,59.94384460968986,
19.6,315,1,1,-1,1,0,99,99,353,210.9929986000061,210.9929986000061,211.49351070000557,211.56012270000065,211.61067040001217,211.61067040001217,211.61067040001217,211.61067040001217,211.6605389000033,211.6605389000033,211.6605389000033,211.6605389000033,211.6605389000033,211.6605389000033,211.6605389000033,211.6605389000033,211.6605389000033,211.6605389000033,num_1,0.7102185999974608,212.39439230000426,212.39439230000426,None,,9,001,2025-12-18_13h16.53.277,2025C_exp1_detect,2022.2.4,59.94384460968986,
15.7,315,1,0,-1,-1,0,100,100,172,212.39439230000426,212.39439230000426,212.89506240001356,212.96178390001296,213.01193780000904,213.01193780000904,213.01193780000904,213.01193780000904,213.06193710000662,213.06193710000662,213.06193710000662,213.06193710000662,213.06193710000662,213.06193710000662,213.06193710000662,213.06193710000662,213.06193710000662,213.06193710000662,num_1,0.637132499992731,213.72922320000362,213.72922320000362,None,,9,001,2025-12-18_13h16.53.277,2025C_exp1_detect,2022.2.4,59.94384460968986,
12.1,45,1,0,1,-1,0,101,101,234,213.72922320000362,213.72922320000362,214.22960630001035,214.29647950000071,214.3467457000079,214.3467457000079,214.3467457000079,214.3467457000079,214.39665370000876,214.39665370000876,214.39665370000876,214.39665370000876,214.39665370000876,214.39665370000876,214.39665370000876,214.39665370000876,214.39665370000876,214.39665370000876,num_3,0.7652191999804927,215.1806532000046,215.1806532000046,None,,9,001,2025-12-18_13h16.53.277,2025C_exp1_detect,2022.2.4,59.94384460968986,
29.4,315,1,0,1,1,0,102,102,392,215.1806532000046,215.1806532000046,215.68117750000965,215.74764340001275,215.7980765000102,215.7980765000102,215.7980765000102,215.7980765000102,215.84803620001185,215.84803620001185,215.84803620001185,215.84803620001185,215.84803620001185,215.84803620001185,215.84803620001185,215.84803620001185,215.84803620001185,215.84803620001185,num_3,0.7779314999788767,216.64866540000367,216.64866540000367,None,,9,001,2025-12-18_13h16.53.277,2025C_exp1_detect,2022.2.4,59.94384460968986,
39.2,315,0,0,-1,-1,0,103,103,160,216.64866540000367,216.64866540000367,217.14923560000898,217.21602930000518,217.26631890000135,217.26631890000135,217.26631890000135,217.26631890000135,217.31594720001158,217.31594720001158,217.31594720001158,217.31594720001158,217.31594720001158,217.31594720001158,217.31594720001158,217.31594720001158,217.31594720001158,217.31594720001158,num_3,0.7272031999891624,218.0667325000104,218.0667325000104,None,,9,001,2025-12-18_13h16.53.277,2025C_exp1_detect,2022.2.4,59.94384460968986,
12.1,315,0,0,-1,-1,0,104,104,153,218.0667325000104,218.0667325000104,218.56714850000571,218.63408580000396,218.68439380000927,218.68439380000927,218.68439380000927,218.68439380000927,218.734274500006,218.734274500006,218.734274500006,218.734274500006,218.734274500006,218.734274500006,218.734274500006,218.734274500006,218.734274500006,218.734274500006,num_3,1.4038309999887133,220.16897640000388,220.16897640000388,None,,9,001,2025-12-18_13h16.53.277,2025C_exp1_detect,2022.2.4,59.94384460968986,
19.6,45,0,0,1,0,0,105,105,74,220.16897640000388,220.16897640000388,220.66940900000918,220.7361452000041,220.78666760001215,220.78666760001215,220.78666760001215,220.78666760001215,220.83642130000226,220.83642130000226,220.83642130000226,220.83642130000226,220.83642130000226,220.83642130000226,220.83642130000226,220.83642130000226,220.83642130000226,220.83642130000226,num_1,0.718897199985804,221.58706760000496,221.58706760000496,None,,9,001,2025-12-18_13h16.53.277,2025C_exp1_detect,2022.2.4,59.94384460968986,
39.2,45,0,0,-1,-1,0,106,106,151,221.58706760000496,221.58706760000496,222.08725270000286,222.15412160000415,222.20425810001325,222.20425810001325,222.20425810001325,222.20425810001325,222.25434600000153,222.25434600000153,222.25434600000153,222.25434600000153,222.25434600000153,222.25434600000153,222.25434600000153,222.25434600000153,222.25434600000153,222.25434600000153,num_3,0.6439085999882082,222.92136290000053,222.92136290000053,None,,9,001,2025-12-18_13h16.53.277,2025C_exp1_detect,2022.2.4,59.94384460968986,
42.7,315,0,0,1,1,0,107,107,377,222.92136290000053,222.92136290000053,223.42200070001127,223.48886740001035,223.5393197000085,223.5393197000085,223.5393197000085,223.5393197000085,223.58914110000478,223.58914110000478,223.58914110000478,223.58914110000478,223.58914110000478,223.58914110000478,223.58914110000478,223.58914110000478,223.58914110000478,223.58914110000478,num_3,0.8368413999851327,224.45917200000258,224.45917200000258,space,3.8872167999943485,9,001,2025-12-18_13h16.53.277,2025C_exp1_detect,2022.2.4,59.94384460968986,
12.1,45,1,1,-1,0,0,108,108,54,228.3773091000039,228.3773091000039,228.87767800000438,228.94436720000522,228.99464770000486,228.99464770000486,228.99464770000486,228.99464770000486,229.04445340001257,229.04445340001257,229.04445340001257,229.04445340001257,229.04445340001257,229.04445340001257,229.04445340001257,229.04445340001257,229.04445340001257,229.04445340001257,num_3,0.710538599989377,229.77876110000943,229.77876110000943,None,,9,001,2025-12-18_13h16.53.277,2025C_exp1_detect,2022.2.4,59.94384460968986,
22.7,45,1,1,-1,-1,0,109,109,201,229.77876110000943,229.77876110000943,230.2789279000135,230.3457769000088,230.39612000000488,230.39612000000488,230.39612000000488,230.39612000000488,230.44583620000049,230.44583620000049,230.44583620000049,230.44583620000049,230.44583620000049,230.44583620000049,230.44583620000049,230.44583620000049,230.44583620000049,230.44583620000049,num_1,0.5565731999813579,231.0296806000115,231.0296806000115,None,,9,001,2025-12-18_13h16.53.277,2025C_exp1_detect,2022.2.4,59.94384460968986,
25.5,45,1,1,-1,0,0,110,110,58,231.0296806000115,231.0296806000115,231.53030730001046,231.5970454000053,231.64751850000175,231.64751850000175,231.64751850000175,231.64751850000175,231.69728590000886,231.69728590000886,231.69728590000886,231.69728590000886,231.69728590000886,231.69728590000886,231.69728590000886,231.69728590000886,231.69728590000886,231.69728590000886,num_1,0.48183909998624586,232.19770020000578,232.19770020000578,None,,9,001,2025-12-18_13h16.53.277,2025C_exp1_detect,2022.2.4,59.94384460968986,
12.1,315,1,0,-1,0,0,111,111,27,232.19770020000578,232.19770020000578,232.6980668000033,232.7648191000044,232.81514230000903,232.81514230000903,232.81514230000903,232.81514230000903,232.8651072000066,232.8651072000066,232.8651072000066,232.8651072000066,232.8651072000066,232.8651072000066,232.8651072000066,232.8651072000066,232.8651072000066,232.8651072000066,num_1,0.5128747999842744,233.39889590001258,233.39889590001258,None,,9,001,2025-12-18_13h16.53.277,2025C_exp1_detect,2022.2.4,59.94384460968986,
25.5,315,0,0,-1,1,0,112,112,301,233.39889590001258,233.39889590001258,233.89945240000088,233.9660128000105,234.01633840000432,234.01633840000432,234.01633840000432,234.01633840000432,234.0660777000012,234.0660777000012,234.0660777000012,234.0660777000012,234.0660777000012,234.0660777000012,234.0660777000012,234.0660777000012,234.0660777000012,234.0660777000012,num_3,0.7283054999861633,234.81679950001126,234.81679950001126,None,,9,001,2025-12-18_13h16.53.277,2025C_exp1_detect,2022.2.4,59.94384460968986,
42.7,315,0,0,1,-1,0,113,113,233,234.81679950001126,234.81679950001126,235.31744920001074,235.38414460000058,235.43447650001326,235.43447650001326,235.43447650001326,235.43447650001326,235.484335000001,235.484335000001,235.484335000001,235.484335000001,235.484335000001,235.484335000001,235.484335000001,235.484335000001,235.484335000001,235.484335000001,num_3,1.4706825999746798,236.98576340000727,236.98576340000727,None,,9,001,2025-12-18_13h16.53.277,2025C_exp1_detect,2022.2.4,59.94384460968986,
22.7,45,1,0,-1,0,0,114,114,21,236.98576340000727,236.98576340000727,237.48631400000886,237.55307829999947,237.6032744000113,237.6032744000113,237.6032744000113,237.6032744000113,237.65292930000578,237.65292930000578,237.65292930000578,237.65292930000578,237.65292930000578,237.65292930000578,237.65292930000578,237.65292930000578,237.65292930000578,237.65292930000578,num_1,0.5337997999886284,238.20365150000725,238.20365150000725,None,,9,001,2025-12-18_13h16.53.277,2025C_exp1_detect,2022.2.4,59.94384460968986,
35.3,315,0,1,1,-1,0,115,115,267,238.20365150000725,238.20365150000725,238.7039278000011,238.77086760000384,238.82121990001178,238.82121990001178,238.82121990001178,238.82121990001178,238.87112239999988,238.87112239999988,238.87112239999988,238.87112239999988,238.87112239999988,238.87112239999988,238.87112239999988,238.87112239999988,238.87112239999988,238.87112239999988,num_1,0.6349119999795221,239.5383334000071,239.5383334000071,None,,9,001,2025-12-18_13h16.53.277,2025C_exp1_detect,2022.2.4,59.94384460968986,
39.2,315,1,0,1,1,0,116,116,394,239.5383334000071,239.5383334000071,240.03883940000378,240.10554790000606,240.15586020000046,240.15586020000046,240.15586020000046,240.15586020000046,240.20565620000707,240.20565620000707,240.20565620000707,240.20565620000707,240.20565620000707,240.20565620000707,240.20565620000707,240.20565620000707,240.20565620000707,240.20565620000707,num_3,0.668627999999444,240.90632560000813,240.90632560000813,None,,9,001,2025-12-18_13h16.53.277,2025C_exp1_detect,2022.2.4,59.94384460968986,
25.5,45,1,0,1,0,0,117,117,94,240.90632560000813,240.90632560000813,241.40693520000787,241.47373610000068,241.52398580001318,241.52398580001318,241.52398580001318,241.52398580001318,241.5739493000001,241.5739493000001,241.5739493000001,241.5739493000001,241.5739493000001,241.5739493000001,241.5739493000001,241.5739493000001,241.5739493000001,241.5739493000001,num_3,1.3006043999776011,242.89166130000376,242.89166130000376,None,,9,001,2025-12-18_13h16.53.277,2025C_exp1_detect,2022.2.4,59.94384460968986,
19.6,45,1,0,-1,0,0,118,118,20,242.89166130000376,242.89166130000376,243.3922220000095,243.45914600000833,243.5093496000045,243.5093496000045,243.5093496000045,243.5093496000045,243.55921760000638,243.55921760000638,243.55921760000638,243.55921760000638,243.55921760000638,243.55921760000638,243.55921760000638,243.55921760000638,243.55921760000638,243.55921760000638,num_3,0.8922593999886885,244.47675300000992,244.47675300000992,None,,9,001,2025-12-18_13h16.53.277,2025C_exp1_detect,2022.2.4,59.94384460968986,
35.3,45,1,0,1,-1,0,119,119,240,244.47675300000992,244.47675300000992,244.9771366000059,245.04379380001046,245.09413050000148,245.09413050000148,245.09413050000148,245.09413050000148,245.1439548000053,245.1439548000053,245.1439548000053,245.1439548000053,245.1439548000053,245.1439548000053,245.1439548000053,245.1439548000053,245.1439548000053,245.1439548000053,num_1,0.7631863999849884,245.92802380000649,245.92802380000649,None,,9,001,2025-12-18_13h16.53.277,2025C_exp1_detect,2022.2.4,59.94384460968986,
39.2,45,1,1,1,-1,0,120,120,277,245.92802380000649,245.92802380000649,246.4284120000084,246.49527600000147,246.54551970001194,246.54551970001194,246.54551970001194,246.54551970001194,246.595484400008,246.595484400008,246.595484400008,246.595484400008,246.595484400008,246.595484400008,246.595484400008,246.595484400008,246.595484400008,246.595484400008,num_1,0.6544815999804996,247.27937300001213,247.27937300001213,None,,9,001,2025-12-18_13h16.53.277,2025C_exp1_detect,2022.2.4,59.94384460968986,
29.4,315,1,0,-1,-1,0,121,121,176,247.27937300001213,247.27937300001213,247.77977830001328,247.84632850000344,247.8969947000005,247.8969947000005,247.8969947000005,247.8969947000005,247.9467915000132,247.9467915000132,247.9467915000132,247.9467915000132,247.9467915000132,247.9467915000132,247.9467915000132,247.9467915000132,247.9467915000132,247.9467915000132,num_3,0.6478932999889366,248.61394420001307,248.61394420001307,None,,9,001,2025-12-18_13h16.53.277,2025C_exp1_detect,2022.2.4,59.94384460968986,
42.7,45,1,0,1,0,0,122,122,98,248.61394420001307,248.61394420001307,249.1145511000068,249.18140150001273,249.2317127999995,249.2317127999995,249.2317127999995,249.2317127999995,249.28147100000933,249.28147100000933,249.28147100000933,249.28147100000933,249.28147100000933,249.28147100000933,249.28147100000933,249.28147100000933,249.28147100000933,249.28147100000933,num_3,0.7935117999877548,250.09875119999924,250.09875119999924,None,,9,001,2025-12-18_13h16.53.277,2025C_exp1_detect,2022.2.4,59.94384460968986,
12.1,315,1,0,1,-1,0,123,123,243,250.09875119999924,250.09875119999924,250.59939210000448,250.66599470000074,250.7162151000084,250.7162151000084,250.7162151000084,250.7162151000084,250.76626930000202,250.76626930000202,250.76626930000202,250.76626930000202,250.76626930000202,250.76626930000202,250.76626930000202,250.76626930000202,250.76626930000202,250.76626930000202,num_3,0.8600946999795269,251.65019570000004,251.65019570000004,None,,9,001,2025-12-18_13h16.53.277,2025C_exp1_detect,2022.2.4,59.94384460968986,
29.4,45,1,0,1,0,0,124,124,95,251.65019570000004,251.65019570000004,252.15069620001304,252.21734149999975,252.2676431,252.2676431,252.2676431,252.2676431,252.31750110001303,252.31750110001303,252.31750110001303,252.31750110001303,252.31750110001303,252.31750110001303,252.31750110001303,252.31750110001303,252.31750110001303,252.31750110001303,num_3,0.7169245999830309,253.0515388000058,253.0515388000058,None,,9,001,2025-12-18_13h16.53.277,2025C_exp1_detect,2022.2.4,59.94384460968986,
22.7,45,1,1,1,-1,0,125,125,273,253.0515388000058,253.0515388000058,253.55254240000795,253.61916980000387,253.66951380000683,253.66951380000683,253.66951380000683,253.66951380000683,253.71939810000185,253.71939810000185,253.71939810000185,253.71939810000185,253.71939810000185,253.71939810000185,253.71939810000185,253.71939810000185,253.71939810000185,253.71939810000185,num_3,1.1955796999973245,254.93720210000174,254.93720210000174,None,,9,001,2025-12-18_13h16.53.277,2025C_exp1_detect,2022.2.4,59.94384460968986,
42.7,45,0,1,1,0,0,126,126,116,254.93720210000174,254.93720210000174,255.4378083000047,255.50441150000552,255.55476560001262,255.55476560001262,255.55476560001262,255.55476560001262,255.60467740001332,255.60467740001332,255.60467740001332,255.60467740001332,255.60467740001332,255.60467740001332,255.60467740001332,255.60467740001332,255.60467740001332,255.60467740001332,num_1,0.6133891999925254,256.23816610001086,256.23816610001086,None,,9,001,2025-12-18_13h16.53.277,2025C_exp1_detect,2022.2.4,59.94384460968986,
15.7,315,0,1,-1,-1,0,127,127,190,256.23816610001086,256.23816610001086,256.73872390000906,256.80558060000476,256.8558864000079,256.8558864000079,256.8558864000079,256.8558864000079,256.90577550001035,256.90577550001035,256.90577550001035,256.90577550001035,256.90577550001035,256.90577550001035,256.90577550001035,256.90577550001035,256.90577550001035,256.90577550001035,num_1,1.0570418999850517,257.99033490000875,257.99033490000875,None,,9,001,2025-12-18_13h16.53.277,2025C_exp1_detect,2022.2.4,59.94384460968986,
22.7,315,1,0,-1,1,0,128,128,318,257.99033490000875,257.99033490000875,258.49077920000127,258.5574684000021,258.60765200000606,258.60765200000606,258.60765200000606,258.60765200000606,258.6575080000039,258.6575080000039,258.6575080000039,258.6575080000039,258.6575080000039,258.6575080000039,258.6575080000039,258.6575080000039,258.6575080000039,258.6575080000039,num_1,0.6092115999927046,259.2911285000009,259.2911285000009,None,,9,001,2025-12-18_13h16.53.277,2025C_exp1_detect,2022.2.4,59.94384460968986,
25.5,45,1,1,-1,-1,0,129,129,202,259.2911285000009,259.2911285000009,259.7918834000011,259.8586030000006,259.90864860000147,259.90864860000147,259.90864860000147,259.90864860000147,259.95846580000944,259.95846580000944,259.95846580000944,259.95846580000944,259.95846580000944,259.95846580000944,259.95846580000944,259.95846580000944,259.95846580000944,259.95846580000944,num_1,0.4993192999972962,260.47575260000303,260.47575260000303,None,,9,001,2025-12-18_13h16.53.277,2025C_exp1_detect,2022.2.4,59.94384460968986,
39.2,315,1,0,1,0,0,130,130,106,260.47575260000303,260.47575260000303,260.9764213000017,261.0431212000112,261.09347760000674,261.09347760000674,261.09347760000674,261.09347760000674,261.1432485000114,261.1432485000114,261.1432485000114,261.1432485000114,261.1432485000114,261.1432485000114,261.1432485000114,261.1432485000114,261.1432485000114,261.1432485000114,num_3,1.1388313999923412,262.3109534000105,262.3109534000105,None,,9,001,2025-12-18_13h16.53.277,2025C_exp1_detect,2022.2.4,59.94384460968986,
12.1,45,1,1,1,1,0,131,131,414,262.3109534000105,262.3109534000105,262.8116360999993,262.878314600006,262.92864940001164,262.92864940001164,262.92864940001164,262.92864940001164,262.9784684000042,262.9784684000042,262.9784684000042,262.9784684000042,262.9784684000042,262.9784684000042,262.9784684000042,262.9784684000042,262.9784684000042,262.9784684000042,num_1,0.656154999989667,263.66250740000396,263.66250740000396,None,,9,001,2025-12-18_13h16.53.277,2025C_exp1_detect,2022.2.4,59.94384460968986,
29.4,315,1,0,-1,0,0,132,132,32,263.66250740000396,263.66250740000396,264.162687700009,264.22950030000356,264.2798642000125,264.2798642000125,264.2798642000125,264.2798642000125,264.3298219999997,264.3298219999997,264.3298219999997,264.3298219999997,264.3298219999997,264.3298219999997,264.3298219999997,264.3298219999997,264.3298219999997,264.3298219999997,num_1,0.6571777999779442,265.0137621000031,265.0137621000031,None,,9,001,2025-12-18_13h16.53.277,2025C_exp1_detect,2022.2.4,59.94384460968986,
35.3,315,0,0,1,1,0,133,133,375,265.0137621000031,265.0137621000031,265.51443070000096,265.58075680000184,265.63108420000935,265.63108420000935,265.63108420000935,265.63108420000935,265.68120050001016,265.68120050001016,265.68120050001016,265.68120050001016,265.68120050001016,265.68120050001016,265.68120050001016,265.68120050001016,265.68120050001016,265.68120050001016,num_3,0.7298440999875311,266.4317857999995,266.4317857999995,None,,9,001,2025-12-18_13h16.53.277,2025C_exp1_detect,2022.2.4,59.94384460968986,
15.7,45,1,1,-1,-1,0,134,134,199,266.4317857999995,266.4317857999995,266.9323185000103,266.99909630000184,267.0493101000029,267.0493101000029,267.0493101000029,267.0493101000029,267.0992661000055,267.0992661000055,267.0992661000055,267.0992661000055,267.0992661000055,267.0992661000055,267.0992661000055,267.0992661000055,267.0992661000055,267.0992661000055,num_1,0.7991801999887684,267.91669340000954,267.91669340000954,None,,9,001,2025-12-18_13h16.53.277,2025C_exp1_detect,2022.2.4,59.94384460968986,
19.6,315,1,0,-1,0,0,135,135,29,267.91669340000954,267.91669340000954,268.4172405000136,268.4838058000023,268.53425160000916,268.53425160000916,268.53425160000916,268.53425160000916,268.58401330000197,268.58401330000197,268.58401330000197,268.58401330000197,268.58401330000197,268.58401330000197,268.58401330000197,268.58401330000197,268.58401330000197,268.58401330000197,num_1,0.6823041999887209,269.28473670000676,269.28473670000676,None,,9,001,2025-12-18_13h16.53.277,2025C_exp1_detect,2022.2.4,59.94384460968986,
35.3,315,1,0,1,-1,0,136,136,249,269.28473670000676,269.28473670000676,269.78492720000213,269.8519532000064,269.9022363000113,269.9022363000113,269.9022363000113,269.9022363000113,269.9521273000137,269.9521273000137,269.9521273000137,269.9521273000137,269.9521273000137,269.9521273000137,269.9521273000137,269.9521273000137,269.9521273000137,269.9521273000137,num_3,0.7300072999933036,270.70279650000157,270.70279650000157,None,,9,001,2025-12-18_13h16.53.277,2025C_exp1_detect,2022.2.4,59.94384460968986,
29.4,315,0,0,1,-1,0,137,137,230,270.70279650000157,270.70279650000157,271.20342200000596,271.2700177000079,271.32033040000533,271.32033040000533,271.32033040000533,271.32033040000533,271.37020020000637,271.37020020000637,271.37020020000637,271.37020020000637,271.37020020000637,271.37020020000637,271.37020020000637,271.37020020000637,271.37020020000637,271.37020020000637,num_3,0.6964547999814386,272.0876583000063,272.0876583000063,None,,9,001,2025-12-18_13h16.53.277,2025C_exp1_detect,2022.2.4,59.94384460968986,
12.1,45,0,0,-1,-1,0,138,138,144,272.0876583000063,272.0876583000063,272.58802120000473,272.65472400000726,272.70502280000073,272.70502280000073,272.70502280000073,272.70502280000073,272.7547675000096,272.7547675000096,272.7547675000096,272.7547675000096,272.7547675000096,272.7547675000096,272.7547675000096,272.7547675000096,272.7547675000096,272.7547675000096,num_3,0.9278185999864945,273.7058298000047,273.7058298000047,None,,9,001,2025-12-18_13h16.53.277,2025C_exp1_detect,2022.2.4,59.94384460968986,
22.7,45,0,0,1,-1,0,139,139,219,273.7058298000047,273.7058298000047,274.206557100013,274.27316140000767,274.32356390000496,274.32356390000496,274.32356390000496,274.32356390000496,274.3731975000119,274.3731975000119,274.3731975000119,274.3731975000119,274.3731975000119,274.3731975000119,274.3731975000119,274.3731975000119,274.3731975000119,274.3731975000119,num_3,0.9413598999817623,275.34061700000893,275.34061700000893,None,,9,001,2025-12-18_13h16.53.277,2025C_exp1_detect,2022.2.4,59.94384460968986,
29.4,315,1,0,1,0,0,140,140,104,275.34061700000893,275.34061700000893,275.8412487000023,275.9079618000105,275.9581249000039,275.9581249000039,275.9581249000039,275.9581249000039,276.00785250001354,276.00785250001354,276.00785250001354,276.00785250001354,276.00785250001354,276.00785250001354,276.00785250001354,276.00785250001354,276.00785250001354,276.00785250001354,num_1,0.6593401999998605,276.69212040001,276.69212040001,None,,9,001,2025-12-18_13h16.53.277,2025C_exp1_detect,2022.2.4,59.94384460968986,
25.5,315,1,1,-1,0,0,141,141,67,276.69212040001,276.69212040001,277.1924583000073,277.25922849999915,277.30957370001124,277.30957370001124,277.30957370001124,277.30957370001124,277.3595457000047,277.3595457000047,277.3595457000047,277.3595457000047,277.3595457000047,277.3595457000047,277.3595457000047,277.3595457000047,277.3595457000047,277.3595457000047,num_3,1.0189843999833101,278.4106740999996,278.4106740999996,None,,9,001,2025-12-18_13h16.53.277,2025C_exp1_detect,2022.2.4,59.94384460968986,
29.4,315,0,1,-1,0,0,142,142,50,278.4106740999996,278.4106740999996,278.91102440000395,278.97758690000046,279.02808709999954,279.02808709999954,279.02808709999954,279.02808709999954,279.07788280000386,279.07788280000386,279.07788280000386,279.07788280000386,279.07788280000386,279.07788280000386,279.07788280000386,279.07788280000386,279.07788280000386,279.07788280000386,num_3,0.8600897999858717,279.9620779000106,279.9620779000106,None,,9,001,2025-12-18_13h16.53.277,2025C_exp1_detect,2022.2.4,59.94384460968986,
19.6,315,1,0,1,-1,0,143,143,245,279.9620779000106,279.9620779000106,280.46279330000107,280.5292890000128,280.57968430001347,280.57968430001347,280.57968430001347,280.57968430001347,280.6294653000077,280.6294653000077,280.6294653000077,280.6294653000077,280.6294653000077,280.6294653000077,280.6294653000077,280.6294653000077,280.6294653000077,280.6294653000077,num_1,0.9415049999952316,281.5968380000122,281.5968380000122,None,,9,001,2025-12-18_13h16.53.277,2025C_exp1_detect,2022.2.4,59.94384460968986,
35.3,45,1,1,1,1,0,144,144,420,281.5968380000122,281.5968380000122,282.09716450000997,282.16390420000243,282.2142778000125,282.2142778000125,282.2142778000125,282.2142778000125,282.2640732,282.2640732,282.2640732,282.2640732,282.2640732,282.2640732,282.2640732,282.2640732,282.2640732,282.2640732,num_1,0.6980347999924561,282.98139020000235,282.98139020000235,None,,9,001,2025-12-18_13h16.53.277,2025C_exp1_detect,2022.2.4,59.94384460968986,
25.5,45,0,0,1,1,0,145,145,364,282.98139020000235,282.98139020000235,283.48222720000194,283.54891820000194,283.59925090000615,283.59925090000615,283.59925090000615,283.59925090000615,283.64916250000533,283.64916250000533,283.64916250000533,283.64916250000533,283.64916250000533,283.64916250000533,283.64916250000533,283.64916250000533,283.64916250000533,283.64916250000533,num_3,0.6894234999926994,284.3664409000048,284.3664409000048,None,,9,001,2025-12-18_13h16.53.277,2025C_exp1_detect,2022.2.4,59.94384460968986,
39.2,45,1,0,1,0,0,146,146,97,284.3664409000048,284.3664409000048,284.8668749000062,284.9333844000066,284.9836562000128,284.9836562000128,284.9836562000128,284.9836562000128,285.0334927000076,285.0334927000076,285.0334927000076,285.0334927000076,285.0334927000076,285.0334927000076,285.0334927000076,285.0334927000076,285.0334927000076,285.0334927000076,num_3,0.6413499999907799,285.70106680000026,285.70106680000026,None,,9,001,2025-12-18_13h16.53.277,2025C_exp1_detect,2022.2.4,59.94384460968986,
35.3,45,0,0,-1,1,0,147,147,294,285.70106680000026,285.70106680000026,286.2016115000006,286.2683126000047,286.3184522000083,286.3184522000083,286.3184522000083,286.3184522000083,286.3682155000133,286.3682155000133,286.3682155000133,286.3682155000133,286.3682155000133,286.3682155000133,286.3682155000133,286.3682155000133,286.3682155000133,286.3682155000133,num_1,0.7068517000006977,287.10252110000874,287.10252110000874,None,,9,001,2025-12-18_13h16.53.277,2025C_exp1_detect,2022.2.4,59.94384460968986,
25.5,315,0,0,-1,0,0,148,148,13,287.10252110000874,287.10252110000874,287.6029976000136,287.66980350000085,287.7200256000069,287.7200256000069,287.7200256000069,287.7200256000069,287.76998820000154,287.76998820000154,287.76998820000154,287.76998820000154,287.76998820000154,287.76998820000154,287.76998820000154,287.76998820000154,287.76998820000154,287.76998820000154,num_1,0.656383299981826,288.453559600006,288.453559600006,None,,9,001,2025-12-18_13h16.53.277,2025C_exp1_detect,2022.2.4,59.94384460968986,
29.4,45,0,1,-1,-1,0,149,149,185,288.453559600006,288.453559600006,288.9545064000122,289.0207909000019,289.0711381000001,289.0711381000001,289.0711381000001,289.0711381000001,289.12115990000893,289.12115990000893,289.12115990000893,289.12115990000893,289.12115990000893,289.12115990000893,289.12115990000893,289.12115990000893,289.12115990000893,289.12115990000893,num_3,0.6580122999876039,289.8050954000064,289.8050954000064,None,,9,001,2025-12-18_13h16.53.277,2025C_exp1_detect,2022.2.4,59.94384460968986,
42.7,315,0,0,-1,0,0,150,150,17,289.8050954000064,289.8050954000064,290.30570350000926,290.3725451000064,290.42293320001045,290.42293320001045,290.42293320001045,290.42293320001045,290.4728046000091,290.4728046000091,290.4728046000091,290.4728046000091,290.4728046000091,290.4728046000091,290.4728046000091,290.4728046000091,290.4728046000091,290.4728046000091,num_3,0.5380172999866772,291.0396108999994,291.0396108999994,None,,9,001,2025-12-18_13h16.53.277,2025C_exp1_detect,2022.2.4,59.94384460968986,
19.6,45,1,1,-1,-1,0,151,151,200,291.0396108999994,291.0396108999994,291.5404259000061,291.6071285000071,291.6573427000112,291.6573427000112,291.6573427000112,291.6573427000112,291.7073023000121,291.7073023000121,291.7073023000121,291.7073023000121,291.7073023000121,291.7073023000121,291.7073023000121,291.7073023000121,291.7073023000121,291.7073023000121,num_1,0.5754548999975668,292.30769169999985,292.30769169999985,None,,9,001,2025-12-18_13h16.53.277,2025C_exp1_detect,2022.2.4,59.94384460968986,
42.7,315,1,1,1,-1,0,152,152,287,292.30769169999985,292.30769169999985,292.80818920000456,292.8749046000012,292.9251618000126,292.9251618000126,292.9251618000126,292.9251618000126,292.9751288000116,292.9751288000116,292.9751288000116,292.9751288000116,292.9751288000116,292.9751288000116,292.9751288000116,292.9751288000116,292.9751288000116,292.9751288000116,num_3,0.7627547999873059,293.75919680000516,293.75919680000516,None,,9,001,2025-12-18_13h16.53.277,2025C_exp1_detect,2022.2.4,59.94384460968986,
39.2,45,0,1,1,-1,0,153,153,259,293.75919680000516,293.75919680000516,294.25974760000827,294.3263571000134,294.376663300005,294.376663300005,294.376663300005,294.376663300005,294.42635380000866,294.42635380000866,294.42635380000866,294.42635380000866,294.42635380000866,294.42635380000866,294.42635380000866,294.42635380000866,294.42635380000866,294.42635380000866,num_1,0.607557999988785,295.06041790000745,295.06041790000745,None,,9,001,2025-12-18_13h16.53.277,2025C_exp1_detect,2022.2.4,59.94384460968986,
39.2,45,0,0,1,0,0,154,154,79,295.06041790000745,295.06041790000745,295.5606209000107,295.6273622000008,295.67766120001033,295.67766120001033,295.67766120001033,295.67766120001033,295.7275612000085,295.7275612000085,295.7275612000085,295.7275612000085,295.7275612000085,295.7275612000085,295.7275612000085,295.7275612000085,295.7275612000085,295.7275612000085,num_3,0.6507464000023901,296.395285400009,296.395285400009,None,,9,001,2025-12-18_13h16.53.277,2025C_exp1_detect,2022.2.4,59.94384460968986,
35.3,45,1,1,-1,-1,0,155,155,204,296.395285400009,296.395285400009,296.8956790000084,296.9623278000072,297.01232829999935,297.01232829999935,297.01232829999935,297.01232829999935,297.06236710000667,297.06236710000667,297.06236710000667,297.06236710000667,297.06236710000667,297.06236710000667,297.06236710000667,297.06236710000667,297.06236710000667,297.06236710000667,num_3,0.732622999988962,297.81318770001235,297.81318770001235,None,,9,001,2025-12-18_13h16.53.277,2025C_exp1_detect,2022.2.4,59.94384460968986,
15.7,45,0,1,1,1,0,156,156,397,297.81318770001235,297.81318770001235,298.313853700005,298.380499100007,298.4308791000076,298.4308791000076,298.4308791000076,298.4308791000076,298.4807523000054,298.4807523000054,298.4807523000054,298.4807523000054,298.4807523000054,298.4807523000054,298.4807523000054,298.4807523000054,298.4807523000054,298.4807523000054,num_1,0.7297522999870125,299.2311393000127,299.2311393000127,None,,9,001,2025-12-18_13h16.53.277,2025C_exp1_detect,2022.2.4,59.94384460968986,
22.7,45,0,1,1,-1,0,157,157,255,299.2311393000127,299.2311393000127,299.73178570000164,299.7984887000057,299.84881950001,299.84881950001,299.84881950001,299.84881950001,299.89869870000985,299.89869870000985,299.89869870000985,299.89869870000985,299.89869870000985,299.89869870000985,299.89869870000985,299.89869870000985,299.89869870000985,299.89869870000985,num_1,0.6151094999804627,300.5325945000077,300.5325945000077,None,,9,001,2025-12-18_13h16.53.277,2025C_exp1_detect,2022.2.4,59.94384460968986,
19.6,315,0,0,-1,0,0,158,158,11,300.5325945000077,300.5325945000077,301.032975500013,301.09985589999997,301.15014090000477,301.15014090000477,301.15014090000477,301.15014090000477,301.19990420000977,301.19990420000977,301.19990420000977,301.19990420000977,301.19990420000977,301.19990420000977,301.19990420000977,301.19990420000977,301.19990420000977,301.19990420000977,num_3,0.6744895000010729,301.9004808000027,301.9004808000027,None,,9,001,2025-12-18_13h16.53.277,2025C_exp1_detect,2022.2.4,59.94384460968986,
22.7,45,1,0,1,-1,0,159,159,237,301.9004808000027,301.9004808000027,302.40109940001275,302.4677623000025,302.5179766000074,302.5179766000074,302.5179766000074,302.5179766000074,302.5679800000071,302.5679800000071,302.5679800000071,302.5679800000071,302.5679800000071,302.5679800000071,302.5679800000071,302.5679800000071,302.5679800000071,302.5679800000071,num_1,0.6978646999777993,303.28519320000487,303.28519320000487,None,,9,001,2025-12-18_13h16.53.277,2025C_exp1_detect,2022.2.4,59.94384460968986,
29.4,315,0,0,-1,0,0,160,160,14,303.28519320000487,303.28519320000487,303.78577550000045,303.8525399000064,303.90283730000374,303.90283730000374,303.90283730000374,303.90283730000374,303.9527361000073,303.9527361000073,303.9527361000073,303.9527361000073,303.9527361000073,303.9527361000073,303.9527361000073,303.9527361000073,303.9527361000073,303.9527361000073,num_3,0.7299435999884736,304.70333160000155,304.70333160000155,None,,9,001,2025-12-18_13h16.53.277,2025C_exp1_detect,2022.2.4,59.94384460968986,
39.2,45,0,0,1,1,0,161,161,367,304.70333160000155,304.70333160000155,305.2038675000076,305.27069530000153,305.3209077000065,305.3209077000065,305.3209077000065,305.3209077000065,305.3708697000111,305.3708697000111,305.3708697000111,305.3708697000111,305.3708697000111,305.3708697000111,305.3708697000111,305.3708697000111,305.3708697000111,305.3708697000111,num_1,0.7201203999866266,306.12150570000813,306.12150570000813,None,,9,001,2025-12-18_13h16.53.277,2025C_exp1_detect,2022.2.4,59.94384460968986,
22.7,315,1,1,1,-1,0,162,162,282,306.12150570000813,306.12150570000813,306.62199830000463,306.68877280000015,306.73902230001113,306.73902230001113,306.73902230001113,306.73902230001113,306.7889028000063,306.7889028000063,306.7889028000063,306.7889028000063,306.7889028000063,306.7889028000063,306.7889028000063,306.7889028000063,306.7889028000063,306.7889028000063,num_1,0.6692576999921585,307.4896497000009,307.4896497000009,None,,9,001,2025-12-18_13h16.53.277,2025C_exp1_detect,2022.2.4,59.94384460968986,
15.7,45,0,0,-1,0,0,163,163,1,307.4896497000009,307.4896497000009,307.99004800000694,308.05677610001294,308.10708180000074,308.10708180000074,308.10708180000074,308.10708180000074,308.15694520001125,308.15694520001125,308.15694520001125,308.15694520001125,308.15694520001125,308.15694520001125,308.15694520001125,308.15694520001125,308.15694520001125,308.15694520001125,num_3,0.7255479999876115,308.9077607000072,308.9077607000072,None,,9,001,2025-12-18_13h16.53.277,2025C_exp1_detect,2022.2.4,59.94384460968986,
29.4,45,0,1,-1,1,0,164,164,329,308.9077607000072,308.9077607000072,309.40785900001356,309.47450650000246,309.52482400000736,309.52482400000736,309.52482400000736,309.52482400000736,309.5749133000063,309.5749133000063,309.5749133000063,309.5749133000063,309.5749133000063,309.5749133000063,309.5749133000063,309.5749133000063,309.5749133000063,309.5749133000063,num_3,0.7475549999944633,310.3420601000107,310.3420601000107,None,,9,001,2025-12-18_13h16.53.277,2025C_exp1_detect,2022.2.4,59.94384460968986,
35.3,45,1,0,-1,0,0,165,165,24,310.3420601000107,310.3420601000107,310.84292200001073,310.9096082000033,310.959958300009,310.959958300009,310.959958300009,310.959958300009,311.0097717000026,311.0097717000026,311.0097717000026,311.0097717000026,311.0097717000026,311.0097717000026,311.0097717000026,311.0097717000026,311.0097717000026,311.0097717000026,num_1,0.7040635999874212,311.74345630001335,311.74345630001335,None,,9,001,2025-12-18_13h16.53.277,2025C_exp1_detect,2022.2.4,59.94384460968986,
15.7,45,0,1,-1,0,0,166,166,37,311.74345630001335,311.74345630001335,312.24407540001266,312.310681700008,312.3609679000074,312.3609679000074,312.3609679000074,312.3609679000074,312.4112753000081,312.4112753000081,312.4112753000081,312.4112753000081,312.4112753000081,312.4112753000081,312.4112753000081,312.4112753000081,312.4112753000081,312.4112753000081,num_3,1.014952399986214,313.4451686000102,313.4451686000102,None,,9,001,2025-12-18_13h16.53.277,2025C_exp1_detect,2022.2.4,59.94384460968986,
15.7,45,1,0,1,1,0,167,167,379,313.4451686000102,313.4451686000102,313.9456669000065,314.01249420001113,314.06302380000125,314.06302380000125,314.06302380000125,314.06302380000125,314.1126227000059,314.1126227000059,314.1126227000059,314.1126227000059,314.1126227000059,314.1126227000059,314.1126227000059,314.1126227000059,314.1126227000059,314.1126227000059,num_3,0.8012719999969704,314.9466650000104,314.9466650000104,None,,9,001,2025-12-18_13h16.53.277,2025C_exp1_detect,2022.2.4,59.94384460968986,
29.4,45,1,1,-1,1,0,168,168,347,314.9466650000104,314.9466650000104,315.4471918000054,315.51397420000285,315.5642355000018,315.5642355000018,315.5642355000018,315.5642355000018,315.6140720000112,315.6140720000112,315.6140720000112,315.6140720000112,315.6140720000112,315.6140720000112,315.6140720000112,315.6140720000112,315.6140720000112,315.6140720000112,num_1,0.7643351000006078,316.39823530000285,316.39823530000285,None,,9,001,2025-12-18_13h16.53.277,2025C_exp1_detect,2022.2.4,59.94384460968986,
15.7,45,1,1,1,-1,0,169,169,271,316.39823530000285,316.39823530000285,316.8986615000031,316.9653806999995,317.01569559999916,317.01569559999916,317.01569559999916,317.01569559999916,317.0656336000102,317.0656336000102,317.0656336000102,317.0656336000102,317.0656336000102,317.0656336000102,317.0656336000102,317.0656336000102,317.0656336000102,317.0656336000102,num_3,0.7045696999848587,317.79953890001343,317.79953890001343,None,,9,001,2025-12-18_13h16.53.277,2025C_exp1_detect,2022.2.4,59.94384460968986,
19.6,45,1,0,1,0,0,170,170,92,317.79953890001343,317.79953890001343,318.3000161000091,318.3668131000013,318.41703750001034,318.41703750001034,318.41703750001034,318.41703750001034,318.4668806000118,318.4668806000118,318.4668806000118,318.4668806000118,318.4668806000118,318.4668806000118,318.4668806000118,318.4668806000118,318.4668806000118,318.4668806000118,num_1,0.6629465999867534,319.15115360000345,319.15115360000345,None,,9,001,2025-12-18_13h16.53.277,2025C_exp1_detect,2022.2.4,59.94384460968986,
35.3,315,1,0,1,1,0,171,171,393,319.15115360000345,319.15115360000345,319.65169550001156,319.7184111000097,319.7686284000083,319.7686284000083,319.7686284000083,319.7686284000083,319.81857590000436,319.81857590000436,319.81857590000436,319.81857590000436,319.81857590000436,319.81857590000436,319.81857590000436,319.81857590000436,319.81857590000436,319.81857590000436,num_3,0.7278451999882236,320.56895559999975,320.56895559999975,None,,9,001,2025-12-18_13h16.53.277,2025C_exp1_detect,2022.2.4,59.94384460968986,
12.1,45,1,0,1,1,0,172,172,378,320.56895559999975,320.56895559999975,321.06946340001014,321.1361692000064,321.18651800000225,321.18651800000225,321.18651800000225,321.18651800000225,321.2364482000121,321.2364482000121,321.2364482000121,321.2364482000121,321.2364482000121,321.2364482000121,321.2364482000121,321.2364482000121,321.2364482000121,321.2364482000121,num_3,0.6381381999817677,321.90362950001145,321.90362950001145,None,,9,001,2025-12-18_13h16.53.277,2025C_exp1_detect,2022.2.4,59.94384460968986,
42.7,315,1,0,1,-1,0,173,173,251,321.90362950001145,321.90362950001145,322.40435440000147,322.4708513000078,322.521184600002,322.521184600002,322.521184600002,322.521184600002,322.5710317000048,322.5710317000048,322.5710317000048,322.5710317000048,322.5710317000048,322.5710317000048,322.5710317000048,322.5710317000048,322.5710317000048,322.5710317000048,num_3,0.6227606999891577,323.22161730000516,323.22161730000516,None,,9,001,2025-12-18_13h16.53.277,2025C_exp1_detect,2022.2.4,59.94384460968986,
22.7,315,1,0,1,0,0,174,174,102,323.22161730000516,323.22161730000516,323.72218920000887,323.7888124000019,323.8392550000135,323.8392550000135,323.8392550000135,323.8392550000135,323.88901579999947,323.88901579999947,323.88901579999947,323.88901579999947,323.88901579999947,323.88901579999947,323.88901579999947,323.88901579999947,323.88901579999947,323.88901579999947,num_3,0.6247487999789882,324.54016260000935,324.54016260000935,None,,9,001,2025-12-18_13h16.53.277,2025C_exp1_detect,2022.2.4,59.94384460968986,
19.6,45,0,1,1,-1,0,175,175,254,324.54016260000935,324.54016260000935,325.0400959000108,325.10781000000134,325.15714140000637,325.15714140000637,325.15714140000637,325.15714140000637,325.20702320001146,325.20702320001146,325.20702320001146,325.20702320001146,325.20702320001146,325.20702320001146,325.20702320001146,325.20702320001146,325.20702320001146,325.20702320001146,num_1,0.6669328999851132,325.8909782000119,325.8909782000119,None,,9,001,2025-12-18_13h16.53.277,2025C_exp1_detect,2022.2.4,59.94384460968986,
39.2,315,0,0,1,1,0,176,176,376,325.8909782000119,325.8909782000119,326.3914499000093,326.4581590000016,326.50847880000947,326.50847880000947,326.50847880000947,326.50847880000947,326.55844420001085,326.55844420001085,326.55844420001085,326.55844420001085,326.55844420001085,326.55844420001085,326.55844420001085,326.55844420001085,326.55844420001085,326.55844420001085,num_3,0.6835418999835383,327.25899840000784,327.25899840000784,None,,9,001,2025-12-18_13h16.53.277,2025C_exp1_detect,2022.2.4,59.94384460968986,
22.7,315,1,0,-1,-1,0,177,177,174,327.25899840000784,327.25899840000784,327.75949070000206,327.8262175000127,327.87653870000213,327.87653870000213,327.87653870000213,327.87653870000213,327.9264477000106,327.9264477000106,327.9264477000106,327.9264477000106,327.9264477000106,327.9264477000106,327.9264477000106,327.9264477000106,327.9264477000106,327.9264477000106,num_1,0.8759240999934264,328.82723730000725,328.82723730000725,None,,9,001,2025-12-18_13h16.53.277,2025C_exp1_detect,2022.2.4,59.94384460968986,
29.4,45,0,0,-1,-1,0,178,178,149,328.82723730000725,328.82723730000725,329.32774659999995,329.39446190001036,329.4448592000117,329.4448592000117,329.4448592000117,329.4448592000117,329.4946265000035,329.4946265000035,329.4946265000035,329.4946265000035,329.4946265000035,329.4946265000035,329.4946265000035,329.4946265000035,329.4946265000035,329.4946265000035,num_3,0.6112307999865152,330.12857550001354,330.12857550001354,None,,9,001,2025-12-18_13h16.53.277,2025C_exp1_detect,2022.2.4,59.94384460968986,
29.4,315,1,1,1,1,0,179,179,428,330.12857550001354,330.12857550001354,330.62919089999923,330.6957497000112,330.74606490001315,330.74606490001315,330.74606490001315,330.74606490001315,330.7959400000109,330.7959400000109,330.7959400000109,330.7959400000109,330.7959400000109,330.7959400000109,330.7959400000109,330.7959400000109,330.7959400000109,330.7959400000109,num_3,0.6697122999903513,331.4965363000083,331.4965363000083,None,,9,001,2025-12-18_13h16.53.277,2025C_exp1_detect,2022.2.4,59.94384460968986,
25.5,45,0,1,1,0,0,180,180,112,331.4965363000083,331.4965363000083,331.9970453999995,332.06382180000946,332.1140824000031,332.1140824000031,332.1140824000031,332.1140824000031,332.1639877000125,332.1639877000125,332.1639877000125,332.1639877000125,332.1639877000125,332.1639877000125,332.1639877000125,332.1639877000125,332.1639877000125,332.1639877000125,num_1,0.6225473999802489,332.8145183000015,332.8145183000015,None,,9,001,2025-12-18_13h16.53.277,2025C_exp1_detect,2022.2.4,59.94384460968986,
15.7,315,0,0,1,1,0,181,181,370,332.8145183000015,332.8145183000015,333.31503270000394,333.38175660000707,333.43205560000206,333.43205560000206,333.43205560000206,333.43205560000206,333.4819262000092,333.4819262000092,333.4819262000092,333.4819262000092,333.4819262000092,333.4819262000092,333.4819262000092,333.4819262000092,333.4819262000092,333.4819262000092,num_3,0.648152099980507,334.14928100000543,334.14928100000543,None,,9,001,2025-12-18_13h16.53.277,2025C_exp1_detect,2022.2.4,59.94384460968986,
29.4,45,0,1,1,-1,0,182,182,257,334.14928100000543,334.14928100000543,334.6498191999999,334.716419400007,334.76689910001005,334.76689910001005,334.76689910001005,334.76689910001005,334.8168672000029,334.8168672000029,334.8168672000029,334.8168672000029,334.8168672000029,334.8168672000029,334.8168672000029,334.8168672000029,334.8168672000029,334.8168672000029,num_1,0.6329263999941759,335.46726540000236,335.46726540000236,None,,9,001,2025-12-18_13h16.53.277,2025C_exp1_detect,2022.2.4,59.94384460968986,
39.2,45,0,0,1,-1,0,183,183,223,335.46726540000236,335.46726540000236,335.96775690000504,336.0344322000019,336.0847458000062,336.0847458000062,336.0847458000062,336.0847458000062,336.13456390000647,336.13456390000647,336.13456390000647,336.13456390000647,336.13456390000647,336.13456390000647,336.13456390000647,336.13456390000647,336.13456390000647,336.13456390000647,num_3,0.5791260999976657,336.7351045000105,336.7351045000105,None,,9,001,2025-12-18_13h16.53.277,2025C_exp1_detect,2022.2.4,59.94384460968986,
35.3,45,0,1,-1,1,0,184,184,330,336.7351045000105,336.7351045000105,337.23607240000274,337.302371400001,337.3526372000051,337.3526372000051,337.3526372000051,337.3526372000051,337.4024799000035,337.4024799000035,337.4024799000035,337.4024799000035,337.4024799000035,337.4024799000035,337.4024799000035,337.4024799000035,337.4024799000035,337.4024799000035,num_1,0.6551599999947939,338.08644320000894,338.08644320000894,None,,9,001,2025-12-18_13h16.53.277,2025C_exp1_detect,2022.2.4,59.94384460968986,
19.6,45,1,0,1,-1,0,185,185,236,338.08644320000894,338.08644320000894,338.58695210001315,338.6540590000077,338.7040033000085,338.7040033000085,338.7040033000085,338.7040033000085,338.7539136000123,338.7539136000123,338.7539136000123,338.7539136000123,338.7539136000123,338.7539136000123,338.7539136000123,338.7539136000123,338.7539136000123,338.7539136000123,num_3,0.6004959999845596,339.37127400000463,339.37127400000463,None,,9,001,2025-12-18_13h16.53.277,2025C_exp1_detect,2022.2.4,59.94384460968986,
19.6,315,1,0,1,0,0,186,186,101,339.37127400000463,339.37127400000463,339.8719192999997,339.93833230000746,339.9887252000044,339.9887252000044,339.9887252000044,339.9887252000044,340.0384697000118,340.0384697000118,340.0384697000118,340.0384697000118,340.0384697000118,340.0384697000118,340.0384697000118,340.0384697000118,340.0384697000118,340.0384697000118,num_1,0.6271215999877313,340.68906270001025,340.68906270001025,None,,9,001,2025-12-18_13h16.53.277,2025C_exp1_detect,2022.2.4,59.94384460968986,
42.7,45,1,1,1,-1,0,187,187,278,340.68906270001025,340.68906270001025,341.189555200006,341.2566848999995,341.30667090001225,341.30667090001225,341.30667090001225,341.30667090001225,341.3564972000022,341.3564972000022,341.3564972000022,341.3564972000022,341.3564972000022,341.3564972000022,341.3564972000022,341.3564972000022,341.3564972000022,341.3564972000022,num_1,0.6370880999893416,342.023797700007,342.023797700007,None,,9,001,2025-12-18_13h16.53.277,2025C_exp1_detect,2022.2.4,59.94384460968986,
35.3,315,1,0,-1,-1,0,188,188,177,342.023797700007,342.023797700007,342.5242167000106,342.59095450000314,342.6413085000095,342.6413085000095,342.6413085000095,342.6413085000095,342.6910996000079,342.6910996000079,342.6910996000079,342.6910996000079,342.6910996000079,342.6910996000079,342.6910996000079,342.6910996000079,342.6910996000079,342.6910996000079,num_3,0.5993835999834118,343.30831860000035,343.30831860000035,None,,9,001,2025-12-18_13h16.53.277,2025C_exp1_detect,2022.2.4,59.94384460968986,
15.7,315,0,1,1,1,0,189,189,406,343.30831860000035,343.30831860000035,343.80917550000595,343.875864200003,343.9261020000122,343.9261020000122,343.9261020000122,343.9261020000122,343.9759226000024,343.9759226000024,343.9759226000024,343.9759226000024,343.9759226000024,343.9759226000024,343.9759226000024,343.9759226000024,343.9759226000024,343.9759226000024,num_3,0.5383634999743663,344.54293080000207,344.54293080000207,None,,9,001,2025-12-18_13h16.53.277,2025C_exp1_detect,2022.2.4,59.94384460968986,
42.7,45,0,0,1,-1,0,190,190,224,344.54293080000207,344.54293080000207,345.0437168000062,345.11046050000004,345.16087900000275,345.16087900000275,345.16087900000275,345.16087900000275,345.21076330001233,345.21076330001233,345.21076330001233,345.21076330001233,345.21076330001233,345.21076330001233,345.21076330001233,345.21076330001233,345.21076330001233,345.21076330001233,num_1,0.542806199984625,345.77742950001266,345.77742950001266,None,,9,001,2025-12-18_13h16.53.277,2025C_exp1_detect,2022.2.4,59.94384460968986,
22.7,45,1,1,-1,0,0,191,191,57,345.77742950001266,345.77742950001266,346.2780047000124,346.3450288000022,346.3952583000064,346.3952583000064,346.3952583000064,346.3952583000064,346.4450571000052,346.4450571000052,346.4450571000052,346.4450571000052,346.4450571000052,346.4450571000052,346.4450571000052,346.4450571000052,346.4450571000052,346.4450571000052,num_1,0.5338339999871096,346.99575690001075,346.99575690001075,None,,9,001,2025-12-18_13h16.53.277,2025C_exp1_detect,2022.2.4,59.94384460968986,
39.2,315,0,1,1,0,0,192,192,124,346.99575690001075,346.99575690001075,347.496149300001,347.56288080000377,347.61311630001,347.61311630001,347.61311630001,347.61311630001,347.66304390000005,347.66304390000005,347.66304390000005,347.66304390000005,347.66304390000005,347.66304390000005,347.66304390000005,347.66304390000005,347.66304390000005,347.66304390000005,num_1,0.4909558999934234,348.17987380000704,348.17987380000704,None,,9,001,2025-12-18_13h16.53.277,2025C_exp1_detect,2022.2.4,59.94384460968986,
25.5,45,1,0,1,1,0,193,193,382,348.17987380000704,348.17987380000704,348.6804250000132,348.7476520000055,348.7973626000021,348.7973626000021,348.7973626000021,348.7973626000021,348.8472730000067,348.8472730000067,348.8472730000067,348.8472730000067,348.8472730000067,348.8472730000067,348.8472730000067,348.8472730000067,348.8472730000067,348.8472730000067,num_3,0.5547469000011915,349.43140340001264,349.43140340001264,None,,9,001,2025-12-18_13h16.53.277,2025C_exp1_detect,2022.2.4,59.94384460968986,
39.2,315,1,0,1,-1,0,194,194,250,349.43140340001264,349.43140340001264,349.9319218000019,349.99880240000493,350.0489508000028,350.0489508000028,350.0489508000028,350.0489508000028,350.09883020000416,350.09883020000416,350.09883020000416,350.09883020000416,350.09883020000416,350.09883020000416,350.09883020000416,350.09883020000416,350.09883020000416,350.09883020000416,num_1,0.6955619999935152,350.81600050001,350.81600050001,None,,9,001,2025-12-18_13h16.53.277,2025C_exp1_detect,2022.2.4,59.94384460968986,
19.6,45,0,1,-1,1,0,195,195,326,350.81600050001,350.81600050001,351.31665140000405,351.3833663000114,351.43349610001314,351.43349610001314,351.43349610001314,351.43349610001314,351.4832679000101,351.4832679000101,351.4832679000101,351.4832679000101,351.4832679000101,351.4832679000101,351.4832679000101,351.4832679000101,351.4832679000101,351.4832679000101,num_3,0.5749732999829575,352.0837625999993,352.0837625999993,None,,9,001,2025-12-18_13h16.53.277,2025C_exp1_detect,2022.2.4,59.94384460968986,
