contrast,ori,side,precue,trials.thisRepN,trials.thisTrialN,trials.thisN,trials.thisIndex,fix1.started,fix2.started,precue_2.started,precue_2.stopped,left_grating.started,right_grating.started,noise_left2.started,noise_right2.started,fix1.stopped,fix2.stopped,left_grating.stopped,right_grating.stopped,noise_left2.stopped,noise_right2.stopped,key_resp.started,fix1_2.started,fix2_2.started,key_resp.keys,key_resp.rt,key_resp_2.started,break_text_2.started,key_resp_2.keys,key_resp_2.rt,participant,session,date,expName,psychopyVersion,frameRate,
25.5,315,-1,0,0,0,0,13,18.842923099990003,18.842923099990003,19.324958299999707,19.39181629999075,19.478269300001557,19.478269300001557,19.478269300001557,19.478269300001557,19.50867830000061,19.50867830000061,19.50867830000061,19.50867830000061,19.50867830000061,19.50867830000061,19.50867830000061,19.50867830000061,19.50867830000061,right,0.7161911000002874,20.242644799989648,20.242644799989648,None,,9,001,2025-12-18_14h03.29.612,2025C_exp1_comp,2022.2.4,59.777579581059115,
35.3,315,1,0,0,1,1,33,20.242644799989648,20.242644799989648,20.74332309998863,20.809906299997238,20.860180499992566,20.860180499992566,20.860180499992566,20.860180499992566,20.909989799998584,20.909989799998584,20.909989799998584,20.909989799998584,20.909989799998584,20.909989799998584,20.909989799998584,20.909989799998584,20.909989799998584,right,0.6763315000134753,21.61069729999872,21.61069729999872,None,,9,001,2025-12-18_14h03.29.612,2025C_exp1_comp,2022.2.4,59.777579581059115,
29.4,45,-1,1,0,2,2,41,21.61069729999872,21.61069729999872,22.111193499993533,22.17791519999446,22.228168999994523,22.228168999994523,22.228168999994523,22.228168999994523,22.277842999988934,22.277842999988934,22.277842999988934,22.277842999988934,22.277842999988934,22.277842999988934,22.277842999988934,22.277842999988934,22.277842999988934,right,0.5397817000048235,22.84504859999288,22.84504859999288,None,,9,001,2025-12-18_14h03.29.612,2025C_exp1_comp,2022.2.4,59.777579581059115,
42.7,315,1,1,0,3,3,71,22.84504859999288,22.84504859999288,23.34578779998992,23.41217749999487,23.4627477999893,23.4627477999893,23.4627477999893,23.4627477999893,23.51257639999676,23.51257639999676,23.51257639999676,23.51257639999676,23.51257639999676,23.51257639999676,23.51257639999676,23.51257639999676,23.51257639999676,right,0.49738390000129584,24.02978459998849,24.02978459998849,None,,9,001,2025-12-18_14h03.29.612,2025C_exp1_comp,2022.2.4,59.777579581059115,
29.4,45,1,1,0,4,4,59,24.02978459998849,24.02978459998849,24.530335099989315,24.5970312999998,24.64722339999571,24.64722339999571,24.64722339999571,24.64722339999571,24.69710320000013,24.69710320000013,24.69710320000013,24.69710320000013,24.69710320000013,24.69710320000013,24.69710320000013,24.69710320000013,24.69710320000013,left,0.8642665000079433,25.581345200000214,25.581345200000214,None,,9,001,2025-12-18_14h03.29.612,2025C_exp1_comp,2022.2.4,59.777579581059115,
15.7,45,1,-1,0,5,5,91,25.581345200000214,25.581345200000214,26.081516499994905,26.14825009999913,26.19894459999341,26.19894459999341,26.19894459999341,26.19894459999341,26.248590099989087,26.248590099989087,26.248590099989087,26.248590099989087,26.248590099989087,26.248590099989087,26.248590099989087,26.248590099989087,26.248590099989087,left,0.6254924000095343,26.899167199997464,26.899167199997464,None,,9,001,2025-12-18_14h03.29.612,2025C_exp1_comp,2022.2.4,59.777579581059115,
22.7,315,1,1,0,6,6,66,26.899167199997464,26.899167199997464,27.399802499989164,27.466413999994984,27.516796799987787,27.516796799987787,27.516796799987787,27.516796799987787,27.566348199994536,27.566348199994536,27.566348199994536,27.566348199994536,27.566348199994536,27.566348199994536,27.566348199994536,27.566348199994536,27.566348199994536,left,0.6516133000113769,28.234099599998444,28.234099599998444,None,,9,001,2025-12-18_14h03.29.612,2025C_exp1_comp,2022.2.4,59.777579581059115,
42.7,45,1,0,0,7,7,26,28.234099599998444,28.234099599998444,28.73449499999697,28.801230299999588,28.851250099993194,28.851250099993194,28.851250099993194,28.851250099993194,28.901213299992378,28.901213299992378,28.901213299992378,28.901213299992378,28.901213299992378,28.901213299992378,28.901213299992378,28.901213299992378,28.901213299992378,right,0.6284226999996463,29.55210950000037,29.55210950000037,None,,9,001,2025-12-18_14h03.29.612,2025C_exp1_comp,2022.2.4,59.777579581059115,
15.7,315,-1,-1,0,8,8,82,29.55210950000037,29.55210950000037,30.052647999997134,30.11931109998841,30.169603799993638,30.169603799993638,30.169603799993638,30.169603799993638,30.21915849999641,30.21915849999641,30.21915849999641,30.21915849999641,30.21915849999641,30.21915849999641,30.21915849999641,30.21915849999641,30.21915849999641,right,0.4778317000018433,30.719588599997223,30.719588599997223,None,,9,001,2025-12-18_14h03.29.612,2025C_exp1_comp,2022.2.4,59.777579581059115,
35.3,45,1,1,0,9,9,60,30.719588599997223,30.719588599997223,31.22029919999477,31.287005899997894,31.337324099993566,31.337324099993566,31.337324099993566,31.337324099993566,31.38700699999754,31.38700699999754,31.38700699999754,31.38700699999754,31.38700699999754,31.38700699999754,31.38700699999754,31.38700699999754,31.38700699999754,right,0.5018638000037754,31.92102929999237,31.92102929999237,None,,9,001,2025-12-18_14h03.29.612,2025C_exp1_comp,2022.2.4,59.777579581059115,
39.2,45,1,-1,0,10,10,97,31.92102929999237,31.92102929999237,32.42153319998761,32.48824109999987,32.53853649999655,32.53853649999655,32.53853649999655,32.53853649999655,32.588197799996124,32.588197799996124,32.588197799996124,32.588197799996124,32.588197799996124,32.588197799996124,32.588197799996124,32.588197799996124,32.588197799996124,right,0.5896198000118602,33.205610699995304,33.205610699995304,None,,9,001,2025-12-18_14h03.29.612,2025C_exp1_comp,2022.2.4,59.777579581059115,
39.2,45,-1,1,0,11,11,43,33.205610699995304,33.205610699995304,33.70595579998917,33.77285069999925,33.82285739999497,33.82285739999497,33.82285739999497,33.82285739999497,33.87302269999054,33.87302269999054,33.87302269999054,33.87302269999054,33.87302269999054,33.87302269999054,33.87302269999054,33.87302269999054,33.87302269999054,right,0.5362918000028003,34.440228099992964,34.440228099992964,None,,9,001,2025-12-18_14h03.29.612,2025C_exp1_comp,2022.2.4,59.777579581059115,
15.7,45,-1,0,0,12,12,1,34.440228099992964,34.440228099992964,34.94034839999222,35.00738279998768,35.05770939998911,35.05770939998911,35.05770939998911,35.05770939998911,35.107494199997745,35.107494199997745,35.107494199997745,35.107494199997745,35.107494199997745,35.107494199997745,35.107494199997745,35.107494199997745,35.107494199997745,right,0.5253560999990441,35.65806969998812,35.65806969998812,None,,9,001,2025-12-18_14h03.29.612,2025C_exp1_comp,2022.2.4,59.777579581059115,
25.5,45,1,-1,0,13,13,94,35.65806969998812,35.65806969998812,36.15875619999133,36.22532689999207,36.275750599990715,36.275750599990715,36.275750599990715,36.275750599990715,36.32545269999537,36.32545269999537,36.32545269999537,36.32545269999537,36.32545269999537,36.32545269999537,36.32545269999537,36.32545269999537,36.32545269999537,right,0.5155942999990657,36.85911359998863,36.85911359998863,None,,9,001,2025-12-18_14h03.29.612,2025C_exp1_comp,2022.2.4,59.777579581059115,
25.5,315,1,-1,0,14,14,103,36.85911359998863,36.85911359998863,37.35974279999209,37.426470299993525,37.47677989999647,37.47677989999647,37.47677989999647,37.47677989999647,37.526595499992254,37.526595499992254,37.526595499992254,37.526595499992254,37.526595499992254,37.526595499992254,37.526595499992254,37.526595499992254,37.526595499992254,right,0.5394980999990366,38.09380479999527,38.09380479999527,None,,9,001,2025-12-18_14h03.29.612,2025C_exp1_comp,2022.2.4,59.777579581059115,
39.2,45,-1,0,0,15,15,7,38.09380479999527,38.09380479999527,38.594316099988646,38.66104059999634,38.7113709999976,38.7113709999976,38.7113709999976,38.7113709999976,38.76114069999312,38.76114069999312,38.76114069999312,38.76114069999312,38.76114069999312,38.76114069999312,38.76114069999312,38.76114069999312,38.76114069999312,right,0.5362746000027983,39.328525599994464,39.328525599994464,None,,9,001,2025-12-18_14h03.29.612,2025C_exp1_comp,2022.2.4,59.777579581059115,
22.7,45,1,-1,0,16,16,93,39.328525599994464,39.328525599994464,39.82882709999103,39.89564170000085,39.94593649999297,39.94593649999297,39.94593649999297,39.94593649999297,39.995751599999494,39.995751599999494,39.995751599999494,39.995751599999494,39.995751599999494,39.995751599999494,39.995751599999494,39.995751599999494,39.995751599999494,left,0.5659520000044722,40.57962599999155,40.57962599999155,None,,9,001,2025-12-18_14h03.29.612,2025C_exp1_comp,2022.2.4,59.777579581059115,
29.4,45,1,0,0,17,17,23,40.57962599999155,40.57962599999155,41.07987599998887,41.146885099995416,41.19719379999151,41.19719379999151,41.19719379999151,41.19719379999151,41.24682989998837,41.24682989998837,41.24682989998837,41.24682989998837,41.24682989998837,41.24682989998837,41.24682989998837,41.24682989998837,41.24682989998837,left,0.5702034999994794,41.84758139999758,41.84758139999758,None,,9,001,2025-12-18_14h03.29.612,2025C_exp1_comp,2022.2.4,59.777579581059115,
39.2,315,1,1,0,18,18,70,41.84758139999758,41.84758139999758,42.34808549999434,42.414780499995686,42.46509669999068,42.46509669999068,42.46509669999068,42.46509669999068,42.51457780000055,42.51457780000055,42.51457780000055,42.51457780000055,42.51457780000055,42.51457780000055,42.51457780000055,42.51457780000055,42.51457780000055,right,0.47876040000119247,43.015207399992505,43.015207399992505,None,,9,001,2025-12-18_14h03.29.612,2025C_exp1_comp,2022.2.4,59.777579581059115,
19.6,45,-1,1,0,19,19,38,43.015207399992505,43.015207399992505,43.51561550000042,43.58241759998782,43.63262409999152,43.63262409999152,43.63262409999152,43.63262409999152,43.68243970000185,43.68243970000185,43.68243970000185,43.68243970000185,43.68243970000185,43.68243970000185,43.68243970000185,43.68243970000185,43.68243970000185,right,0.46273280000605155,44.16637969999283,44.16637969999283,None,,9,001,2025-12-18_14h03.29.612,2025C_exp1_comp,2022.2.4,59.777579581059115,
22.7,45,-1,-1,0,20,20,75,44.16637969999283,44.16637969999283,44.666940299997805,44.733770599996205,44.78408539999509,44.78408539999509,44.78408539999509,44.78408539999509,44.83389480000187,44.83389480000187,44.83389480000187,44.83389480000187,44.83389480000187,44.83389480000187,44.83389480000187,44.83389480000187,44.83389480000187,right,0.5189632999972673,45.38450039998861,45.38450039998861,None,,9,001,2025-12-18_14h03.29.612,2025C_exp1_comp,2022.2.4,59.777579581059115,
12.1,315,1,-1,0,21,21,99,45.38450039998861,45.38450039998861,45.885064799993415,45.951807599994936,46.00212579999061,46.00212579999061,46.00212579999061,46.00212579999061,46.051631199996336,46.051631199996336,46.051631199996336,46.051631199996336,46.051631199996336,46.051631199996336,46.051631199996336,46.051631199996336,46.051631199996336,left,0.5329065000114497,46.6020523999905,46.6020523999905,None,,9,001,2025-12-18_14h03.29.612,2025C_exp1_comp,2022.2.4,59.777579581059115,
42.7,315,-1,1,0,22,22,53,46.6020523999905,46.6020523999905,47.10292369998933,47.16938880000089,47.21976759999234,47.21976759999234,47.21976759999234,47.21976759999234,47.26965289999498,47.26965289999498,47.26965289999498,47.26965289999498,47.26965289999498,47.26965289999498,47.26965289999498,47.26965289999498,47.26965289999498,right,0.8441368999920087,48.13714289999916,48.13714289999916,None,,9,001,2025-12-18_14h03.29.612,2025C_exp1_comp,2022.2.4,59.777579581059115,
29.4,315,1,0,0,23,23,32,48.13714289999916,48.13714289999916,48.63770849999855,48.70443339999474,48.75463640000089,48.75463640000089,48.75463640000089,48.75463640000089,48.80448520000209,48.80448520000209,48.80448520000209,48.80448520000209,48.80448520000209,48.80448520000209,48.80448520000209,48.80448520000209,48.80448520000209,right,0.5963100999942981,49.42183429999568,49.42183429999568,None,,9,001,2025-12-18_14h03.29.612,2025C_exp1_comp,2022.2.4,59.777579581059115,
25.5,45,1,0,0,24,24,22,49.42183429999568,49.42183429999568,49.92229139999836,49.989013300000806,50.03937849999056,50.03937849999056,50.03937849999056,50.03937849999056,50.08893509999325,50.08893509999325,50.08893509999325,50.08893509999325,50.08893509999325,50.08893509999325,50.08893509999325,50.08893509999325,50.08893509999325,left,0.5836992999975337,50.68966009998985,50.68966009998985,None,,9,001,2025-12-18_14h03.29.612,2025C_exp1_comp,2022.2.4,59.777579581059115,
35.3,315,1,1,0,25,25,69,50.68966009998985,50.68966009998985,51.190241399992374,51.256653599994024,51.30731089999608,51.30731089999608,51.30731089999608,51.30731089999608,51.3570475000015,51.3570475000015,51.3570475000015,51.3570475000015,51.3570475000015,51.3570475000015,51.3570475000015,51.3570475000015,51.3570475000015,right,0.4517742000025464,51.84090819999983,51.84090819999983,None,,9,001,2025-12-18_14h03.29.612,2025C_exp1_comp,2022.2.4,59.777579581059115,
35.3,45,-1,1,0,26,26,42,51.84090819999983,51.84090819999983,52.34139279999363,52.40808969999489,52.458402299991576,52.458402299991576,52.458402299991576,52.458402299991576,52.50798319999012,52.50798319999012,52.50798319999012,52.50798319999012,52.50798319999012,52.50798319999012,52.50798319999012,52.50798319999012,52.50798319999012,right,0.4939122000068892,53.02532559999963,53.02532559999963,None,,9,001,2025-12-18_14h03.29.612,2025C_exp1_comp,2022.2.4,59.777579581059115,
19.6,315,1,0,0,27,27,29,53.02532559999963,53.02532559999963,53.52601409998897,53.59267739999632,53.64304640000046,53.64304640000046,53.64304640000046,53.64304640000046,53.69277449999936,53.69277449999936,53.69277449999936,53.69277449999936,53.69277449999936,53.69277449999936,53.69277449999936,53.69277449999936,53.69277449999936,left,0.5801562999986345,54.293319699994754,54.293319699994754,None,,9,001,2025-12-18_14h03.29.612,2025C_exp1_comp,2022.2.4,59.777579581059115,
15.7,315,1,-1,0,28,28,100,54.293319699994754,54.293319699994754,54.79408429999603,54.86075890000211,54.9110182000004,54.9110182000004,54.9110182000004,54.9110182000004,54.96079659998941,54.96079659998941,54.96079659998941,54.96079659998941,54.96079659998941,54.96079659998941,54.96079659998941,54.96079659998941,54.96079659998941,left,0.55207540000265,55.544542099989485,55.544542099989485,None,,9,001,2025-12-18_14h03.29.612,2025C_exp1_comp,2022.2.4,59.777579581059115,
39.2,315,-1,-1,0,29,29,88,55.544542099989485,55.544542099989485,56.04515769999125,56.11186999999336,56.16225599999598,56.16225599999598,56.16225599999598,56.16225599999598,56.21195810000063,56.21195810000063,56.21195810000063,56.21195810000063,56.21195810000063,56.21195810000063,56.21195810000063,56.21195810000063,56.21195810000063,right,0.477039599994896,56.71219989999372,56.71219989999372,None,,9,001,2025-12-18_14h03.29.612,2025C_exp1_comp,2022.2.4,59.777579581059115,
19.6,315,1,-1,0,30,30,101,56.71219989999372,56.71219989999372,57.21295459999237,57.27966379999998,57.32996399998956,57.32996399998956,57.32996399998956,57.32996399998956,57.37947189999977,57.37947189999977,57.37947189999977,57.37947189999977,57.37947189999977,57.37947189999977,57.37947189999977,57.37947189999977,57.37947189999977,left,0.5654349999967963,57.96368239998992,57.96368239998992,None,,9,001,2025-12-18_14h03.29.612,2025C_exp1_comp,2022.2.4,59.777579581059115,
15.7,45,-1,1,0,31,31,37,57.96368239998992,57.96368239998992,58.464169799990486,58.5308728999953,58.58104759998969,58.58104759998969,58.58104759998969,58.58104759998969,58.63088009999774,58.63088009999774,58.63088009999774,58.63088009999774,58.63088009999774,58.63088009999774,58.63088009999774,58.63088009999774,58.63088009999774,right,0.47535659999994095,59.13162210000155,59.13162210000155,None,,9,001,2025-12-18_14h03.29.612,2025C_exp1_comp,2022.2.4,59.777579581059115,
12.1,315,1,1,0,32,32,63,59.13162210000155,59.13162210000155,59.63200929999584,59.698702499998035,59.74887509999098,59.74887509999098,59.74887509999098,59.74887509999098,59.798820299998624,59.798820299998624,59.798820299998624,59.798820299998624,59.798820299998624,59.798820299998624,59.798820299998624,59.798820299998624,59.798820299998624,left,0.4337926000007428,60.24931429998833,60.24931429998833,None,,9,001,2025-12-18_14h03.29.612,2025C_exp1_comp,2022.2.4,59.777579581059115,
35.3,45,-1,0,0,33,33,6,60.24931429998833,60.24931429998833,60.749861099990085,60.816287399997236,60.86652859998867,60.86652859998867,60.86652859998867,60.86652859998867,60.91628559998935,60.91628559998935,60.91628559998935,60.91628559998935,60.91628559998935,60.91628559998935,60.91628559998935,60.91628559998935,60.91628559998935,left,0.5171379000094021,61.450496299992665,61.450496299992665,None,,9,001,2025-12-18_14h03.29.612,2025C_exp1_comp,2022.2.4,59.777579581059115,
15.7,315,1,0,0,34,34,28,61.450496299992665,61.450496299992665,61.951009099997464,62.01775829998951,62.06802819999575,62.06802819999575,62.06802819999575,62.06802819999575,62.11783219999052,62.11783219999052,62.11783219999052,62.11783219999052,62.11783219999052,62.11783219999052,62.11783219999052,62.11783219999052,62.11783219999052,left,0.4669831999926828,62.60164189999341,62.60164189999341,None,,9,001,2025-12-18_14h03.29.612,2025C_exp1_comp,2022.2.4,59.777579581059115,
12.1,45,1,0,0,35,35,18,62.60164189999341,62.60164189999341,63.102078700001584,63.16883840000082,63.21916209999472,63.21916209999472,63.21916209999472,63.21916209999472,63.26896969998779,63.26896969998779,63.26896969998779,63.26896969998779,63.26896969998779,63.26896969998779,63.26896969998779,63.26896969998779,63.26896969998779,left,0.5005520999984583,63.78611039998941,63.78611039998941,None,,9,001,2025-12-18_14h03.29.612,2025C_exp1_comp,2022.2.4,59.777579581059115,
35.3,315,-1,0,0,36,36,15,63.78611039998941,63.78611039998941,64.28655819999403,64.35326819999318,64.40370519999124,64.40370519999124,64.40370519999124,64.40370519999124,64.45351929999015,64.45351929999015,64.45351929999015,64.45351929999015,64.45351929999015,64.45351929999015,64.45351929999015,64.45351929999015,64.45351929999015,right,0.5471513000084087,65.02039779999177,65.02039779999177,None,,9,001,2025-12-18_14h03.29.612,2025C_exp1_comp,2022.2.4,59.777579581059115,
19.6,315,-1,-1,0,37,37,83,65.02039779999177,65.02039779999177,65.52102479999303,65.58781779999845,65.63824499999464,65.63824499999464,65.63824499999464,65.63824499999464,65.68781529999978,65.68781529999978,65.68781529999978,65.68781529999978,65.68781529999978,65.68781529999978,65.68781529999978,65.68781529999978,65.68781529999978,right,0.5297305999993114,66.23859749999247,66.23859749999247,None,,9,001,2025-12-18_14h03.29.612,2025C_exp1_comp,2022.2.4,59.777579581059115,
15.7,315,1,1,0,38,38,64,66.23859749999247,66.23859749999247,66.7391709999938,66.8058250999893,66.85608230000071,66.85608230000071,66.85608230000071,66.85608230000071,66.90592289999768,66.90592289999768,66.90592289999768,66.90592289999768,66.90592289999768,66.90592289999768,66.90592289999768,66.90592289999768,66.90592289999768,left,0.4715840999997454,67.40630899999815,67.40630899999815,None,,9,001,2025-12-18_14h03.29.612,2025C_exp1_comp,2022.2.4,59.777579581059115,
25.5,315,-1,-1,0,39,39,85,67.40630899999815,67.40630899999815,67.90698499999417,67.97366550000152,68.02395350000006,68.02395350000006,68.02395350000006,68.02395350000006,68.07375519999187,68.07375519999187,68.07375519999187,68.07375519999187,68.07375519999187,68.07375519999187,68.07375519999187,68.07375519999187,68.07375519999187,left,0.47213840001495555,68.57428190000064,68.57428190000064,None,,9,001,2025-12-18_14h03.29.612,2025C_exp1_comp,2022.2.4,59.777579581059115,
39.2,315,-1,1,0,40,40,52,68.57428190000064,68.57428190000064,69.07472599999164,69.14124639998772,69.19173489999957,69.19173489999957,69.19173489999957,69.19173489999957,69.24148499999137,69.24148499999137,69.24148499999137,69.24148499999137,69.24148499999137,69.24148499999137,69.24148499999137,69.24148499999137,69.24148499999137,right,0.45539950000238605,69.72527619999892,69.72527619999892,None,,9,001,2025-12-18_14h03.29.612,2025C_exp1_comp,2022.2.4,59.777579581059115,
42.7,45,1,1,0,41,41,62,69.72527619999892,69.72527619999892,70.22606099999393,70.29267270000128,70.34290730000066,70.34290730000066,70.34290730000066,70.34290730000066,70.39276049999171,70.39276049999171,70.39276049999171,70.39276049999171,70.39276049999171,70.39276049999171,70.39276049999171,70.39276049999171,70.39276049999171,left,0.42529060000379104,70.84321349998936,70.84321349998936,None,,9,001,2025-12-18_14h03.29.612,2025C_exp1_comp,2022.2.4,59.777579581059115,
29.4,315,-1,-1,0,42,42,86,70.84321349998936,70.84321349998936,71.34368140000151,71.41041939999559,71.4608651999879,71.4608651999879,71.4608651999879,71.4608651999879,71.51044069998898,71.51044069998898,71.51044069998898,71.51044069998898,71.51044069998898,71.51044069998898,71.51044069998898,71.51044069998898,71.51044069998898,left,0.42744080000557005,71.96100559999468,71.96100559999468,None,,9,001,2025-12-18_14h03.29.612,2025C_exp1_comp,2022.2.4,59.777579581059115,
25.5,45,1,1,0,43,43,58,71.96100559999468,71.96100559999468,72.46153919999779,72.5280730999948,72.57826609999756,72.57826609999756,72.57826609999756,72.57826609999756,72.62802779999038,72.62802779999038,72.62802779999038,72.62802779999038,72.62802779999038,72.62802779999038,72.62802779999038,72.62802779999038,72.62802779999038,right,0.40474189999804366,73.061781899989,73.061781899989,None,,9,001,2025-12-18_14h03.29.612,2025C_exp1_comp,2022.2.4,59.777579581059115,
12.1,315,1,0,0,44,44,27,73.061781899989,73.061781899989,73.56230249999498,73.62900909999735,73.6793217999948,73.6793217999948,73.6793217999948,73.6793217999948,73.72909729999083,73.72909729999083,73.72909729999083,73.72909729999083,73.72909729999083,73.72909729999083,73.72909729999083,73.72909729999083,73.72909729999083,left,0.38337130000581965,74.12947269999131,74.12947269999131,None,,9,001,2025-12-18_14h03.29.612,2025C_exp1_comp,2022.2.4,59.777579581059115,
29.4,45,-1,0,0,45,45,5,74.12947269999131,74.12947269999131,74.63032229999953,74.69698589999462,74.74750129999302,74.74750129999302,74.74750129999302,74.74750129999302,74.79696059999696,74.79696059999696,74.79696059999696,74.79696059999696,74.79696059999696,74.79696059999696,74.79696059999696,74.79696059999696,74.79696059999696,left,0.4844774000084726,75.31419739998819,75.31419739998819,None,,9,001,2025-12-18_14h03.29.612,2025C_exp1_comp,2022.2.4,59.777579581059115,
19.6,45,-1,-1,0,46,46,74,75.31419739998819,75.31419739998819,75.81483769998886,75.88160639999842,75.93187479999324,75.93187479999324,75.93187479999324,75.93187479999324,75.98160339999595,75.98160339999595,75.98160339999595,75.98160339999595,75.98160339999595,75.98160339999595,75.98160339999595,75.98160339999595,75.98160339999595,right,0.6443849000061164,76.64885709999362,76.64885709999362,None,,9,001,2025-12-18_14h03.29.612,2025C_exp1_comp,2022.2.4,59.777579581059115,
29.4,315,1,1,0,47,47,68,76.64885709999362,76.64885709999362,77.14968969998881,77.21634199999971,77.26650159999554,77.26650159999554,77.26650159999554,77.26650159999554,77.31621069999528,77.31621069999528,77.31621069999528,77.31621069999528,77.31621069999528,77.31621069999528,77.31621069999528,77.31621069999528,77.31621069999528,right,0.4377591999946162,77.78340119999484,77.78340119999484,None,,9,001,2025-12-18_14h03.29.612,2025C_exp1_comp,2022.2.4,59.777579581059115,
35.3,315,-1,-1,0,48,48,87,77.78340119999484,77.78340119999484,78.2840498000005,78.35070309998991,78.40101439999125,78.40101439999125,78.40101439999125,78.40101439999125,78.45080399999279,78.45080399999279,78.45080399999279,78.45080399999279,78.45080399999279,78.45080399999279,78.45080399999279,78.45080399999279,78.45080399999279,right,0.4230305999953998,78.90127779998875,78.90127779998875,None,,9,001,2025-12-18_14h03.29.612,2025C_exp1_comp,2022.2.4,59.777579581059115,
15.7,315,-1,1,0,49,49,46,78.90127779998875,78.90127779998875,79.40165169999818,79.46826019999571,79.51850989999366,79.51850989999366,79.51850989999366,79.51850989999366,79.56840449999436,79.56840449999436,79.56840449999436,79.56840449999436,79.56840449999436,79.56840449999436,79.56840449999436,79.56840449999436,79.56840449999436,left,0.41701479999755975,80.00220059999265,80.00220059999265,None,,9,001,2025-12-18_14h03.29.612,2025C_exp1_comp,2022.2.4,59.777579581059115,
42.7,45,-1,0,0,50,50,8,80.00220059999265,80.00220059999265,80.50284580000152,80.56957609999517,80.61988069998915,80.61988069998915,80.61988069998915,80.61988069998915,80.66955029999372,80.66955029999372,80.66955029999372,80.66955029999372,80.66955029999372,80.66955029999372,80.66955029999372,80.66955029999372,80.66955029999372,left,0.476495499999146,81.17021689999092,81.17021689999092,None,,9,001,2025-12-18_14h03.29.612,2025C_exp1_comp,2022.2.4,59.777579581059115,
42.7,315,1,0,0,51,51,35,81.17021689999092,81.17021689999092,81.67068869998911,81.73737649999384,81.78773359999468,81.78773359999468,81.78773359999468,81.78773359999468,81.83728349999001,81.83728349999001,81.83728349999001,81.83728349999001,81.83728349999001,81.83728349999001,81.83728349999001,81.83728349999001,81.83728349999001,right,0.46106240000517573,82.32137459999649,82.32137459999649,None,,9,001,2025-12-18_14h03.29.612,2025C_exp1_comp,2022.2.4,59.777579581059115,
25.5,45,-1,-1,0,52,52,76,82.32137459999649,82.32137459999649,82.8218940999941,82.88848539999162,82.93884429999162,82.93884429999162,82.93884429999162,82.93884429999162,82.98873559999629,82.98873559999629,82.98873559999629,82.98873559999629,82.98873559999629,82.98873559999629,82.98873559999629,82.98873559999629,82.98873559999629,right,0.41251150000607595,83.42248179999297,83.42248179999297,None,,9,001,2025-12-18_14h03.29.612,2025C_exp1_comp,2022.2.4,59.777579581059115,
39.2,315,-1,0,0,53,53,16,83.42248179999297,83.42248179999297,83.92290109999885,83.98962059999758,84.04000319998886,84.04000319998886,84.04000319998886,84.04000319998886,84.08979849999014,84.08979849999014,84.08979849999014,84.08979849999014,84.08979849999014,84.08979849999014,84.08979849999014,84.08979849999014,84.08979849999014,right,0.576032099997974,84.69039839999459,84.69039839999459,None,,9,001,2025-12-18_14h03.29.612,2025C_exp1_comp,2022.2.4,59.777579581059115,
35.3,315,1,-1,0,54,54,105,84.69039839999459,84.69039839999459,85.19094979998772,85.25752109999303,85.30795589998888,85.30795589998888,85.30795589998888,85.30795589998888,85.35767929999565,85.35767929999565,85.35767929999565,85.35767929999565,85.35767929999565,85.35767929999565,85.35767929999565,85.35767929999565,85.35767929999565,left,1.179440899999463,86.55904219999502,86.55904219999502,None,,9,001,2025-12-18_14h03.29.612,2025C_exp1_comp,2022.2.4,59.777579581059115,
19.6,45,-1,0,0,55,55,2,86.55904219999502,86.55904219999502,87.0593063999986,87.12615089998872,87.17637599998852,87.17637599998852,87.17637599998852,87.17637599998852,87.22602119999647,87.22602119999647,87.22602119999647,87.22602119999647,87.22602119999647,87.22602119999647,87.22602119999647,87.22602119999647,87.22602119999647,right,0.7435988999932306,87.99365099999704,87.99365099999704,None,,9,001,2025-12-18_14h03.29.612,2025C_exp1_comp,2022.2.4,59.777579581059115,
15.7,45,-1,-1,0,56,56,73,87.99365099999704,87.99365099999704,88.4941950999928,88.5609090999933,88.6112209999992,88.6112209999992,88.6112209999992,88.6112209999992,88.66095989999303,88.66095989999303,88.66095989999303,88.66095989999303,88.66095989999303,88.66095989999303,88.66095989999303,88.66095989999303,88.66095989999303,right,0.5247511000052327,89.21160349999263,89.21160349999263,None,,9,001,2025-12-18_14h03.29.612,2025C_exp1_comp,2022.2.4,59.777579581059115,
15.7,45,1,1,0,57,57,55,89.21160349999263,89.21160349999263,89.71227530000033,89.7789938999922,89.82905479999317,89.82905479999317,89.82905479999317,89.82905479999317,89.87864669998817,89.87864669998817,89.87864669998817,89.87864669998817,89.87864669998817,89.87864669998817,89.87864669998817,89.87864669998817,89.87864669998817,left,0.5464334999996936,90.44612459999917,90.44612459999917,None,,9,001,2025-12-18_14h03.29.612,2025C_exp1_comp,2022.2.4,59.777579581059115,
22.7,315,-1,1,0,58,58,48,90.44612459999917,90.44612459999917,90.9467227999994,91.01346619999094,91.06367859999591,91.06367859999591,91.06367859999591,91.06367859999591,91.11312829999952,91.11312829999952,91.11312829999952,91.11312829999952,91.11312829999952,91.11312829999952,91.11312829999952,91.11312829999952,91.11312829999952,right,0.49668569999630563,91.63044629999786,91.63044629999786,None,,9,001,2025-12-18_14h03.29.612,2025C_exp1_comp,2022.2.4,59.777579581059115,
22.7,315,-1,0,0,59,59,12,91.63044629999786,91.63044629999786,92.13103209999099,92.19783449999522,92.2481398999953,92.2481398999953,92.2481398999953,92.2481398999953,92.29797099999269,92.29797099999269,92.29797099999269,92.29797099999269,92.29797099999269,92.29797099999269,92.29797099999269,92.29797099999269,92.29797099999269,right,0.439165600007982,92.765109999993,92.765109999993,None,,9,001,2025-12-18_14h03.29.612,2025C_exp1_comp,2022.2.4,59.777579581059115,
22.7,45,1,0,0,60,60,21,92.765109999993,92.765109999993,93.26562559999002,93.33221789999516,93.38265229998797,93.38265229998797,93.38265229998797,93.38265229998797,93.43243689999508,93.43243689999508,93.43243689999508,93.43243689999508,93.43243689999508,93.43243689999508,93.43243689999508,93.43243689999508,93.43243689999508,left,0.560411300015403,94.01607919999515,94.01607919999515,None,,9,001,2025-12-18_14h03.29.612,2025C_exp1_comp,2022.2.4,59.777579581059115,
39.2,45,1,1,0,61,61,61,94.01607919999515,94.01607919999515,94.51677419999032,94.58353170000191,94.63396909998846,94.63396909998846,94.63396909998846,94.63396909998846,94.68375209999795,94.68375209999795,94.68375209999795,94.68375209999795,94.68375209999795,94.68375209999795,94.68375209999795,94.68375209999795,94.68375209999795,left,0.5894953000097303,95.30096749999211,95.30096749999211,None,,9,001,2025-12-18_14h03.29.612,2025C_exp1_comp,2022.2.4,59.777579581059115,
12.1,45,1,1,0,62,62,54,95.30096749999211,95.30096749999211,95.8015255999926,95.86810199999309,95.91835159999027,95.91835159999027,95.91835159999027,95.91835159999027,95.96830690000206,95.96830690000206,95.96830690000206,95.96830690000206,95.96830690000206,95.96830690000206,95.96830690000206,95.96830690000206,95.96830690000206,left,0.4969977000000654,96.4855036999943,96.4855036999943,None,,9,001,2025-12-18_14h03.29.612,2025C_exp1_comp,2022.2.4,59.777579581059115,
12.1,45,1,-1,0,63,63,90,96.4855036999943,96.4855036999943,96.98595869999554,97.0527044999908,97.10292369998933,97.10292369998933,97.10292369998933,97.10292369998933,97.1528285999957,97.1528285999957,97.1528285999957,97.1528285999957,97.1528285999957,97.1528285999957,97.1528285999957,97.1528285999957,97.1528285999957,left,0.5127113999915309,97.68662269999913,97.68662269999913,None,,9,001,2025-12-18_14h03.29.612,2025C_exp1_comp,2022.2.4,59.777579581059115,
35.3,315,-1,1,0,64,64,51,97.68662269999913,97.68662269999913,98.18727329999092,98.25388419999217,98.30426509999961,98.30426509999961,98.30426509999961,98.30426509999961,98.35401099998853,98.35401099998853,98.35401099998853,98.35401099998853,98.35401099998853,98.35401099998853,98.35401099998853,98.35401099998853,98.35401099998853,right,0.5920232999924337,98.97131969999464,98.97131969999464,None,,9,001,2025-12-18_14h03.29.612,2025C_exp1_comp,2022.2.4,59.777579581059115,
22.7,315,1,0,0,65,65,30,98.97131969999464,98.97131969999464,99.47184859999106,99.53857229999267,99.58878609999374,99.58878609999374,99.58878609999374,99.58878609999374,99.63860599999316,99.63860599999316,99.63860599999316,99.63860599999316,99.63860599999316,99.63860599999316,99.63860599999316,99.63860599999316,99.63860599999316,left,0.5622866000048816,100.22225969999272,100.22225969999272,None,,9,001,2025-12-18_14h03.29.612,2025C_exp1_comp,2022.2.4,59.777579581059115,
12.1,45,-1,-1,0,66,66,72,100.22225969999272,100.22225969999272,100.72309849999147,100.7898978000012,100.84008589999576,100.84008589999576,100.84008589999576,100.84008589999576,100.88980059999449,100.88980059999449,100.88980059999449,100.88980059999449,100.88980059999449,100.88980059999449,100.88980059999449,100.88980059999449,100.88980059999449,right,0.49607409999589436,101.40705579999485,101.40705579999485,None,,9,001,2025-12-18_14h03.29.612,2025C_exp1_comp,2022.2.4,59.777579581059115,
25.5,45,-1,0,0,67,67,4,101.40705579999485,101.40705579999485,101.90756969999347,101.9743354999955,102.02458679999108,102.02458679999108,102.02458679999108,102.02458679999108,102.07427329999337,102.07427329999337,102.07427329999337,102.07427329999337,102.07427329999337,102.07427329999337,102.07427329999337,102.07427329999337,102.07427329999337,left,0.5362400000012713,102.6413171999884,102.6413171999884,None,,9,001,2025-12-18_14h03.29.612,2025C_exp1_comp,2022.2.4,59.777579581059115,
12.1,315,-1,-1,0,68,68,81,102.6413171999884,102.6413171999884,103.14185879999422,103.20851499999117,103.25891530000081,103.25891530000081,103.25891530000081,103.25891530000081,103.30862679998972,103.30862679998972,103.30862679998972,103.30862679998972,103.30862679998972,103.30862679998972,103.30862679998972,103.30862679998972,103.30862679998972,right,0.46065409999573603,103.7924309999944,103.7924309999944,None,,9,001,2025-12-18_14h03.29.612,2025C_exp1_comp,2022.2.4,59.777579581059115,
35.3,45,-1,-1,0,69,69,78,103.7924309999944,103.7924309999944,104.29322749999119,104.35970479999378,104.4100987999991,104.4100987999991,104.4100987999991,104.4100987999991,104.46013409999432,104.46013409999432,104.46013409999432,104.46013409999432,104.46013409999432,104.46013409999432,104.46013409999432,104.46013409999432,104.46013409999432,right,0.4768527999985963,104.96064079999633,104.96064079999633,None,,9,001,2025-12-18_14h03.29.612,2025C_exp1_comp,2022.2.4,59.777579581059115,
35.3,45,1,-1,0,70,70,96,104.96064079999633,104.96064079999633,105.46111179998843,105.52782579998893,105.57813480000186,105.57813480000186,105.57813480000186,105.57813480000186,105.62781890000042,105.62781890000042,105.62781890000042,105.62781890000042,105.62781890000042,105.62781890000042,105.62781890000042,105.62781890000042,105.62781890000042,left,0.5168497999984538,106.16166220000014,106.16166220000014,None,,9,001,2025-12-18_14h03.29.612,2025C_exp1_comp,2022.2.4,59.777579581059115,
12.1,315,-1,0,0,71,71,9,106.16166220000014,106.16166220000014,106.66244099999312,106.72917619999498,106.77937740000198,106.77937740000198,106.77937740000198,106.77937740000198,106.82904899999266,106.82904899999266,106.82904899999266,106.82904899999266,106.82904899999266,106.82904899999266,106.82904899999266,106.82904899999266,106.82904899999266,right,0.3963709000090603,107.2462322999927,107.2462322999927,None,,9,001,2025-12-18_14h03.29.612,2025C_exp1_comp,2022.2.4,59.777579581059115,
22.7,45,-1,0,0,72,72,3,107.2462322999927,107.2462322999927,107.74677259998862,107.81343379999453,107.86374909999722,107.86374909999722,107.86374909999722,107.86374909999722,107.91356190000079,107.91356190000079,107.91356190000079,107.91356190000079,107.91356190000079,107.91356190000079,107.91356190000079,107.91356190000079,107.91356190000079,right,0.471282099999371,108.41399869999441,108.41399869999441,None,,9,001,2025-12-18_14h03.29.612,2025C_exp1_comp,2022.2.4,59.777579581059115,
22.7,45,1,1,0,73,73,57,108.41399869999441,108.41399869999441,108.91449539999303,108.98134800000116,109.0314856999903,109.0314856999903,109.0314856999903,109.0314856999903,109.08145579999837,109.08145579999837,109.08145579999837,109.08145579999837,109.08145579999837,109.08145579999837,109.08145579999837,109.08145579999837,109.08145579999837,left,0.5514650999975856,109.66521229999489,109.66521229999489,None,,9,001,2025-12-18_14h03.29.612,2025C_exp1_comp,2022.2.4,59.777579581059115,
42.7,315,-1,-1,0,74,74,89,109.66521229999489,109.66521229999489,110.1657997000002,110.23256219999166,110.28286669999943,110.28286669999943,110.28286669999943,110.28286669999943,110.33250530000078,110.33250530000078,110.33250530000078,110.33250530000078,110.33250530000078,110.33250530000078,110.33250530000078,110.33250530000078,110.33250530000078,right,0.42963379999855533,110.78322919999482,110.78322919999482,None,,9,001,2025-12-18_14h03.29.612,2025C_exp1_comp,2022.2.4,59.777579581059115,
42.7,45,-1,-1,0,75,75,80,110.78322919999482,110.78322919999482,111.28348729999561,111.35031309998885,111.4005204999994,111.4005204999994,111.4005204999994,111.4005204999994,111.45041389999096,111.45041389999096,111.45041389999096,111.45041389999096,111.45041389999096,111.45041389999096,111.45041389999096,111.45041389999096,111.45041389999096,left,0.4475145999895176,111.91750769999635,111.91750769999635,None,,9,001,2025-12-18_14h03.29.612,2025C_exp1_comp,2022.2.4,59.777579581059115,
39.2,45,1,0,0,76,76,25,111.91750769999635,111.91750769999635,112.4180567000003,112.48478899999463,112.53508729999885,112.53508729999885,112.53508729999885,112.53508729999885,112.58485439998913,112.58485439998913,112.58485439998913,112.58485439998913,112.58485439998913,112.58485439998913,112.58485439998913,112.58485439998913,112.58485439998913,right,0.4810301999968942,113.08543639999698,113.08543639999698,None,,9,001,2025-12-18_14h03.29.612,2025C_exp1_comp,2022.2.4,59.777579581059115,
19.6,45,1,1,0,77,77,56,113.08543639999698,113.08543639999698,113.58581809999305,113.65266559999145,113.70292389999668,113.70292389999668,113.70292389999668,113.70292389999668,113.7527354999911,113.7527354999911,113.7527354999911,113.7527354999911,113.7527354999911,113.7527354999911,113.7527354999911,113.7527354999911,113.7527354999911,left,0.5049956000002567,114.28661949999514,114.28661949999514,None,,9,001,2025-12-18_14h03.29.612,2025C_exp1_comp,2022.2.4,59.777579581059115,
39.2,315,1,0,0,78,78,34,114.28661949999514,114.28661949999514,114.786924,114.85379670000111,114.90410309999424,114.90410309999424,114.90410309999424,114.90410309999424,114.95392799998808,114.95392799998808,114.95392799998808,114.95392799998808,114.95392799998808,114.95392799998808,114.95392799998808,114.95392799998808,114.95392799998808,left,0.599498700001277,115.57113299999037,115.57113299999037,None,,9,001,2025-12-18_14h03.29.612,2025C_exp1_comp,2022.2.4,59.777579581059115,
42.7,45,1,-1,0,79,79,98,115.57113299999037,115.57113299999037,116.07175869999628,116.13846839999314,116.18880869999703,116.18880869999703,116.18880869999703,116.18880869999703,116.23846379999304,116.23846379999304,116.23846379999304,116.23846379999304,116.23846379999304,116.23846379999304,116.23846379999304,116.23846379999304,116.23846379999304,left,0.5470159000105923,116.80567950000113,116.80567950000113,None,,9,001,2025-12-18_14h03.29.612,2025C_exp1_comp,2022.2.4,59.777579581059115,
42.7,315,-1,0,0,80,80,17,116.80567950000113,116.80567950000113,117.30633680000028,117.37297009999747,117.42334799999662,117.42334799999662,117.42334799999662,117.42334799999662,117.47300529999484,117.47300529999484,117.47300529999484,117.47300529999484,117.47300529999484,117.47300529999484,117.47300529999484,117.47300529999484,117.47300529999484,left,0.5842046000034316,118.07365869999921,118.07365869999921,None,,9,001,2025-12-18_14h03.29.612,2025C_exp1_comp,2022.2.4,59.777579581059115,
22.7,315,-1,-1,0,81,81,84,118.07365869999921,118.07365869999921,118.57434379999177,118.64097939999192,118.69135169999208,118.69135169999208,118.69135169999208,118.69135169999208,118.7411371999915,118.7411371999915,118.7411371999915,118.7411371999915,118.7411371999915,118.7411371999915,118.7411371999915,118.7411371999915,118.7411371999915,right,0.48411019999184646,119.24174029999995,119.24174029999995,None,,9,001,2025-12-18_14h03.29.612,2025C_exp1_comp,2022.2.4,59.777579581059115,
19.6,45,1,0,0,82,82,20,119.24174029999995,119.24174029999995,119.7420967999933,119.80869779999193,119.85898369998904,119.85898369998904,119.85898369998904,119.85898369998904,119.90890450000006,119.90890450000006,119.90890450000006,119.90890450000006,119.90890450000006,119.90890450000006,119.90890450000006,119.90890450000006,119.90890450000006,left,0.6036908000096446,120.54268600000069,120.54268600000069,None,,9,001,2025-12-18_14h03.29.612,2025C_exp1_comp,2022.2.4,59.777579581059115,
25.5,45,-1,1,0,83,83,40,120.54268600000069,120.54268600000069,121.04315959999803,121.11010029999306,121.16030109999701,121.16030109999701,121.16030109999701,121.16030109999701,121.21017349998874,121.21017349998874,121.21017349998874,121.21017349998874,121.21017349998874,121.21017349998874,121.21017349998874,121.21017349998874,121.21017349998874,right,0.5027352000033716,121.74414280000201,121.74414280000201,None,,9,001,2025-12-18_14h03.29.612,2025C_exp1_comp,2022.2.4,59.777579581059115,
22.7,315,1,-1,0,84,84,102,121.74414280000201,121.74414280000201,122.2445458000002,122.31128189999436,122.36148379999213,122.36148379999213,122.36148379999213,122.36148379999213,122.41134299999976,122.41134299999976,122.41134299999976,122.41134299999976,122.41134299999976,122.41134299999976,122.41134299999976,122.41134299999976,122.41134299999976,left,0.5906193999981042,123.0286294999969,123.0286294999969,None,,9,001,2025-12-18_14h03.29.612,2025C_exp1_comp,2022.2.4,59.777579581059115,
12.1,45,-1,0,0,85,85,0,123.0286294999969,123.0286294999969,123.52922849998868,123.59579169999051,123.64607129999786,123.64607129999786,123.64607129999786,123.64607129999786,123.69592149999517,123.69592149999517,123.69592149999517,123.69592149999517,123.69592149999517,123.69592149999517,123.69592149999517,123.69592149999517,123.69592149999517,right,0.4970321000000695,124.21324800000002,124.21324800000002,None,,9,001,2025-12-18_14h03.29.612,2025C_exp1_comp,2022.2.4,59.777579581059115,
15.7,315,-1,0,0,86,86,10,124.21324800000002,124.21324800000002,124.71354199999769,124.78032539998821,124.83055139999487,124.83055139999487,124.83055139999487,124.83055139999487,124.88052089999837,124.88052089999837,124.88052089999837,124.88052089999837,124.88052089999837,124.88052089999837,124.88052089999837,124.88052089999837,124.88052089999837,right,0.4962853000033647,125.397702199989,125.397702199989,None,,9,001,2025-12-18_14h03.29.612,2025C_exp1_comp,2022.2.4,59.777579581059115,
29.4,315,1,-1,0,87,87,104,125.397702199989,125.397702199989,125.8982560000004,125.96495299998787,126.0151191999903,126.0151191999903,126.0151191999903,126.0151191999903,126.06502559999353,126.06502559999353,126.06502559999353,126.06502559999353,126.06502559999353,126.06502559999353,126.06502559999353,126.06502559999353,126.06502559999353,left,0.5996291000046767,126.68219769999268,126.68219769999268,None,,9,001,2025-12-18_14h03.29.612,2025C_exp1_comp,2022.2.4,59.777579581059115,
25.5,315,-1,1,0,88,88,49,126.68219769999268,126.68219769999268,127.18283659999724,127.24924309999915,127.30000799999107,127.30000799999107,127.30000799999107,127.30000799999107,127.34962409999571,127.34962409999571,127.34962409999571,127.34962409999571,127.34962409999571,127.34962409999571,127.34962409999571,127.34962409999571,127.34962409999571,right,0.4752937000012025,127.85001670000202,127.85001670000202,None,,9,001,2025-12-18_14h03.29.612,2025C_exp1_comp,2022.2.4,59.777579581059115,
29.4,315,-1,1,0,89,89,50,127.85001670000202,127.85001670000202,128.35056710000208,128.41731549998804,128.46770649999962,128.46770649999962,128.46770649999962,128.46770649999962,128.5174973999965,128.5174973999965,128.5174973999965,128.5174973999965,128.5174973999965,128.5174973999965,128.5174973999965,128.5174973999965,128.5174973999965,right,0.46784470000420697,129.01784549999866,129.01784549999866,None,,9,001,2025-12-18_14h03.29.612,2025C_exp1_comp,2022.2.4,59.777579581059115,
19.6,315,1,1,0,90,90,65,129.01784549999866,129.01784549999866,129.51851969999552,129.58532620000187,129.63563419999264,129.63563419999264,129.63563419999264,129.63563419999264,129.68523189998814,129.68523189998814,129.68523189998814,129.68523189998814,129.68523189998814,129.68523189998814,129.68523189998814,129.68523189998814,129.68523189998814,left,0.5644033999997191,130.2693705999991,130.2693705999991,None,,9,001,2025-12-18_14h03.29.612,2025C_exp1_comp,2022.2.4,59.777579581059115,
19.6,315,-1,1,0,91,91,47,130.2693705999991,130.2693705999991,130.76968589999888,130.83645639999304,130.88675499999954,130.88675499999954,130.88675499999954,130.88675499999954,130.9365839999955,130.9365839999955,130.9365839999955,130.9365839999955,130.9365839999955,130.9365839999955,130.9365839999955,130.9365839999955,130.9365839999955,right,0.440095800004201,131.40367419998802,131.40367419998802,None,,9,001,2025-12-18_14h03.29.612,2025C_exp1_comp,2022.2.4,59.777579581059115,
29.4,315,-1,0,0,92,92,14,131.40367419998802,131.40367419998802,131.9041797999962,131.97090649999154,132.02122339999187,132.02122339999187,132.02122339999187,132.02122339999187,132.07105749999755,132.07105749999755,132.07105749999755,132.07105749999755,132.07105749999755,132.07105749999755,132.07105749999755,132.07105749999755,132.07105749999755,left,0.5543898000032641,132.65477429999737,132.65477429999737,None,,9,001,2025-12-18_14h03.29.612,2025C_exp1_comp,2022.2.4,59.777579581059115,
25.5,315,1,0,0,93,93,31,132.65477429999737,132.65477429999737,133.15517309999268,133.2218595000013,133.27218499999435,133.27218499999435,133.27218499999435,133.27218499999435,133.32194699998945,133.32194699998945,133.32194699998945,133.32194699998945,133.32194699998945,133.32194699998945,133.32194699998945,133.32194699998945,133.32194699998945,right,0.5514202000049409,133.90587259999302,133.90587259999302,None,,9,001,2025-12-18_14h03.29.612,2025C_exp1_comp,2022.2.4,59.777579581059115,
39.2,315,1,-1,0,94,94,106,133.90587259999302,133.90587259999302,134.40668479999295,134.47342129999015,134.52369899999758,134.52369899999758,134.52369899999758,134.52369899999758,134.5735268999997,134.5735268999997,134.5735268999997,134.5735268999997,134.5735268999997,134.5735268999997,134.5735268999997,134.5735268999997,134.5735268999997,left,0.45958389999577776,135.0574673999945,135.0574673999945,None,,9,001,2025-12-18_14h03.29.612,2025C_exp1_comp,2022.2.4,59.777579581059115,
25.5,315,1,1,0,95,95,67,135.0574673999945,135.0574673999945,135.55786319999606,135.6246444999997,135.67489589999605,135.67489589999605,135.67489589999605,135.67489589999605,135.72470029999386,135.72470029999386,135.72470029999386,135.72470029999386,135.72470029999386,135.72470029999386,135.72470029999386,135.72470029999386,135.72470029999386,right,0.44511129999591503,136.191788799988,136.191788799988,None,,9,001,2025-12-18_14h03.29.612,2025C_exp1_comp,2022.2.4,59.777579581059115,
19.6,45,1,-1,0,96,96,92,136.191788799988,136.191788799988,136.69234139999026,136.75905019999482,136.8092697999964,136.8092697999964,136.8092697999964,136.8092697999964,136.85900379999657,136.85900379999657,136.85900379999657,136.85900379999657,136.85900379999657,136.85900379999657,136.85900379999657,136.85900379999657,136.85900379999657,left,0.5179001000069547,137.4095629999938,137.4095629999938,None,,9,001,2025-12-18_14h03.29.612,2025C_exp1_comp,2022.2.4,59.777579581059115,
35.3,45,1,0,0,97,97,24,137.4095629999938,137.4095629999938,137.9102380999975,137.97692669999378,138.0272255000018,138.0272255000018,138.0272255000018,138.0272255000018,138.0769014999969,138.0769014999969,138.0769014999969,138.0769014999969,138.0769014999969,138.0769014999969,138.0769014999969,138.0769014999969,138.0769014999969,right,0.5157792999962112,138.6108002999972,138.6108002999972,None,,9,001,2025-12-18_14h03.29.612,2025C_exp1_comp,2022.2.4,59.777579581059115,
12.1,315,-1,1,0,98,98,45,138.6108002999972,138.6108002999972,139.11156539998774,139.17826549999882,139.2284556999948,139.2284556999948,139.2284556999948,139.2284556999948,139.27813739998965,139.27813739998965,139.27813739998965,139.27813739998965,139.27813739998965,139.27813739998965,139.27813739998965,139.27813739998965,139.27813739998965,right,0.39472769999701995,139.69533429999137,139.69533429999137,None,,9,001,2025-12-18_14h03.29.612,2025C_exp1_comp,2022.2.4,59.777579581059115,
42.7,45,-1,1,0,99,99,44,139.69533429999137,139.69533429999137,140.19576389998838,140.26259099999152,140.31281909999961,140.31281909999961,140.31281909999961,140.31281909999961,140.36262039998837,140.36262039998837,140.36262039998837,140.36262039998837,140.36262039998837,140.36262039998837,140.36262039998837,140.36262039998837,140.36262039998837,right,0.45516549999592826,140.84625029999006,140.84625029999006,None,,9,001,2025-12-18_14h03.29.612,2025C_exp1_comp,2022.2.4,59.777579581059115,
29.4,45,-1,-1,0,100,100,77,140.84625029999006,140.84625029999006,141.34695459999784,141.41355779999867,141.46402220000164,141.46402220000164,141.46402220000164,141.46402220000164,141.51384269999107,141.51384269999107,141.51384269999107,141.51384269999107,141.51384269999107,141.51384269999107,141.51384269999107,141.51384269999107,141.51384269999107,right,0.5188596999942092,142.0641966999974,142.0641966999974,None,,9,001,2025-12-18_14h03.29.612,2025C_exp1_comp,2022.2.4,59.777579581059115,
39.2,45,-1,-1,0,101,101,79,142.0641966999974,142.0641966999974,142.56485739999334,142.63157669999055,142.6817136999889,142.6817136999889,142.6817136999889,142.6817136999889,142.73168259998783,142.73168259998783,142.73168259998783,142.73168259998783,142.73168259998783,142.73168259998783,142.73168259998783,142.73168259998783,142.73168259998783,right,0.4781132000061916,143.23207379999803,143.23207379999803,None,,9,001,2025-12-18_14h03.29.612,2025C_exp1_comp,2022.2.4,59.777579581059115,
22.7,45,-1,1,0,102,102,39,143.23207379999803,143.23207379999803,143.73271599999862,143.79926790000172,143.84943969998858,143.84943969998858,143.84943969998858,143.84943969998858,143.89947479999682,143.89947479999682,143.89947479999682,143.89947479999682,143.89947479999682,143.89947479999682,143.89947479999682,143.89947479999682,143.89947479999682,right,0.5898985999956494,144.51665169998887,144.51665169998887,None,,9,001,2025-12-18_14h03.29.612,2025C_exp1_comp,2022.2.4,59.777579581059115,
15.7,45,1,0,0,103,103,19,144.51665169998887,144.51665169998887,145.0172964999947,145.0840373999963,145.13433570000052,145.13433570000052,145.13433570000052,145.13433570000052,145.18411339999875,145.18411339999875,145.18411339999875,145.18411339999875,145.18411339999875,145.18411339999875,145.18411339999875,145.18411339999875,145.18411339999875,left,0.4494975000125123,145.65137409999443,145.65137409999443,None,,9,001,2025-12-18_14h03.29.612,2025C_exp1_comp,2022.2.4,59.777579581059115,
42.7,315,1,-1,0,104,104,107,145.65137409999443,145.65137409999443,146.15145910000138,146.21852029999718,146.26875579998887,146.26875579998887,146.26875579998887,146.26875579998887,146.31878469999356,146.31878469999356,146.31878469999356,146.31878469999356,146.31878469999356,146.31878469999356,146.31878469999356,146.31878469999356,146.31878469999356,right,0.46679710000171326,146.80259919998934,146.80259919998934,None,,9,001,2025-12-18_14h03.29.612,2025C_exp1_comp,2022.2.4,59.777579581059115,
19.6,315,-1,0,0,105,105,11,146.80259919998934,146.80259919998934,147.30304429998796,147.36968389998947,147.41994779999368,147.41994779999368,147.41994779999368,147.41994779999368,147.46959880000213,147.46959880000213,147.46959880000213,147.46959880000213,147.46959880000213,147.46959880000213,147.46959880000213,147.46959880000213,147.46959880000213,right,0.4832689000031678,147.96993399999337,147.96993399999337,None,,9,001,2025-12-18_14h03.29.612,2025C_exp1_comp,2022.2.4,59.777579581059115,
29.4,45,1,-1,0,106,106,95,147.96993399999337,147.96993399999337,148.47064429998863,148.5373724999954,148.5877577999927,148.5877577999927,148.5877577999927,148.5877577999927,148.6375912999938,148.6375912999938,148.6375912999938,148.6375912999938,148.6375912999938,148.6375912999938,148.6375912999938,148.6375912999938,148.6375912999938,left,0.548312500002794,149.20465619998868,149.20465619998868,None,,9,001,2025-12-18_14h03.29.612,2025C_exp1_comp,2022.2.4,59.777579581059115,
12.1,45,-1,1,0,107,107,36,149.20465619998868,149.20465619998868,149.70521179999923,149.77199769999424,149.82235599998967,149.82235599998967,149.82235599998967,149.82235599998967,149.87215659998765,149.87215659998765,149.87215659998765,149.87215659998765,149.87215659998765,149.87215659998765,149.87215659998765,149.87215659998765,149.87215659998765,right,0.38443970000662375,150.28927909999038,150.28927909999038,space,2.623348299995996,9,001,2025-12-18_14h03.29.612,2025C_exp1_comp,2022.2.4,59.777579581059115,
25.5,315,1,0,1,0,108,31,152.94190869999875,152.94190869999875,153.44229999999516,153.50914670000202,153.5594443000009,153.5594443000009,153.5594443000009,153.5594443000009,153.60920179999084,153.60920179999084,153.60920179999084,153.60920179999084,153.60920179999084,153.60920179999084,153.60920179999084,153.60920179999084,153.60920179999084,left,0.5039219000027515,154.14309610000055,154.14309610000055,None,,9,001,2025-12-18_14h03.29.612,2025C_exp1_comp,2022.2.4,59.777579581059115,
15.7,45,-1,-1,1,1,109,73,154.14309610000055,154.14309610000055,154.64367910000146,154.7104102000012,154.7607726999995,154.7607726999995,154.7607726999995,154.7607726999995,154.81053019998944,154.81053019998944,154.81053019998944,154.81053019998944,154.81053019998944,154.81053019998944,154.81053019998944,154.81053019998944,154.81053019998944,right,0.47813630000746343,155.31092879999778,155.31092879999778,None,,9,001,2025-12-18_14h03.29.612,2025C_exp1_comp,2022.2.4,59.777579581059115,
22.7,315,-1,-1,1,2,110,84,155.31092879999778,155.31092879999778,155.81148259999463,155.87824309999996,155.92860309999378,155.92860309999378,155.92860309999378,155.92860309999378,155.97839309999836,155.97839309999836,155.97839309999836,155.97839309999836,155.97839309999836,155.97839309999836,155.97839309999836,155.97839309999836,155.97839309999836,right,0.39862259999790695,156.39513659999648,156.39513659999648,None,,9,001,2025-12-18_14h03.29.612,2025C_exp1_comp,2022.2.4,59.777579581059115,
29.4,315,-1,1,1,3,111,50,156.39513659999648,156.39513659999648,156.8957448000001,156.96256960000028,157.01274179999018,157.01274179999018,157.01274179999018,157.01274179999018,157.06257419999747,157.06257419999747,157.06257419999747,157.06257419999747,157.06257419999747,157.06257419999747,157.06257419999747,157.06257419999747,157.06257419999747,right,0.3711777999997139,157.4631156999967,157.4631156999967,None,,9,001,2025-12-18_14h03.29.612,2025C_exp1_comp,2022.2.4,59.777579581059115,
35.3,315,1,1,1,4,112,69,157.4631156999967,157.4631156999967,157.9636196999927,158.03012209999724,158.08050070000172,158.08050070000172,158.08050070000172,158.08050070000172,158.13043279999692,158.13043279999692,158.13043279999692,158.13043279999692,158.13043279999692,158.13043279999692,158.13043279999692,158.13043279999692,158.13043279999692,right,0.40730999999505,158.5641362999886,158.5641362999886,None,,9,001,2025-12-18_14h03.29.612,2025C_exp1_comp,2022.2.4,59.777579581059115,
29.4,315,-1,0,1,5,113,14,158.5641362999886,158.5641362999886,159.06468719999248,159.13137289999577,159.18136079999385,159.18136079999385,159.18136079999385,159.18136079999385,159.23151829998824,159.23151829998824,159.23151829998824,159.23151829998824,159.23151829998824,159.23151829998824,159.23151829998824,159.23151829998824,159.23151829998824,right,0.505957400004263,159.7653583999927,159.7653583999927,None,,9,001,2025-12-18_14h03.29.612,2025C_exp1_comp,2022.2.4,59.777579581059115,
19.6,45,-1,-1,1,6,114,74,159.7653583999927,159.7653583999927,160.26577069998893,160.33258809999097,160.3828768999956,160.3828768999956,160.3828768999956,160.3828768999956,160.43247109999356,160.43247109999356,160.43247109999356,160.43247109999356,160.43247109999356,160.43247109999356,160.43247109999356,160.43247109999356,160.43247109999356,right,0.4243600000045262,160.88311229999817,160.88311229999817,None,,9,001,2025-12-18_14h03.29.612,2025C_exp1_comp,2022.2.4,59.777579581059115,
29.4,45,1,0,1,7,115,23,160.88311229999817,160.88311229999817,161.3834627999895,161.45011890000023,161.5008581000002,161.5008581000002,161.5008581000002,161.5008581000002,161.55033129999356,161.55033129999356,161.55033129999356,161.55033129999356,161.55033129999356,161.55033129999356,161.55033129999356,161.55033129999356,161.55033129999356,left,0.49160370000754483,162.06763520000095,162.06763520000095,None,,9,001,2025-12-18_14h03.29.612,2025C_exp1_comp,2022.2.4,59.777579581059115,
29.4,45,-1,-1,1,8,116,77,162.06763520000095,162.06763520000095,162.56786399999692,162.63458659999014,162.68492020000122,162.68492020000122,162.68492020000122,162.68492020000122,162.73471219999192,162.73471219999192,162.73471219999192,162.73471219999192,162.73471219999192,162.73471219999192,162.73471219999192,162.73471219999192,162.73471219999192,right,0.5224257999943802,163.28530099999625,163.28530099999625,None,,9,001,2025-12-18_14h03.29.612,2025C_exp1_comp,2022.2.4,59.777579581059115,
15.7,45,-1,0,1,9,117,1,163.28530099999625,163.28530099999625,163.7857995999948,163.85245399999258,163.90276349999476,163.90276349999476,163.90276349999476,163.90276349999476,163.95254109999223,163.95254109999223,163.95254109999223,163.95254109999223,163.95254109999223,163.95254109999223,163.95254109999223,163.95254109999223,163.95254109999223,right,0.44846630000392906,164.42000420000113,164.42000420000113,None,,9,001,2025-12-18_14h03.29.612,2025C_exp1_comp,2022.2.4,59.777579581059115,
12.1,315,1,0,1,10,118,27,164.42000420000113,164.42000420000113,164.92038749999483,164.98719210000127,165.03739729999506,165.03739729999506,165.03739729999506,165.03739729999506,165.08721589999914,165.08721589999914,165.08721589999914,165.08721589999914,165.08721589999914,165.08721589999914,165.08721589999914,165.08721589999914,165.08721589999914,left,0.49067850000574253,165.60438129999966,165.60438129999966,None,,9,001,2025-12-18_14h03.29.612,2025C_exp1_comp,2022.2.4,59.777579581059115,
19.6,45,1,0,1,11,119,20,165.60438129999966,165.60438129999966,166.10499649999838,166.1717370999977,166.2220643999899,166.2220643999899,166.2220643999899,166.2220643999899,166.27168739998888,166.27168739998888,166.27168739998888,166.27168739998888,166.27168739998888,166.27168739998888,166.27168739998888,166.27168739998888,166.27168739998888,left,0.4888225000031525,166.7891313,166.7891313,None,,9,001,2025-12-18_14h03.29.612,2025C_exp1_comp,2022.2.4,59.777579581059115,
22.7,45,1,1,1,12,120,57,166.7891313,166.7891313,167.28971069998806,167.35620009999548,167.40654959999665,167.40654959999665,167.40654959999665,167.40654959999665,167.4563843999931,167.4563843999931,167.4563843999931,167.4563843999931,167.4563843999931,167.4563843999931,167.4563843999931,167.4563843999931,167.4563843999931,left,0.4255132000107551,167.90678109999862,167.90678109999862,None,,9,001,2025-12-18_14h03.29.612,2025C_exp1_comp,2022.2.4,59.777579581059115,
35.3,45,1,0,1,13,121,24,167.90678109999862,167.90678109999862,168.407312299998,168.47404580000148,168.52420669999265,168.52420669999265,168.52420669999265,168.52420669999265,168.57416959998955,168.57416959998955,168.57416959998955,168.57416959998955,168.57416959998955,168.57416959998955,168.57416959998955,168.57416959998955,168.57416959998955,right,0.4756370999966748,169.07464659999823,169.07464659999823,None,,9,001,2025-12-18_14h03.29.612,2025C_exp1_comp,2022.2.4,59.777579581059115,
25.5,45,-1,1,1,14,122,40,169.07464659999823,169.07464659999823,169.5753079999995,169.64191789999313,169.69234649999999,169.69234649999999,169.69234649999999,169.69234649999999,169.7418592999893,169.7418592999893,169.7418592999893,169.7418592999893,169.7418592999893,169.7418592999893,169.7418592999893,169.7418592999893,169.7418592999893,right,0.39591310001560487,170.1590620999923,170.1590620999923,None,,9,001,2025-12-18_14h03.29.612,2025C_exp1_comp,2022.2.4,59.777579581059115,
42.7,315,1,1,1,15,123,71,170.1590620999923,170.1590620999923,170.65960089999135,170.7262946999981,170.7766219999903,170.7766219999903,170.7766219999903,170.7766219999903,170.82623130000138,170.82623130000138,170.82623130000138,170.82623130000138,170.82623130000138,170.82623130000138,170.82623130000138,170.82623130000138,170.82623130000138,right,0.3993118000071263,171.24348129999998,171.24348129999998,None,,9,001,2025-12-18_14h03.29.612,2025C_exp1_comp,2022.2.4,59.777579581059115,
39.2,315,-1,-1,1,16,124,88,171.24348129999998,171.24348129999998,171.74405519998982,171.81069499999285,171.86093779999646,171.86093779999646,171.86093779999646,171.86093779999646,171.91085689999454,171.91085689999454,171.91085689999454,171.91085689999454,171.91085689999454,171.91085689999454,171.91085689999454,171.91085689999454,171.91085689999454,right,0.48224549999576993,172.41128539999772,172.41128539999772,None,,9,001,2025-12-18_14h03.29.612,2025C_exp1_comp,2022.2.4,59.777579581059115,
35.3,45,-1,-1,1,17,125,78,172.41128539999772,172.41128539999772,172.91165860000183,172.97837259998778,173.02890869999828,173.02890869999828,173.02890869999828,173.02890869999828,173.07865250000032,173.07865250000032,173.07865250000032,173.07865250000032,173.07865250000032,173.07865250000032,173.07865250000032,173.07865250000032,173.07865250000032,right,0.5305812000151491,173.6292117999983,173.6292117999983,None,,9,001,2025-12-18_14h03.29.612,2025C_exp1_comp,2022.2.4,59.777579581059115,
39.2,45,-1,0,1,18,126,7,173.6292117999983,173.6292117999983,174.12996409999323,174.1965412999998,174.24687170000107,174.24687170000107,174.24687170000107,174.24687170000107,174.29677249999077,174.29677249999077,174.29677249999077,174.29677249999077,174.29677249999077,174.29677249999077,174.29677249999077,174.29677249999077,174.29677249999077,right,0.49612169999454636,174.81359799999336,174.81359799999336,None,,9,001,2025-12-18_14h03.29.612,2025C_exp1_comp,2022.2.4,59.777579581059115,
35.3,45,1,1,1,19,127,60,174.81359799999336,174.81359799999336,175.31415999999444,175.3809837000008,175.43117289998918,175.43117289998918,175.43117289998918,175.43117289998918,175.48106249999546,175.48106249999546,175.48106249999546,175.48106249999546,175.48106249999546,175.48106249999546,175.48106249999546,175.48106249999546,175.48106249999546,right,0.4878095000021858,175.9983013000019,175.9983013000019,None,,9,001,2025-12-18_14h03.29.612,2025C_exp1_comp,2022.2.4,59.777579581059115,
19.6,315,-1,0,1,20,128,11,175.9983013000019,175.9983013000019,176.4987686999957,176.56531339998764,176.6156711999938,176.6156711999938,176.6156711999938,176.6156711999938,176.665585499999,176.665585499999,176.665585499999,176.665585499999,176.665585499999,176.665585499999,176.665585499999,176.665585499999,176.665585499999,right,0.4554783000057796,177.1494199000008,177.1494199000008,None,,9,001,2025-12-18_14h03.29.612,2025C_exp1_comp,2022.2.4,59.777579581059115,
42.7,45,-1,0,1,21,129,8,177.1494199000008,177.1494199000008,177.6498644999956,177.71659979999822,177.76694200000202,177.76694200000202,177.76694200000202,177.76694200000202,177.81670939999458,177.81670939999458,177.81670939999458,177.81670939999458,177.81670939999458,177.81670939999458,177.81670939999458,177.81670939999458,177.81670939999458,left,0.4810244000109378,178.31731220000074,178.31731220000074,None,,9,001,2025-12-18_14h03.29.612,2025C_exp1_comp,2022.2.4,59.777579581059115,
42.7,45,-1,-1,1,22,130,80,178.31731220000074,178.31731220000074,178.81776759999047,178.8844165999908,178.9347173999995,178.9347173999995,178.9347173999995,178.9347173999995,178.98457970000163,178.98457970000163,178.98457970000163,178.98457970000163,178.98457970000163,178.98457970000163,178.98457970000163,178.98457970000163,178.98457970000163,left,0.5203144999977667,179.5348415999906,179.5348415999906,None,,9,001,2025-12-18_14h03.29.612,2025C_exp1_comp,2022.2.4,59.777579581059115,
12.1,45,1,1,1,23,131,54,179.5348415999906,179.5348415999906,180.0355911999941,180.1023387999885,180.15258389999508,180.15258389999508,180.15258389999508,180.15258389999508,180.20245989999967,180.20245989999967,180.20245989999967,180.20245989999967,180.20245989999967,180.20245989999967,180.20245989999967,180.20245989999967,180.20245989999967,left,0.5585004000022309,180.78636769999866,180.78636769999866,None,,9,001,2025-12-18_14h03.29.612,2025C_exp1_comp,2022.2.4,59.777579581059115,
15.7,315,-1,0,1,24,132,10,180.78636769999866,180.78636769999866,181.28675639998983,181.3535675999883,181.40385550000065,181.40385550000065,181.40385550000065,181.40385550000065,181.45368289999897,181.45368289999897,181.45368289999897,181.45368289999897,181.45368289999897,181.45368289999897,181.45368289999897,181.45368289999897,181.45368289999897,right,0.5159435999958077,181.98756769999454,181.98756769999454,None,,9,001,2025-12-18_14h03.29.612,2025C_exp1_comp,2022.2.4,59.777579581059115,
29.4,315,1,-1,1,25,133,104,181.98756769999454,181.98756769999454,182.4879751999979,182.55480369999714,182.60508290000143,182.60508290000143,182.60508290000143,182.60508290000143,182.65492239999003,182.65492239999003,182.65492239999003,182.65492239999003,182.65492239999003,182.65492239999003,182.65492239999003,182.65492239999003,182.65492239999003,right,0.5628897999995388,183.23864159999357,183.23864159999357,None,,9,001,2025-12-18_14h03.29.612,2025C_exp1_comp,2022.2.4,59.777579581059115,
15.7,315,1,1,1,26,134,64,183.23864159999357,183.23864159999357,183.73937349999323,183.8060487999901,183.85624449999887,183.85624449999887,183.85624449999887,183.85624449999887,183.90619650000008,183.90619650000008,183.90619650000008,183.90619650000008,183.90619650000008,183.90619650000008,183.90619650000008,183.90619650000008,183.90619650000008,left,0.5754141999932472,184.50674199999776,184.50674199999776,None,,9,001,2025-12-18_14h03.29.612,2025C_exp1_comp,2022.2.4,59.777579581059115,
25.5,45,1,0,1,27,135,22,184.50674199999776,184.50674199999776,185.00731010000163,185.07387709998875,185.12427649999154,185.12427649999154,185.12427649999154,185.12427649999154,185.1740875999967,185.1740875999967,185.1740875999967,185.1740875999967,185.1740875999967,185.1740875999967,185.1740875999967,185.1740875999967,185.1740875999967,left,0.5147441000008257,185.70803709999018,185.70803709999018,None,,9,001,2025-12-18_14h03.29.612,2025C_exp1_comp,2022.2.4,59.777579581059115,
12.1,315,-1,-1,1,28,136,81,185.70803709999018,185.70803709999018,186.2083721999952,186.27517329998955,186.32539189999807,186.32539189999807,186.32539189999807,186.32539189999807,186.37515389999317,186.37515389999317,186.37515389999317,186.37515389999317,186.37515389999317,186.37515389999317,186.37515389999317,186.37515389999317,186.37515389999317,right,0.5220433000067715,186.92568319999555,186.92568319999555,None,,9,001,2025-12-18_14h03.29.612,2025C_exp1_comp,2022.2.4,59.777579581059115,
15.7,45,1,-1,1,29,137,91,186.92568319999555,186.92568319999555,187.4265241999965,187.49291089999315,187.54315029999998,187.54315029999998,187.54315029999998,187.54315029999998,187.5931372999912,187.5931372999912,187.5931372999912,187.5931372999912,187.5931372999912,187.5931372999912,187.5931372999912,187.5931372999912,187.5931372999912,left,0.5034880000021076,188.12687809999625,188.12687809999625,None,,9,001,2025-12-18_14h03.29.612,2025C_exp1_comp,2022.2.4,59.777579581059115,
29.4,45,-1,0,1,30,138,5,188.12687809999625,188.12687809999625,188.62754609998956,188.69438469999295,188.7445289999887,188.7445289999887,188.7445289999887,188.7445289999887,188.79438690000097,188.79438690000097,188.79438690000097,188.79438690000097,188.79438690000097,188.79438690000097,188.79438690000097,188.79438690000097,188.79438690000097,right,0.5021649999980582,189.32829330000095,189.32829330000095,None,,9,001,2025-12-18_14h03.29.612,2025C_exp1_comp,2022.2.4,59.777579581059115,
22.7,315,1,-1,1,31,139,102,189.32829330000095,189.32829330000095,189.82887359999586,189.89572970000154,189.9459710999945,189.9459710999945,189.9459710999945,189.9459710999945,189.99575940000068,189.99575940000068,189.99575940000068,189.99575940000068,189.99575940000068,189.99575940000068,189.99575940000068,189.99575940000068,189.99575940000068,right,0.6129367999965325,190.6295131999941,190.6295131999941,None,,9,001,2025-12-18_14h03.29.612,2025C_exp1_comp,2022.2.4,59.777579581059115,
29.4,45,-1,1,1,32,140,41,190.6295131999941,190.6295131999941,191.13001949999307,191.19675379998807,191.24700199998915,191.24700199998915,191.24700199998915,191.24700199998915,191.2967193999939,191.2967193999939,191.2967193999939,191.2967193999939,191.2967193999939,191.2967193999939,191.2967193999939,191.2967193999939,191.2967193999939,right,0.40023470000596717,191.7139221999969,191.7139221999969,None,,9,001,2025-12-18_14h03.29.612,2025C_exp1_comp,2022.2.4,59.777579581059115,
42.7,315,1,0,1,33,141,35,191.7139221999969,191.7139221999969,192.21443229999568,192.28102769999532,192.33145779999904,192.33145779999904,192.33145779999904,192.33145779999904,192.38123990000167,192.38123990000167,192.38123990000167,192.38123990000167,192.38123990000167,192.38123990000167,192.38123990000167,192.38123990000167,192.38123990000167,right,0.435293400005321,192.84809459999087,192.84809459999087,None,,9,001,2025-12-18_14h03.29.612,2025C_exp1_comp,2022.2.4,59.777579581059115,
29.4,45,1,-1,1,34,142,95,192.84809459999087,192.84809459999087,193.34887609998987,193.4153202000016,193.4656118999992,193.4656118999992,193.4656118999992,193.4656118999992,193.5154074999882,193.5154074999882,193.5154074999882,193.5154074999882,193.5154074999882,193.5154074999882,193.5154074999882,193.5154074999882,193.5154074999882,right,0.48499270000320394,194.03256789999432,194.03256789999432,None,,9,001,2025-12-18_14h03.29.612,2025C_exp1_comp,2022.2.4,59.777579581059115,
39.2,45,1,-1,1,35,143,97,194.03256789999432,194.03256789999432,194.5336290999985,194.6002390999929,194.65042599999288,194.65042599999288,194.65042599999288,194.65042599999288,194.70023029998993,194.70023029998993,194.70023029998993,194.70023029998993,194.70023029998993,194.70023029998993,194.70023029998993,194.70023029998993,194.70023029998993,right,0.5485469999985071,195.2674704999954,195.2674704999954,None,,9,001,2025-12-18_14h03.29.612,2025C_exp1_comp,2022.2.4,59.777579581059115,
39.2,45,-1,1,1,36,144,43,195.2674704999954,195.2674704999954,195.76773989999492,195.83473999999114,195.884997199988,195.884997199988,195.884997199988,195.884997199988,195.93470139999408,195.93470139999408,195.93470139999408,195.93470139999408,195.93470139999408,195.93470139999408,195.93470139999408,195.93470139999408,195.93470139999408,left,0.4590702000132296,196.4185725999996,196.4185725999996,None,,9,001,2025-12-18_14h03.29.612,2025C_exp1_comp,2022.2.4,59.777579581059115,
19.6,315,1,0,1,37,145,29,196.4185725999996,196.4185725999996,196.91913499998918,196.9858375999902,197.03615469999204,197.03615469999204,197.03615469999204,197.03615469999204,197.08597010000085,197.08597010000085,197.08597010000085,197.08597010000085,197.08597010000085,197.08597010000085,197.08597010000085,197.08597010000085,197.08597010000085,right,0.4910562000150094,197.60318559998996,197.60318559998996,None,,9,001,2025-12-18_14h03.29.612,2025C_exp1_comp,2022.2.4,59.777579581059115,
42.7,315,1,-1,1,38,146,107,197.60318559998996,197.60318559998996,198.10374439999578,198.17046809999738,198.22063889999117,198.22063889999117,198.22063889999117,198.22063889999117,198.2705438999983,198.2705438999983,198.2705438999983,198.2705438999983,198.2705438999983,198.2705438999983,198.2705438999983,198.2705438999983,198.2705438999983,left,0.4503123000031337,198.7376241999882,198.7376241999882,None,,9,001,2025-12-18_14h03.29.612,2025C_exp1_comp,2022.2.4,59.777579581059115,
25.5,45,-1,-1,1,39,147,76,198.7376241999882,198.7376241999882,199.23813469999004,199.3048689999996,199.35514319999493,199.35514319999493,199.35514319999493,199.35514319999493,199.40492789998825,199.40492789998825,199.40492789998825,199.40492789998825,199.40492789998825,199.40492789998825,199.40492789998825,199.40492789998825,199.40492789998825,right,0.4290163000114262,199.8555323999899,199.8555323999899,None,,9,001,2025-12-18_14h03.29.612,2025C_exp1_comp,2022.2.4,59.777579581059115,
15.7,315,-1,-1,1,40,148,82,199.8555323999899,199.8555323999899,200.35591399999976,200.42252569999255,200.4730714999896,200.4730714999896,200.4730714999896,200.4730714999896,200.52286149999418,200.52286149999418,200.52286149999418,200.52286149999418,200.52286149999418,200.52286149999418,200.52286149999418,200.52286149999418,200.52286149999418,right,0.4229621000122279,200.97325779999665,200.97325779999665,None,,9,001,2025-12-18_14h03.29.612,2025C_exp1_comp,2022.2.4,59.777579581059115,
15.7,315,-1,1,1,41,149,46,200.97325779999665,200.97325779999665,201.47374459999264,201.54045770000084,201.59060349999345,201.59060349999345,201.59060349999345,201.59060349999345,201.64022479999403,201.64022479999403,201.64022479999403,201.64022479999403,201.64022479999403,201.64022479999403,201.64022479999403,201.64022479999403,201.64022479999403,right,0.45743209999636747,202.12429890000203,202.12429890000203,None,,9,001,2025-12-18_14h03.29.612,2025C_exp1_comp,2022.2.4,59.777579581059115,
35.3,315,-1,1,1,42,150,51,202.12429890000203,202.12429890000203,202.62477460000082,202.69162179999694,202.74194139998872,202.74194139998872,202.74194139998872,202.74194139998872,202.7914834999974,202.7914834999974,202.7914834999974,202.7914834999974,202.7914834999974,202.7914834999974,202.7914834999974,202.7914834999974,202.7914834999974,right,0.47439989999111276,203.2919877999957,203.2919877999957,None,,9,001,2025-12-18_14h03.29.612,2025C_exp1_comp,2022.2.4,59.777579581059115,
25.5,315,1,-1,1,43,151,103,203.2919877999957,203.2919877999957,203.7925847000006,203.85929549999128,203.90971490000084,203.90971490000084,203.90971490000084,203.90971490000084,203.95925929999794,203.95925929999794,203.95925929999794,203.95925929999794,203.95925929999794,203.95925929999794,203.95925929999794,203.95925929999794,203.95925929999794,left,0.4501445999921998,204.4265027999936,204.4265027999936,None,,9,001,2025-12-18_14h03.29.612,2025C_exp1_comp,2022.2.4,59.777579581059115,
25.5,315,-1,-1,1,44,152,85,204.4265027999936,204.4265027999936,204.92716039999505,204.99391859999741,205.0443232999969,205.0443232999969,205.0443232999969,205.0443232999969,205.09372219999204,205.09372219999204,205.09372219999204,205.09372219999204,205.09372219999204,205.09372219999204,205.09372219999204,205.09372219999204,205.09372219999204,right,0.39610610000090674,205.51108609999937,205.51108609999937,None,,9,001,2025-12-18_14h03.29.612,2025C_exp1_comp,2022.2.4,59.777579581059115,
35.3,315,1,0,1,45,153,33,205.51108609999937,205.51108609999937,206.01126149999618,206.0779588000005,206.12825689998863,206.12825689998863,206.12825689998863,206.12825689998863,206.17807919999177,206.17807919999177,206.17807919999177,206.17807919999177,206.17807919999177,206.17807919999177,206.17807919999177,206.17807919999177,206.17807919999177,right,0.43120370000542607,206.62867779999215,206.62867779999215,None,,9,001,2025-12-18_14h03.29.612,2025C_exp1_comp,2022.2.4,59.777579581059115,
42.7,315,-1,0,1,46,154,17,206.62867779999215,206.62867779999215,207.12922909999907,207.19594119999965,207.24641089999932,207.24641089999932,207.24641089999932,207.24641089999932,207.29619549999188,207.29619549999188,207.29619549999188,207.29619549999188,207.29619549999188,207.29619549999188,207.29619549999188,207.29619549999188,207.29619549999188,right,0.44939789999625646,207.7631793999899,207.7631793999899,None,,9,001,2025-12-18_14h03.29.612,2025C_exp1_comp,2022.2.4,59.777579581059115,
39.2,315,-1,0,1,47,155,16,207.7631793999899,207.7631793999899,208.26353299999028,208.33052730000054,208.38095639999665,208.38095639999665,208.38095639999665,208.38095639999665,208.4306260000012,208.4306260000012,208.4306260000012,208.4306260000012,208.4306260000012,208.4306260000012,208.4306260000012,208.4306260000012,208.4306260000012,right,0.41065390000585467,208.8644074999902,208.8644074999902,None,,9,001,2025-12-18_14h03.29.612,2025C_exp1_comp,2022.2.4,59.777579581059115,
22.7,315,-1,1,1,48,156,48,208.8644074999902,208.8644074999902,209.36493809999956,209.4316395999922,209.48198989999946,209.48198989999946,209.48198989999946,209.48198989999946,209.53175579999515,209.53175579999515,209.53175579999515,209.53175579999515,209.53175579999515,209.53175579999515,209.53175579999515,209.53175579999515,209.53175579999515,right,0.5095248000143329,210.06542600000103,210.06542600000103,None,,9,001,2025-12-18_14h03.29.612,2025C_exp1_comp,2022.2.4,59.777579581059115,
39.2,45,1,0,1,49,157,25,210.06542600000103,210.06542600000103,210.56600739998976,210.63285769999493,210.68316780000168,210.68316780000168,210.68316780000168,210.68316780000168,210.73284159999457,210.73284159999457,210.73284159999457,210.73284159999457,210.73284159999457,210.73284159999457,210.73284159999457,210.73284159999457,210.73284159999457,right,0.4603862000076333,211.216760299998,211.216760299998,None,,9,001,2025-12-18_14h03.29.612,2025C_exp1_comp,2022.2.4,59.777579581059115,
22.7,45,-1,0,1,50,158,3,211.216760299998,211.216760299998,211.71703109999362,211.78396509999584,211.834277499991,211.834277499991,211.834277499991,211.834277499991,211.88407619998907,211.88407619998907,211.88407619998907,211.88407619998907,211.88407619998907,211.88407619998907,211.88407619998907,211.88407619998907,211.88407619998907,right,0.4684587000083411,212.38430669999798,212.38430669999798,None,,9,001,2025-12-18_14h03.29.612,2025C_exp1_comp,2022.2.4,59.777579581059115,
22.7,315,-1,0,1,51,159,12,212.38430669999798,212.38430669999798,212.88501779999933,212.95169099999475,213.00210589999915,213.00210589999915,213.00210589999915,213.00210589999915,213.0519432000001,213.0519432000001,213.0519432000001,213.0519432000001,213.0519432000001,213.0519432000001,213.0519432000001,213.0519432000001,213.0519432000001,right,0.4126728999981424,213.4855477999954,213.4855477999954,None,,9,001,2025-12-18_14h03.29.612,2025C_exp1_comp,2022.2.4,59.777579581059115,
12.1,315,1,1,1,52,160,63,213.4855477999954,213.4855477999954,213.98620259999007,214.05291990000114,214.10301599999366,214.10301599999366,214.10301599999366,214.10301599999366,214.15300189999107,214.15300189999107,214.15300189999107,214.15300189999107,214.15300189999107,214.15300189999107,214.15300189999107,214.15300189999107,214.15300189999107,left,0.399900800010073,214.56996470000013,214.56996470000013,None,,9,001,2025-12-18_14h03.29.612,2025C_exp1_comp,2022.2.4,59.777579581059115,
19.6,315,1,-1,1,53,161,101,214.56996470000013,214.56996470000013,215.07061979999708,215.13748439999472,215.18774519998988,215.18774519998988,215.18774519998988,215.18774519998988,215.23730049999722,215.23730049999722,215.23730049999722,215.23730049999722,215.23730049999722,215.23730049999722,215.23730049999722,215.23730049999722,215.23730049999722,left,0.42814580000413116,215.6879309999931,215.6879309999931,None,,9,001,2025-12-18_14h03.29.612,2025C_exp1_comp,2022.2.4,59.777579581059115,
22.7,315,1,0,1,54,162,30,215.6879309999931,215.6879309999931,216.1883944000001,216.25508219999028,216.3054095999978,216.3054095999978,216.3054095999978,216.3054095999978,216.35534189999453,216.35534189999453,216.35534189999453,216.35534189999453,216.35534189999453,216.35534189999453,216.35534189999453,216.35534189999453,216.35534189999453,left,0.3654843999975128,216.7386550999945,216.7386550999945,None,,9,001,2025-12-18_14h03.29.612,2025C_exp1_comp,2022.2.4,59.777579581059115,
22.7,45,-1,-1,1,55,163,75,216.7386550999945,216.7386550999945,217.2398652999982,217.30689859999984,217.35658379999222,217.35658379999222,217.35658379999222,217.35658379999222,217.40664509999624,217.40664509999624,217.40664509999624,217.40664509999624,217.40664509999624,217.40664509999624,217.40664509999624,217.40664509999624,217.40664509999624,right,0.46680610001203604,217.89011379999283,217.89011379999283,None,,9,001,2025-12-18_14h03.29.612,2025C_exp1_comp,2022.2.4,59.777579581059115,
12.1,315,-1,0,1,56,164,9,217.89011379999283,217.89011379999283,218.39101029999438,218.45762580000155,218.5078394000011,218.5078394000011,218.5078394000011,218.5078394000011,218.55788399999437,218.55788399999437,218.55788399999437,218.55788399999437,218.55788399999437,218.55788399999437,218.55788399999437,218.55788399999437,218.55788399999437,right,0.41055850000702776,218.99090530000103,218.99090530000103,None,,9,001,2025-12-18_14h03.29.612,2025C_exp1_comp,2022.2.4,59.777579581059115,
15.7,315,1,0,1,57,165,28,218.99090530000103,218.99090530000103,219.491526599988,219.5581322999933,219.6084184999927,219.6084184999927,219.6084184999927,219.6084184999927,219.65819380000175,219.65819380000175,219.65819380000175,219.65819380000175,219.65819380000175,219.65819380000175,219.65819380000175,219.65819380000175,219.65819380000175,left,0.4065480999997817,220.09206349999295,220.09206349999295,None,,9,001,2025-12-18_14h03.29.612,2025C_exp1_comp,2022.2.4,59.777579581059115,
12.1,315,-1,1,1,58,166,45,220.09206349999295,220.09206349999295,220.5924692999979,220.65926109999418,220.70950159999484,220.70950159999484,220.70950159999484,220.70950159999484,220.75928990000102,220.75928990000102,220.75928990000102,220.75928990000102,220.75928990000102,220.75928990000102,220.75928990000102,220.75928990000102,220.75928990000102,right,0.46578579999913927,221.24321169999894,221.24321169999894,None,,9,001,2025-12-18_14h03.29.612,2025C_exp1_comp,2022.2.4,59.777579581059115,
19.6,45,-1,0,1,59,167,2,221.24321169999894,221.24321169999894,221.7440423999942,221.81034450000152,221.86064400000032,221.86064400000032,221.86064400000032,221.86064400000032,221.91043419999187,221.91043419999187,221.91043419999187,221.91043419999187,221.91043419999187,221.91043419999187,221.91043419999187,221.91043419999187,221.91043419999187,right,0.48199849999218713,222.41108499999973,222.41108499999973,None,,9,001,2025-12-18_14h03.29.612,2025C_exp1_comp,2022.2.4,59.777579581059115,
39.2,315,1,0,1,60,168,34,222.41108499999973,222.41108499999973,222.91155549998803,222.978220399993,223.02851859999646,223.02851859999646,223.02851859999646,223.02851859999646,223.07849259999057,223.07849259999057,223.07849259999057,223.07849259999057,223.07849259999057,223.07849259999057,223.07849259999057,223.07849259999057,223.07849259999057,left,0.5380599000054644,223.64562640000076,223.64562640000076,None,,9,001,2025-12-18_14h03.29.612,2025C_exp1_comp,2022.2.4,59.777579581059115,
25.5,315,-1,1,1,61,169,49,223.64562640000076,223.64562640000076,224.1460364999948,224.2127494999877,224.2631204999925,224.2631204999925,224.2631204999925,224.2631204999925,224.31290809999336,224.31290809999336,224.31290809999336,224.31290809999336,224.31290809999336,224.31290809999336,224.31290809999336,224.31290809999336,224.31290809999336,right,0.3130814000032842,224.64693199998874,224.64693199998874,None,,9,001,2025-12-18_14h03.29.612,2025C_exp1_comp,2022.2.4,59.777579581059115,
42.7,45,1,0,1,62,170,26,224.64693199998874,224.64693199998874,225.14757159999863,225.21428379999998,225.2643965999887,225.2643965999887,225.2643965999887,225.2643965999887,225.3141983999958,225.3141983999958,225.3141983999958,225.3141983999958,225.3141983999958,225.3141983999958,225.3141983999958,225.3141983999958,225.3141983999958,right,0.31873020000057295,225.6643738999992,225.6643738999992,None,,9,001,2025-12-18_14h03.29.612,2025C_exp1_comp,2022.2.4,59.777579581059115,
22.7,45,-1,1,1,63,171,39,225.6643738999992,225.6643738999992,226.16503839999496,226.23171329998877,226.2819690999895,226.2819690999895,226.2819690999895,226.2819690999895,226.3317883999989,226.3317883999989,226.3317883999989,226.3317883999989,226.3317883999989,226.3317883999989,226.3317883999989,226.3317883999989,226.3317883999989,right,0.3493326000025263,226.69875599999796,226.69875599999796,None,,9,001,2025-12-18_14h03.29.612,2025C_exp1_comp,2022.2.4,59.777579581059115,
12.1,45,-1,0,1,64,172,0,226.69875599999796,226.69875599999796,227.1994199999899,227.26614049999625,227.31623430000036,227.31623430000036,227.31623430000036,227.31623430000036,227.36604670000088,227.36604670000088,227.36604670000088,227.36604670000088,227.36604670000088,227.36604670000088,227.36604670000088,227.36604670000088,227.36604670000088,right,0.4187543000007281,227.81651559998863,227.81651559998863,None,,9,001,2025-12-18_14h03.29.612,2025C_exp1_comp,2022.2.4,59.777579581059115,
25.5,315,-1,0,1,65,173,13,227.81651559998863,227.81651559998863,228.316925799998,228.3838992999954,228.43432590000157,228.43432590000157,228.43432590000157,228.43432590000157,228.48401770000055,228.48401770000055,228.48401770000055,228.48401770000055,228.48401770000055,228.48401770000055,228.48401770000055,228.48401770000055,228.48401770000055,right,0.37333860000944696,228.88440529999207,228.88440529999207,None,,9,001,2025-12-18_14h03.29.612,2025C_exp1_comp,2022.2.4,59.777579581059115,
19.6,45,-1,1,1,66,174,38,228.88440529999207,228.88440529999207,229.3847834999906,229.45182209998893,229.50192369999422,229.50192369999422,229.50192369999422,229.50192369999422,229.5517370999878,229.5517370999878,229.5517370999878,229.5517370999878,229.5517370999878,229.5517370999878,229.5517370999878,229.5517370999878,229.5517370999878,right,0.35335000000486616,229.93548109999392,229.93548109999392,None,,9,001,2025-12-18_14h03.29.612,2025C_exp1_comp,2022.2.4,59.777579581059115,
39.2,45,-1,-1,1,67,175,79,229.93548109999392,229.93548109999392,230.43599649998941,230.5026108999882,230.55303159999312,230.55303159999312,230.55303159999312,230.55303159999312,230.60281729999406,230.60281729999406,230.60281729999406,230.60281729999406,230.60281729999406,230.60281729999406,230.60281729999406,230.60281729999406,230.60281729999406,right,0.5340582999924663,231.1531518999982,231.1531518999982,None,,9,001,2025-12-18_14h03.29.612,2025C_exp1_comp,2022.2.4,59.777579581059115,
15.7,45,1,0,1,68,176,19,231.1531518999982,231.1531518999982,231.6536211999919,231.72023579999222,231.770709599994,231.770709599994,231.770709599994,231.770709599994,231.82031789999746,231.82031789999746,231.82031789999746,231.82031789999746,231.82031789999746,231.82031789999746,231.82031789999746,231.82031789999746,231.82031789999746,left,0.5324303000088548,232.37101099999563,232.37101099999563,None,,9,001,2025-12-18_14h03.29.612,2025C_exp1_comp,2022.2.4,59.777579581059115,
12.1,45,-1,1,1,69,177,36,232.37101099999563,232.37101099999563,232.87151129999256,232.93822749999526,232.98842349999177,232.98842349999177,232.98842349999177,232.98842349999177,233.03822659999423,233.03822659999423,233.03822659999423,233.03822659999423,233.03822659999423,233.03822659999423,233.03822659999423,233.03822659999423,233.03822659999423,right,0.44225779999396764,233.5054284999933,233.5054284999933,None,,9,001,2025-12-18_14h03.29.612,2025C_exp1_comp,2022.2.4,59.777579581059115,
25.5,45,-1,0,1,70,178,4,233.5054284999933,233.5054284999933,234.00586710000061,234.07271929999115,234.12297070000204,234.12297070000204,234.12297070000204,234.12297070000204,234.17277429999376,234.17277429999376,234.17277429999376,234.17277429999376,234.17277429999376,234.17277429999376,234.17277429999376,234.17277429999376,234.17277429999376,right,0.420903799997177,234.62346659999457,234.62346659999457,None,,9,001,2025-12-18_14h03.29.612,2025C_exp1_comp,2022.2.4,59.777579581059115,
15.7,45,1,1,1,71,179,55,234.62346659999457,234.62346659999457,235.12400809999963,235.1905770000012,235.24078149998968,235.24078149998968,235.24078149998968,235.24078149998968,235.29071229998954,235.29071229998954,235.29071229998954,235.29071229998954,235.29071229998954,235.29071229998954,235.29071229998954,235.29071229998954,235.29071229998954,left,0.40712960000382736,235.72460899999714,235.72460899999714,None,,9,001,2025-12-18_14h03.29.612,2025C_exp1_comp,2022.2.4,59.777579581059115,
19.6,315,1,1,1,72,180,65,235.72460899999714,235.72460899999714,236.2250936999917,236.29177969999728,236.34213819999422,236.34213819999422,236.34213819999422,236.34213819999422,236.39193679999153,236.39193679999153,236.39193679999153,236.39193679999153,236.39193679999153,236.39193679999153,236.39193679999153,236.39193679999153,236.39193679999153,left,0.4334377999912249,236.84220339999592,236.84220339999592,None,,9,001,2025-12-18_14h03.29.612,2025C_exp1_comp,2022.2.4,59.777579581059115,
12.1,45,1,-1,1,73,181,90,236.84220339999592,236.84220339999592,237.34283819999837,237.40969400000176,237.460001200001,237.460001200001,237.460001200001,237.460001200001,237.50970830000006,237.50970830000006,237.50970830000006,237.50970830000006,237.50970830000006,237.50970830000006,237.50970830000006,237.50970830000006,237.50970830000006,left,0.32295950000116136,237.86010389999137,237.86010389999137,None,,9,001,2025-12-18_14h03.29.612,2025C_exp1_comp,2022.2.4,59.777579581059115,
15.7,315,1,-1,1,74,182,100,237.86010389999137,237.86010389999137,238.36058769999363,238.42717450000055,238.47759489998862,238.47759489998862,238.47759489998862,238.47759489998862,238.5271214999957,238.5271214999957,238.5271214999957,238.5271214999957,238.5271214999957,238.5271214999957,238.5271214999957,238.5271214999957,238.5271214999957,left,0.3227099000068847,238.87776079999458,238.87776079999458,None,,9,001,2025-12-18_14h03.29.612,2025C_exp1_comp,2022.2.4,59.777579581059115,
22.7,315,1,1,1,75,183,66,238.87776079999458,238.87776079999458,239.37794579999172,239.4449190999876,239.49526849998801,239.49526849998801,239.49526849998801,239.49526849998801,239.5450864000013,239.5450864000013,239.5450864000013,239.5450864000013,239.5450864000013,239.5450864000013,239.5450864000013,239.5450864000013,239.5450864000013,left,0.40053610000177287,239.962013700002,239.962013700002,None,,9,001,2025-12-18_14h03.29.612,2025C_exp1_comp,2022.2.4,59.777579581059115,
19.6,45,1,1,1,76,184,56,239.962013700002,239.962013700002,240.4625262999907,240.52924479999638,240.57965479999257,240.57965479999257,240.57965479999257,240.57965479999257,240.62946539999393,240.62946539999393,240.62946539999393,240.62946539999393,240.62946539999393,240.62946539999393,240.62946539999393,240.62946539999393,240.62946539999393,left,0.396333600016078,241.04651719999674,241.04651719999674,None,,9,001,2025-12-18_14h03.29.612,2025C_exp1_comp,2022.2.4,59.777579581059115,
42.7,315,-1,-1,1,77,185,89,241.04651719999674,241.04651719999674,241.54708160000155,241.61377199999697,241.66391229999135,241.66391229999135,241.66391229999135,241.66391229999135,241.7138791999896,241.7138791999896,241.7138791999896,241.7138791999896,241.7138791999896,241.7138791999896,241.7138791999896,241.7138791999896,241.7138791999896,right,0.46339829999487847,242.1978029999882,242.1978029999882,None,,9,001,2025-12-18_14h03.29.612,2025C_exp1_comp,2022.2.4,59.777579581059115,
29.4,45,1,1,1,78,186,59,242.1978029999882,242.1978029999882,242.6983043999935,242.76503429999866,242.81534669999382,242.81534669999382,242.81534669999382,242.81534669999382,242.86492899998848,242.86492899998848,242.86492899998848,242.86492899998848,242.86492899998848,242.86492899998848,242.86492899998848,242.86492899998848,242.86492899998848,left,0.4320759999973234,243.31546610000078,243.31546610000078,None,,9,001,2025-12-18_14h03.29.612,2025C_exp1_comp,2022.2.4,59.777579581059115,
39.2,315,1,1,1,79,187,70,243.31546610000078,243.31546610000078,243.8159949999972,243.88287039998977,243.93306989999837,243.93306989999837,243.93306989999837,243.93306989999837,243.98287599999458,243.98287599999458,243.98287599999458,243.98287599999458,243.98287599999458,243.98287599999458,243.98287599999458,243.98287599999458,243.98287599999458,right,0.36990249999507796,244.3831569999893,244.3831569999893,None,,9,001,2025-12-18_14h03.29.612,2025C_exp1_comp,2022.2.4,59.777579581059115,
35.3,45,-1,0,1,80,188,6,244.3831569999893,244.3831569999893,244.88378409999132,244.95039889999316,245.00067729999137,245.00067729999137,245.00067729999137,245.00067729999137,245.05041509999137,245.05041509999137,245.05041509999137,245.05041509999137,245.05041509999137,245.05041509999137,245.05041509999137,245.05041509999137,245.05041509999137,left,0.43906150000111666,245.51765429999796,245.51765429999796,None,,9,001,2025-12-18_14h03.29.612,2025C_exp1_comp,2022.2.4,59.777579581059115,
19.6,315,-1,1,1,81,189,47,245.51765429999796,245.51765429999796,246.01818489999278,246.08489610000106,246.13509549999435,246.13509549999435,246.13509549999435,246.13509549999435,246.18472239999392,246.18472239999392,246.18472239999392,246.18472239999392,246.18472239999392,246.18472239999392,246.18472239999392,246.18472239999392,246.18472239999392,right,0.38495849999890197,246.60224609999568,246.60224609999568,None,,9,001,2025-12-18_14h03.29.612,2025C_exp1_comp,2022.2.4,59.777579581059115,
29.4,315,1,1,1,82,190,68,246.60224609999568,246.60224609999568,247.1027322000009,247.16928459999326,247.2196108999924,247.2196108999924,247.2196108999924,247.2196108999924,247.26956069999142,247.26956069999142,247.26956069999142,247.26956069999142,247.26956069999142,247.26956069999142,247.26956069999142,247.26956069999142,247.26956069999142,left,0.3401171000004979,247.6364551000006,247.6364551000006,None,,9,001,2025-12-18_14h03.29.612,2025C_exp1_comp,2022.2.4,59.777579581059115,
42.7,45,1,1,1,83,191,62,247.6364551000006,247.6364551000006,248.1369788000011,248.20367279999482,248.25399610000022,248.25399610000022,248.25399610000022,248.25399610000022,248.30364030000055,248.30364030000055,248.30364030000055,248.30364030000055,248.30364030000055,248.30364030000055,248.30364030000055,248.30364030000055,248.30364030000055,right,0.31392840000626165,248.63746019999962,248.63746019999962,None,,9,001,2025-12-18_14h03.29.612,2025C_exp1_comp,2022.2.4,59.777579581059115,
35.3,315,1,-1,1,84,192,105,248.63746019999962,248.63746019999962,249.13782459999493,249.20462540000153,249.2550126999995,249.2550126999995,249.2550126999995,249.2550126999995,249.30465599999297,249.30465599999297,249.30465599999297,249.30465599999297,249.30465599999297,249.30465599999297,249.30465599999297,249.30465599999297,249.30465599999297,left,0.44779360000393353,249.77165779999632,249.77165779999632,None,,9,001,2025-12-18_14h03.29.612,2025C_exp1_comp,2022.2.4,59.777579581059115,
39.2,315,-1,1,1,85,193,52,249.77165779999632,249.77165779999632,250.27256589999888,250.3391402999987,250.38946510000096,250.38946510000096,250.38946510000096,250.38946510000096,250.4392427999992,250.4392427999992,250.4392427999992,250.4392427999992,250.4392427999992,250.4392427999992,250.4392427999992,250.4392427999992,250.4392427999992,right,0.3135296999971615,250.7726471999922,250.7726471999922,None,,9,001,2025-12-18_14h03.29.612,2025C_exp1_comp,2022.2.4,59.777579581059115,
42.7,45,1,-1,1,86,194,98,250.7726471999922,250.7726471999922,251.27345129998866,251.34016749999137,251.39046949999465,251.39046949999465,251.39046949999465,251.39046949999465,251.44011840000167,251.44011840000167,251.44011840000167,251.44011840000167,251.44011840000167,251.44011840000167,251.44011840000167,251.44011840000167,251.44011840000167,left,0.46528080001007766,251.923985299989,251.923985299989,None,,9,001,2025-12-18_14h03.29.612,2025C_exp1_comp,2022.2.4,59.777579581059115,
35.3,315,-1,0,1,87,195,15,251.923985299989,251.923985299989,252.42458549998992,252.49131109999144,252.54161010000098,252.54161010000098,252.54161010000098,252.54161010000098,252.59144599999127,252.59144599999127,252.59144599999127,252.59144599999127,252.59144599999127,252.59144599999127,252.59144599999127,252.59144599999127,252.59144599999127,left,0.39289479999570176,253.00817089999327,253.00817089999327,None,,9,001,2025-12-18_14h03.29.612,2025C_exp1_comp,2022.2.4,59.777579581059115,
42.7,45,-1,1,1,88,196,44,253.00817089999327,253.00817089999327,253.5087007999973,253.57541720000154,253.6262532999972,253.6262532999972,253.6262532999972,253.6262532999972,253.67568409998785,253.67568409998785,253.67568409998785,253.67568409998785,253.67568409998785,253.67568409998785,253.67568409998785,253.67568409998785,253.67568409998785,right,0.33329049999883864,254.02589059999445,254.02589059999445,None,,9,001,2025-12-18_14h03.29.612,2025C_exp1_comp,2022.2.4,59.777579581059115,
12.1,45,1,0,1,89,197,18,254.02589059999445,254.02589059999445,254.52674750000006,254.59354669999448,254.643949099991,254.643949099991,254.643949099991,254.643949099991,254.69350689998828,254.69350689998828,254.69350689998828,254.69350689998828,254.69350689998828,254.69350689998828,254.69350689998828,254.69350689998828,254.69350689998828,left,0.3791864000086207,255.0939059999946,255.0939059999946,None,,9,001,2025-12-18_14h03.29.612,2025C_exp1_comp,2022.2.4,59.777579581059115,
29.4,315,-1,-1,1,90,198,86,255.0939059999946,255.0939059999946,255.59428809999372,255.6609843999904,255.71130999999878,255.71130999999878,255.71130999999878,255.71130999999878,255.76126939999813,255.76126939999813,255.76126939999813,255.76126939999813,255.76126939999813,255.76126939999813,255.76126939999813,255.76126939999813,255.76126939999813,right,0.32836449999012984,256.1115933999972,256.1115933999972,None,,9,001,2025-12-18_14h03.29.612,2025C_exp1_comp,2022.2.4,59.777579581059115,
19.6,315,-1,-1,1,91,199,83,256.1115933999972,256.1115933999972,256.61214359999576,256.678883200002,256.72915539999667,256.72915539999667,256.72915539999667,256.72915539999667,256.77896179999516,256.77896179999516,256.77896179999516,256.77896179999516,256.77896179999516,256.77896179999516,256.77896179999516,256.77896179999516,256.77896179999516,right,0.3663498999958392,257.1626789000002,257.1626789000002,None,,9,001,2025-12-18_14h03.29.612,2025C_exp1_comp,2022.2.4,59.777579581059115,
25.5,45,1,1,1,92,200,58,257.1626789000002,257.1626789000002,257.6630862999882,257.72995359999186,257.7802357999899,257.7802357999899,257.7802357999899,257.7802357999899,257.82999679999193,257.82999679999193,257.82999679999193,257.82999679999193,257.82999679999193,257.82999679999193,257.82999679999193,257.82999679999193,257.82999679999193,right,0.3316888000117615,258.18037039999035,258.18037039999035,None,,9,001,2025-12-18_14h03.29.612,2025C_exp1_comp,2022.2.4,59.777579581059115,
42.7,315,-1,1,1,93,201,53,258.18037039999035,258.18037039999035,258.68089189998864,258.74749670000165,258.79790539998794,258.79790539998794,258.79790539998794,258.79790539998794,258.847523199991,258.847523199991,258.847523199991,258.847523199991,258.847523199991,258.847523199991,258.847523199991,258.847523199991,258.847523199991,left,0.3855335999978706,259.26478089999,259.26478089999,None,,9,001,2025-12-18_14h03.29.612,2025C_exp1_comp,2022.2.4,59.777579581059115,
15.7,45,-1,1,1,94,202,37,259.26478089999,259.26478089999,259.7653084999911,259.8318855999969,259.882311399997,259.882311399997,259.882311399997,259.882311399997,259.93213169999945,259.93213169999945,259.93213169999945,259.93213169999945,259.93213169999945,259.93213169999945,259.93213169999945,259.93213169999945,259.93213169999945,right,0.26128229999449104,260.2156779999932,260.2156779999932,None,,9,001,2025-12-18_14h03.29.612,2025C_exp1_comp,2022.2.4,59.777579581059115,
29.4,315,1,0,1,95,203,32,260.2156779999932,260.2156779999932,260.7162166999915,260.78310529999726,260.8332272999978,260.8332272999978,260.8332272999978,260.8332272999978,260.88292009998986,260.88292009998986,260.88292009998986,260.88292009998986,260.88292009998986,260.88292009998986,260.88292009998986,260.88292009998986,260.88292009998986,left,0.35009410000930075,261.2500086999935,261.2500086999935,None,,9,001,2025-12-18_14h03.29.612,2025C_exp1_comp,2022.2.4,59.777579581059115,
35.3,45,-1,1,1,96,204,42,261.2500086999935,261.2500086999935,261.7504518999922,261.81729890000133,261.86758429999463,261.86758429999463,261.86758429999463,261.86758429999463,261.91708030000154,261.91708030000154,261.91708030000154,261.91708030000154,261.91708030000154,261.91708030000154,261.91708030000154,261.91708030000154,261.91708030000154,right,0.26728889999503735,262.2007479999884,262.2007479999884,None,,9,001,2025-12-18_14h03.29.612,2025C_exp1_comp,2022.2.4,59.777579581059115,
12.1,45,-1,-1,1,97,205,72,262.2007479999884,262.2007479999884,262.70156039998983,262.7682064999972,262.81855630000064,262.81855630000064,262.81855630000064,262.81855630000064,262.86820359999547,262.86820359999547,262.86820359999547,262.86820359999547,262.86820359999547,262.86820359999547,262.86820359999547,262.86820359999547,262.86820359999547,left,0.25327550001384225,263.1518273999973,263.1518273999973,None,,9,001,2025-12-18_14h03.29.612,2025C_exp1_comp,2022.2.4,59.777579581059115,
